type	block	sequ.	trial	time	Pos.	Color	Button	NumRsp	Resp_1	RT_1	R_Code	Resp_2	RT_2	Trigg.	n_hit	n_inc	n_miss	score_%

random	1	1	1	30812	6	1	1	1	0	809	1	4	0	8	1	0	0	100
random	1	1	2	32452	4	4	4	1	0	740	1	4	0	32	2	0	0	100
random	1	1	3	33844	2	2	2	1	0	785	1	4	0	16	3	0	0	100
random	1	1	4	35623	3	3	3	1	0	645	1	4	0	24	4	0	0	100
random	1	1	5	36787	5	2	2	1	0	1132	1	4	0	16	5	0	0	100
random	1	1	6	38381	1	4	4	1	0	577	1	4	0	32	6	0	0	100
random	1	1	7	39997	6	1	1	1	0	605	1	4	0	8	7	0	0	100
random	1	1	8	41199	2	3	3	1	0	858	1	4	0	24	8	0	0	100
random	1	1	9	42544	4	2	2	1	0	584	1	4	0	16	9	0	0	100
random	1	1	10	44035	1	1	1	1	0	857	1	4	0	8	10	0	0	100
random	1	1	11	45476	5	4	4	1	0	397	1	4	0	32	11	0	0	100
random	1	1	12	46389	3	3	3	1	0	726	1	4	0	24	12	0	0	100
random	1	1	13	47788	5	2	2	2	0	1450	2	4	0	16	13	0	0	100
random	1	1	14	49593	1	4	4	1	0	646	1	4	0	32	14	0	0	100
random	1	1	15	50533	3	1	1	1	0	990	1	4	0	8	15	0	0	100
random	1	1	16	51869	4	3	3	1	0	781	1	4	0	24	16	0	0	100
random	1	1	17	53339	6	4	4	1	0	671	1	4	0	32	17	0	0	100
random	1	1	18	54694	2	1	1	1	0	782	1	4	0	8	18	0	0	100
random	1	1	19	55949	5	3	3	1	0	809	1	4	0	24	19	0	0	100
random	1	1	20	57334	2	2	2	1	0	814	1	4	0	16	20	0	0	100
random	1	1	21	58889	3	3	3	1	0	812	1	4	0	24	21	0	0	100
random	1	1	22	60720	6	1	1	1	0	518	1	4	0	8	22	0	0	100
random	1	1	23	61901	4	2	2	1	0	829	1	4	0	16	23	0	0	100
random	1	1	24	63616	1	4	4	1	0	660	1	4	0	32	24	0	0	100
random	1	1	25	64914	4	3	3	1	0	901	1	4	0	24	25	0	0	100
random	1	1	26	66262	2	1	1	1	0	804	1	4	0	8	26	0	0	100
random	1	1	27	68094	5	2	2	1	0	1037	1	4	0	16	27	0	0	100
random	1	1	28	69476	6	4	4	1	0	732	1	4	0	32	28	0	0	100
random	1	1	29	70670	1	3	3	1	0	713	1	4	0	24	29	0	0	100
random	1	1	30	72042	5	2	2	1	0	887	1	4	0	16	30	0	0	100
random	1	1	31	73899	2	1	1	1	0	761	1	4	0	8	31	0	0	100
random	1	1	32	75324	3	3	3	1	0	740	1	4	0	24	32	0	0	100
random	1	1	33	77038	6	4	4	1	0	652	1	4	0	32	33	0	0	100
random	1	1	34	78261	4	2	2	1	0	959	1	4	0	16	34	0	0	100
random	1	1	35	80129	3	4	4	1	0	657	1	4	0	32	35	0	0	100
random	1	1	36	81405	1	1	1	1	0	738	1	4	0	8	36	0	0	100
random	1	1	37	83243	3	4	4	1	0	669	1	4	0	32	37	0	0	100
random	1	1	38	84338	5	3	3	1	0	823	1	4	0	24	38	0	0	100
random	1	1	39	85504	6	1	1	1	0	917	1	4	0	8	39	0	0	100
random	1	1	40	86875	1	2	2	1	0	707	1	4	0	16	40	0	0	100
random	1	1	41	88306	2	3	3	1	0	718	1	4	0	24	41	0	0	100
random	1	1	42	89567	4	4	4	1	0	753	1	4	0	32	42	0	0	100
random	1	1	43	90765	1	2	2	1	0	694	1	4	0	16	43	0	0	100
random	1	1	44	91783	6	3	3	1	0	683	1	4	0	24	44	0	0	100
random	1	1	45	93374	3	1	1	1	0	728	1	4	0	8	45	0	0	100
random	1	1	46	95084	4	4	4	1	0	743	1	4	0	32	46	0	0	100
random	1	1	47	96372	2	2	2	1	0	817	1	4	0	16	47	0	0	100
random	1	1	48	98173	5	1	1	1	0	717	1	4	0	8	48	0	0	100
random	1	1	49	99917	2	3	3	1	0	834	1	4	0	24	49	0	0	100
random	1	1	50	101187	3	1	1	1	0	772	1	4	0	8	50	0	0	100
random	1	1	51	102673	1	4	4	1	0	446	1	4	0	32	51	0	0	100
random	1	1	52	103928	5	3	3	1	0	1200	1	4	0	24	52	0	0	100
random	1	1	53	105678	3	2	2	1	0	551	1	4	0	16	53	0	0	100
random	1	1	54	106904	6	4	4	1	0	610	1	4	0	32	54	0	0	100
random	1	1	55	108235	4	2	2	1	0	770	1	4	0	16	55	0	0	100
random	1	1	56	109937	1	1	1	1	0	754	1	4	0	8	56	0	0	100
random	1	1	57	111142	5	4	4	1	0	615	1	4	0	32	57	0	0	100
random	1	1	58	112586	2	1	1	1	0	650	1	4	0	8	58	0	0	100
random	1	1	59	113702	6	2	2	1	0	850	1	4	0	16	59	0	0	100
random	1	1	60	115093	4	3	3	1	0	536	1	4	0	24	60	0	0	100
random	1	1	61	116524	1	2	2	1	0	811	1	4	0	16	61	0	0	100
random	1	1	62	118002	6	4	4	1	0	661	1	4	0	32	62	0	0	100
random	1	1	63	119285	4	1	1	1	0	630	1	4	0	8	63	0	0	100
random	1	1	64	120221	2	2	2	1	0	854	1	4	0	16	64	0	0	100
random	1	1	65	121921	4	3	3	1	0	662	1	4	0	24	65	0	0	100
random	1	1	66	123089	3	1	1	1	0	661	1	4	0	8	66	0	0	100
random	1	1	67	124563	1	3	3	1	0	831	1	4	0	24	67	0	0	100
random	1	1	68	126425	5	4	4	1	0	648	1	4	0	32	68	0	0	100
random	1	1	69	127560	2	2	2	1	0	792	1	4	0	16	69	0	0	100
random	1	1	70	129290	3	1	1	1	0	646	1	4	0	8	70	0	0	100
random	1	1	71	130289	5	4	4	1	0	508	1	4	0	32	71	0	0	100
random	1	1	72	131340	6	3	3	1	0	952	1	4	0	24	72	0	0	100
random	1	1	73	132898	2	1	1	1	0	725	1	4	0	8	73	0	0	100
random	1	1	74	134008	5	3	3	1	0	807	1	4	0	24	74	0	0	100
random	1	1	75	135710	1	4	4	1	0	574	1	4	0	32	75	0	0	100
random	1	1	76	136654	6	2	2	1	0	766	1	4	0	16	76	0	0	100
random	1	1	77	138154	2	1	1	1	0	743	1	4	0	8	77	0	0	100
random	1	1	78	139575	4	4	4	2	0	739	2	4	0	32	78	0	0	100
random	1	1	79	141318	3	2	2	1	0	625	1	4	0	16	79	0	0	100
random	1	1	80	142711	4	3	3	1	0	702	1	4	0	24	80	0	0	100
random	1	1	81	143720	1	4	4	1	0	652	1	4	0	32	81	0	0	100
random	1	1	82	144898	5	1	1	1	0	721	1	4	0	8	82	0	0	100
random	1	1	83	146109	3	2	2	1	0	790	1	4	0	16	83	0	0	100
random	1	1	84	147659	6	3	3	1	0	661	1	4	0	24	84	0	0	100
random	1	1	85	149438	3	2	2	1	0	737	1	4	0	16	85	0	0	100
random	1	1	86	150494	1	3	3	1	0	692	1	4	0	24	86	0	0	100
random	1	1	87	151573	4	4	4	1	0	711	1	4	0	32	87	0	0	100
random	1	1	88	152726	2	1	1	1	0	502	1	4	0	8	88	0	0	100
random	1	1	89	154120	6	4	4	1	0	707	1	4	0	32	89	0	0	100
random	1	1	90	155495	3	3	3	1	0	865	1	4	0	24	90	0	0	100
random	1	1	91	157255	5	4	4	1	0	614	1	4	0	32	91	0	0	100
random	1	1	92	158798	1	2	2	1	0	829	1	4	0	16	92	0	0	100
random	1	1	93	160191	5	1	1	1	0	746	1	4	0	8	93	0	0	100
random	1	1	94	161607	4	3	3	1	0	638	1	4	0	24	94	0	0	100
random	1	1	95	163106	6	1	1	1	0	718	1	4	0	8	95	0	0	100
random	1	1	96	164183	2	2	2	1	0	873	1	4	0	16	96	0	0	100
random	1	1	97	165795	4	3	3	1	0	796	1	4	0	24	97	0	0	100
random	1	1	98	167109	3	2	2	1	0	709	1	4	0	16	98	0	0	100
random	1	1	99	168648	6	3	3	1	0	868	1	4	0	24	99	0	0	100
random	1	1	100	170217	1	4	4	1	0	657	1	4	0	32	100	0	0	100
random	1	1	101	171638	4	1	1	1	0	509	1	4	0	8	101	0	0	100
random	1	1	102	172743	5	2	2	1	0	982	1	4	0	16	102	0	0	100
random	1	1	103	174207	2	4	4	1	0	616	1	4	0	32	103	0	0	100
random	1	1	104	175221	3	1	1	1	0	765	1	4	0	8	104	0	0	100
random	1	1	105	176526	1	3	3	1	0	750	1	4	0	24	105	0	0	100
random	1	1	106	177967	2	2	2	2	0	1169	2	4	0	16	106	0	0	100
random	1	1	107	179988	5	4	4	1	0	619	1	4	0	32	107	0	0	100
random	1	1	108	181254	6	1	1	1	0	885	1	4	0	8	108	0	0	100
random	1	1	109	182904	5	4	4	1	0	639	1	4	0	32	109	0	0	100
random	1	1	110	184463	6	3	3	1	0	838	1	4	0	24	110	0	0	100
random	1	1	111	185954	2	2	2	1	0	879	1	4	0	16	111	0	0	100
random	1	1	112	187267	3	1	1	1	0	639	1	4	0	8	112	0	0	100
random	1	1	113	188777	1	2	2	1	0	911	1	4	0	16	113	0	0	100
random	1	1	114	190385	2	3	3	1	0	851	1	4	0	24	114	0	0	100
random	1	1	115	191637	3	1	1	1	0	846	1	4	0	8	115	0	0	100
random	1	1	116	192848	4	4	4	1	0	570	1	4	0	32	116	0	0	100
random	1	1	117	193965	6	1	1	1	0	939	1	4	0	8	117	0	0	100
random	1	1	118	195437	5	3	3	1	0	741	1	4	0	24	118	0	0	100
random	1	1	119	197214	1	4	4	1	0	602	1	4	0	32	119	0	0	100
random	1	1	120	198148	4	2	2	1	0	610	1	4	0	16	120	0	0	100
fixed	2	1	1	200311	4	1	1	1	0	830	1	4	0	40	1	0	0	100
fixed	2	1	2	201776	1	2	2	1	0	736	1	4	0	48	2	0	0	100
fixed	2	1	3	202864	6	4	4	1	0	626	1	4	0	64	3	0	0	100
fixed	2	1	4	204267	2	1	1	1	0	799	1	4	0	40	4	0	0	100
fixed	2	1	5	205564	5	3	3	1	0	736	1	4	0	56	5	0	0	100
fixed	2	1	6	207189	6	4	4	1	0	619	1	4	0	64	6	0	0	100
fixed	2	1	7	208552	3	1	1	1	0	681	1	4	0	40	7	0	0	100
fixed	2	1	8	210246	2	3	3	1	0	866	1	4	0	56	8	0	0	100
fixed	2	1	9	211753	3	2	2	1	0	706	1	4	0	48	9	0	0	100
fixed	2	1	10	213194	1	4	4	1	0	604	1	4	0	64	10	0	0	100
fixed	2	1	11	214467	5	2	2	1	0	759	1	4	0	48	11	0	0	100
fixed	2	1	12	216082	4	3	3	1	0	786	1	4	0	56	12	0	0	100
fixed	2	2	1	217472	4	1	1	1	0	631	1	4	0	40	13	0	0	100
fixed	2	2	2	218647	1	2	2	1	0	870	1	4	0	48	14	0	0	100
fixed	2	2	3	220098	6	4	4	1	0	560	1	4	0	64	15	0	0	100
fixed	2	2	4	221422	2	1	1	1	0	752	1	4	0	40	16	0	0	100
fixed	2	2	5	222524	5	3	3	1	0	674	1	4	0	56	17	0	0	100
fixed	2	2	6	224031	6	4	4	1	0	602	1	4	0	64	18	0	0	100
fixed	2	2	7	225444	3	1	1	1	0	766	1	4	0	40	19	0	0	100
fixed	2	2	8	226894	2	3	3	1	0	680	1	4	0	56	20	0	0	100
fixed	2	2	9	228403	3	2	2	1	0	608	1	4	0	48	21	0	0	100
fixed	2	2	10	229343	1	4	4	1	0	577	1	4	0	64	22	0	0	100
fixed	2	2	11	230554	5	2	2	1	0	749	1	4	0	48	23	0	0	100
fixed	2	2	12	231850	4	3	3	1	0	719	1	4	0	56	24	0	0	100
fixed	2	3	1	233311	4	1	1	1	0	688	1	4	0	40	25	0	0	100
fixed	2	3	2	235039	1	2	2	1	0	1088	1	4	0	48	26	0	0	100
fixed	2	3	3	236789	6	4	4	1	0	557	1	4	0	64	27	0	0	100
fixed	2	3	4	238171	2	1	1	1	0	730	1	4	0	40	28	0	0	100
fixed	2	3	5	239688	5	3	3	1	0	747	1	4	0	56	29	0	0	100
fixed	2	3	6	240891	6	4	4	1	0	584	1	4	0	64	30	0	0	100
fixed	2	3	7	242084	3	1	1	1	0	749	1	4	0	40	31	0	0	100
fixed	2	3	8	243799	2	3	3	1	0	845	1	4	0	56	32	0	0	100
fixed	2	3	9	245297	3	2	2	1	0	885	1	4	0	48	33	0	0	100
fixed	2	3	10	246764	1	4	4	1	0	735	1	4	0	64	34	0	0	100
fixed	2	3	11	248297	5	2	2	1	0	694	1	4	0	48	35	0	0	100
fixed	2	3	12	249451	4	3	3	1	0	757	1	4	0	56	36	0	0	100
fixed	2	4	1	251004	4	1	1	1	0	739	1	4	0	40	37	0	0	100
fixed	2	4	2	252178	1	2	2	1	0	913	1	4	0	48	38	0	0	100
fixed	2	4	3	253698	6	4	4	1	0	681	1	4	0	64	39	0	0	100
fixed	2	4	4	255335	2	1	1	1	0	708	1	4	0	40	40	0	0	100
fixed	2	4	5	256748	5	3	3	1	0	688	1	4	0	56	41	0	0	100
fixed	2	4	6	258353	6	4	4	1	0	620	1	4	0	64	42	0	0	100
fixed	2	4	7	259587	3	1	1	1	0	736	1	4	0	40	43	0	0	100
fixed	2	4	8	261326	2	3	3	1	0	767	1	4	0	56	44	0	0	100
fixed	2	4	9	262467	3	2	2	1	0	558	1	4	0	48	45	0	0	100
fixed	2	4	10	263681	1	4	4	1	0	683	1	4	0	64	46	0	0	100
fixed	2	4	11	265219	5	2	2	1	0	794	1	4	0	48	47	0	0	100
fixed	2	4	12	266818	4	3	3	1	0	646	1	4	0	56	48	0	0	100
fixed	2	5	1	268079	4	1	1	1	0	640	1	4	0	40	49	0	0	100
fixed	2	5	2	269096	1	2	2	1	0	749	1	4	0	48	50	0	0	100
fixed	2	5	3	270361	6	4	4	1	0	688	1	4	0	64	51	0	0	100
fixed	2	5	4	271663	2	1	1	1	0	656	1	4	0	40	52	0	0	100
fixed	2	5	5	272890	5	3	3	1	0	812	1	4	0	56	53	0	0	100
fixed	2	5	6	274167	6	4	4	1	0	598	1	4	0	64	54	0	0	100
fixed	2	5	7	275590	3	1	1	1	0	802	1	4	0	40	55	0	0	100
fixed	2	5	8	276771	2	3	3	1	0	768	1	4	0	56	56	0	0	100
fixed	2	5	9	278009	3	2	2	1	0	547	1	4	0	48	57	0	0	100
fixed	2	5	10	278906	1	4	4	1	0	621	1	4	0	64	58	0	0	100
fixed	2	5	11	280386	5	2	2	1	0	711	1	4	0	48	59	0	0	100
fixed	2	5	12	281410	4	3	3	1	0	547	1	4	0	56	60	0	0	100
fixed	2	6	1	282899	4	1	1	1	0	644	1	4	0	40	61	0	0	100
fixed	2	6	2	284547	1	2	2	1	0	855	1	4	0	48	62	0	0	100
fixed	2	6	3	286110	6	4	4	1	0	580	1	4	0	64	63	0	0	100
fixed	2	6	4	287223	2	1	1	1	0	718	1	4	0	40	64	0	0	100
fixed	2	6	5	288323	5	3	3	1	0	687	1	4	0	56	65	0	0	100
fixed	2	6	6	289466	6	4	4	1	0	590	1	4	0	64	66	0	0	100
fixed	2	6	7	291024	3	1	1	1	0	556	1	4	0	40	67	0	0	100
fixed	2	6	8	292039	2	3	3	1	0	809	1	4	0	56	68	0	0	100
fixed	2	6	9	293174	3	2	2	1	0	681	1	4	0	48	69	0	0	100
fixed	2	6	10	294205	1	4	4	1	0	558	1	4	0	64	70	0	0	100
fixed	2	6	11	295778	5	2	2	1	0	755	1	4	0	48	71	0	0	100
fixed	2	6	12	296981	4	3	3	1	0	504	1	4	0	56	72	0	0	100
fixed	2	7	1	298738	4	1	1	1	0	781	1	4	0	40	73	0	0	100
fixed	2	7	2	300028	1	2	2	1	0	831	1	4	0	48	74	0	0	100
fixed	2	7	3	301804	6	4	4	1	0	612	1	4	0	64	75	0	0	100
fixed	2	7	4	303435	2	1	1	1	0	654	1	4	0	40	76	0	0	100
fixed	2	7	5	304595	5	3	3	1	0	750	1	4	0	56	77	0	0	100
fixed	2	7	6	305940	6	4	4	1	0	636	1	4	0	64	78	0	0	100
fixed	2	7	7	306888	3	1	1	1	0	773	1	4	0	40	79	0	0	100
fixed	2	7	8	308526	2	3	3	1	0	727	1	4	0	56	80	0	0	100
fixed	2	7	9	309615	3	2	2	1	0	609	1	4	0	48	81	0	0	100
fixed	2	7	10	310784	1	4	4	1	0	519	1	4	0	64	82	0	0	100
fixed	2	7	11	311746	5	2	2	1	0	679	1	4	0	48	83	0	0	100
fixed	2	7	12	313176	4	3	3	1	0	706	1	4	0	56	84	0	0	100
fixed	2	8	1	314811	4	1	1	1	0	853	1	4	0	40	85	0	0	100
fixed	2	8	2	316466	1	2	2	1	0	1110	1	4	0	48	86	0	0	100
fixed	2	8	3	317887	6	4	4	1	0	730	1	4	0	64	87	0	0	100
fixed	2	8	4	319088	2	1	1	1	0	639	1	4	0	40	88	0	0	100
fixed	2	8	5	320658	5	3	3	1	0	933	1	4	0	56	89	0	0	100
fixed	2	8	6	321983	6	4	4	1	0	645	1	4	0	64	90	0	0	100
fixed	2	8	7	323316	3	1	1	1	0	628	1	4	0	40	91	0	0	100
fixed	2	8	8	324756	2	3	3	1	0	799	1	4	0	56	92	0	0	100
fixed	2	8	9	326574	3	2	2	1	0	786	1	4	0	48	93	0	0	100
fixed	2	8	10	327915	1	4	4	1	0	610	1	4	0	64	94	0	0	100
fixed	2	8	11	329129	5	2	2	1	0	806	1	4	0	48	95	0	0	100
fixed	2	8	12	330324	4	3	3	1	0	812	1	4	0	56	96	0	0	100
fixed	2	9	1	332320	4	1	1	1	0	759	1	4	0	40	97	0	0	100
fixed	2	9	2	333744	1	2	2	1	0	883	1	4	0	48	98	0	0	100
fixed	2	9	3	335175	6	4	4	1	0	646	1	4	0	64	99	0	0	100
fixed	2	9	4	336524	2	1	1	1	0	717	1	4	0	40	100	0	0	100
fixed	2	9	5	337953	5	3	3	1	0	672	1	4	0	56	101	0	0	100
fixed	2	9	6	339355	6	4	4	1	0	605	1	4	0	64	102	0	0	100
fixed	2	9	7	340283	3	1	1	1	0	750	1	4	0	40	103	0	0	100
fixed	2	9	8	341835	2	3	3	1	0	852	1	4	0	56	104	0	0	100
fixed	2	9	9	343168	3	2	2	1	0	468	1	4	0	48	105	0	0	100
fixed	2	9	10	344511	1	4	4	1	0	387	1	4	0	64	106	0	0	100
fixed	2	9	11	345298	5	2	2	1	0	874	1	4	0	48	107	0	0	100
fixed	2	9	12	347066	4	3	3	1	0	655	1	4	0	56	108	0	0	100
fixed	2	10	1	348644	4	1	1	1	0	564	1	4	0	40	109	0	0	100
fixed	2	10	2	349726	1	2	2	1	0	734	1	4	0	48	110	0	0	100
fixed	2	10	3	351190	6	4	4	1	0	688	1	4	0	64	111	0	0	100
fixed	2	10	4	352290	2	1	1	1	0	697	1	4	0	40	112	0	0	100
fixed	2	10	5	353460	5	3	3	1	0	576	1	4	0	56	113	0	0	100
fixed	2	10	6	354423	6	4	4	1	0	583	1	4	0	64	114	0	0	100
fixed	2	10	7	355502	3	1	1	1	0	985	1	4	0	40	115	0	0	100
fixed	2	10	8	357120	2	3	3	1	0	701	1	4	0	56	116	0	0	100
fixed	2	10	9	358620	3	2	2	1	0	725	1	4	0	48	117	0	0	100
fixed	2	10	10	359669	1	4	4	1	0	592	1	4	0	64	118	0	0	100
fixed	2	10	11	361177	5	2	2	1	0	673	1	4	0	48	119	0	0	100
fixed	2	10	12	362612	4	3	3	1	0	596	1	4	0	56	120	0	0	100
fixed	3	1	1	364346	4	1	1	1	0	442	1	4	0	72	1	0	0	100
fixed	3	1	2	365249	1	2	2	2	0	1132	2	4	0	80	2	0	0	100
fixed	3	1	3	367003	6	4	4	1	0	570	1	4	0	96	3	0	0	100
fixed	3	1	4	368132	2	1	1	1	0	706	1	4	0	72	4	0	0	100
fixed	3	1	5	369258	5	3	3	1	0	754	1	4	0	88	5	0	0	100
fixed	3	1	6	370613	6	4	4	1	0	625	1	4	0	96	6	0	0	100
fixed	3	1	7	372053	3	1	1	1	0	644	1	4	0	72	7	0	0	100
fixed	3	1	8	373031	2	3	3	1	0	667	1	4	0	88	8	0	0	100
fixed	3	1	9	373997	3	2	2	1	0	538	1	4	0	80	9	0	0	100
fixed	3	1	10	374994	1	4	4	1	0	448	1	4	0	96	10	0	0	100
fixed	3	1	11	375809	5	2	2	1	0	717	1	4	0	80	11	0	0	100
fixed	3	1	12	376902	4	3	3	1	0	655	1	4	0	88	12	0	0	100
fixed	3	2	1	378350	4	1	1	1	0	721	1	4	0	72	13	0	0	100
fixed	3	2	2	379971	1	2	2	1	0	645	1	4	0	80	14	0	0	100
fixed	3	2	3	381026	6	4	4	1	0	656	1	4	0	96	15	0	0	100
fixed	3	2	4	382068	2	1	1	1	0	668	1	4	0	72	16	0	0	100
fixed	3	2	5	383416	5	3	3	1	0	643	1	4	0	88	17	0	0	100
fixed	3	2	6	384790	6	4	4	1	0	617	1	4	0	96	18	0	0	100
fixed	3	2	7	386159	3	1	1	1	0	735	1	4	0	72	19	0	0	100
fixed	3	2	8	387633	2	3	3	1	0	857	1	4	0	88	20	0	0	100
fixed	3	2	9	389396	3	2	2	1	0	574	1	4	0	80	21	0	0	100
fixed	3	2	10	390498	1	4	4	1	0	879	1	4	0	96	22	0	0	100
fixed	3	2	11	391754	5	2	2	1	0	1010	1	4	0	80	23	0	0	100
fixed	3	2	12	393332	4	3	3	1	0	615	1	4	0	88	24	0	0	100
fixed	3	3	1	395041	4	1	1	1	0	486	1	4	0	72	25	0	0	100
fixed	3	3	2	396217	1	2	2	1	0	869	1	4	0	80	26	0	0	100
fixed	3	3	3	397788	6	4	4	1	0	594	1	4	0	96	27	0	0	100
fixed	3	3	4	398919	2	1	1	1	0	730	1	4	0	72	28	0	0	100
fixed	3	3	5	400571	5	3	3	1	0	788	1	4	0	88	29	0	0	100
fixed	3	3	6	401719	6	4	4	1	0	596	1	4	0	96	30	0	0	100
fixed	3	3	7	403305	3	1	1	1	0	657	1	4	0	72	31	0	0	100
fixed	3	3	8	404319	2	3	3	1	0	726	1	4	0	88	32	0	0	100
fixed	3	3	9	405907	3	2	2	1	0	682	1	4	0	80	33	0	0	100
fixed	3	3	10	407156	1	4	4	1	0	565	1	4	0	96	34	0	0	100
fixed	3	3	11	408647	5	2	2	1	0	902	1	4	0	80	35	0	0	100
fixed	3	3	12	410201	4	3	3	1	0	677	1	4	0	88	36	0	0	100
fixed	3	4	1	412016	4	1	1	1	0	623	1	4	0	72	37	0	0	100
fixed	3	4	2	413100	1	2	2	1	0	737	1	4	0	80	38	0	0	100
fixed	3	4	3	414745	6	4	4	1	0	604	1	4	0	96	39	0	0	100
fixed	3	4	4	416234	2	1	1	1	0	701	1	4	0	72	40	0	0	100
fixed	3	4	5	417303	5	3	3	1	0	616	1	4	0	88	41	0	0	100
fixed	3	4	6	418703	6	4	4	1	0	628	1	4	0	96	42	0	0	100
fixed	3	4	7	419730	3	1	1	1	0	753	1	4	0	72	43	0	0	100
fixed	3	4	8	421415	2	3	3	1	0	842	1	4	0	88	44	0	0	100
fixed	3	4	9	422835	3	2	2	1	0	454	1	4	0	80	45	0	0	100
fixed	3	4	10	423826	1	4	4	1	0	667	1	4	0	96	46	0	0	100
fixed	3	4	11	425357	5	2	2	1	0	747	1	4	0	80	47	0	0	100
fixed	3	4	12	426653	4	3	3	1	0	612	1	4	0	88	48	0	0	100
fixed	3	5	1	427871	4	1	1	1	0	528	1	4	0	72	49	0	0	100
fixed	3	5	2	428710	1	2	2	1	0	980	1	4	0	80	50	0	0	100
fixed	3	5	3	430669	6	4	4	1	0	610	1	4	0	96	51	0	0	100
fixed	3	5	4	431613	2	1	1	1	0	625	1	4	0	72	52	0	0	100
fixed	3	5	5	432747	5	3	3	1	0	658	1	4	0	88	53	0	0	100
fixed	3	5	6	433825	6	4	4	1	0	548	1	4	0	96	54	0	0	100
fixed	3	5	7	434796	3	1	1	1	0	763	1	4	0	72	55	0	0	100
fixed	3	5	8	436208	2	3	3	1	0	727	1	4	0	88	56	0	0	100
fixed	3	5	9	437418	3	2	2	1	0	612	1	4	0	80	57	0	0	100
fixed	3	5	10	438551	1	4	4	1	0	556	1	4	0	96	58	0	0	100
fixed	3	5	11	439796	5	2	2	1	0	735	1	4	0	80	59	0	0	100
fixed	3	5	12	440825	4	3	3	1	0	691	1	4	0	88	60	0	0	100
fixed	3	6	1	442490	4	1	1	1	0	629	1	4	0	72	61	0	0	100
fixed	3	6	2	443927	1	2	2	1	0	728	1	4	0	80	62	0	0	100
fixed	3	6	3	445330	6	4	4	1	0	716	1	4	0	96	63	0	0	100
fixed	3	6	4	446761	2	1	1	1	0	648	1	4	0	72	64	0	0	100
fixed	3	6	5	448201	5	3	3	1	0	843	1	4	0	88	65	0	0	100
fixed	3	6	6	449562	6	4	4	1	0	601	1	4	0	96	66	0	0	100
fixed	3	6	7	450877	3	1	1	1	0	641	1	4	0	72	67	0	0	100
fixed	3	6	8	452018	2	3	3	1	0	1009	1	4	0	88	68	0	0	100
fixed	3	6	9	454009	3	2	2	1	0	749	1	4	0	80	69	0	0	100
fixed	3	6	10	455443	1	4	4	1	0	632	1	4	0	96	70	0	0	100
fixed	3	6	11	456683	5	2	2	1	0	844	1	4	0	80	71	0	0	100
fixed	3	6	12	458161	4	3	3	1	0	621	1	4	0	88	72	0	0	100
fixed	3	7	1	459716	4	1	1	1	0	691	1	4	0	72	73	0	0	100
fixed	3	7	2	461347	1	2	2	1	0	726	1	4	0	80	74	0	0	100
fixed	3	7	3	463016	6	4	4	1	0	608	1	4	0	96	75	0	0	100
fixed	3	7	4	464544	2	1	1	1	0	639	1	4	0	72	76	0	0	100
fixed	3	7	5	465545	5	3	3	1	0	724	1	4	0	88	77	0	0	100
fixed	3	7	6	467126	6	4	4	1	0	610	1	4	0	96	78	0	0	100
fixed	3	7	7	468401	3	1	1	1	0	779	1	4	0	72	79	0	0	100
fixed	3	7	8	469957	2	3	3	1	0	929	1	4	0	88	80	0	0	100
fixed	3	7	9	471409	3	2	2	1	0	860	1	4	0	80	81	0	0	100
fixed	3	7	10	473103	1	4	4	1	0	516	1	4	0	96	82	0	0	100
fixed	3	7	11	474146	5	2	2	1	0	752	1	4	0	80	83	0	0	100
fixed	3	7	12	475857	4	3	3	1	0	760	1	4	0	88	84	0	0	100
fixed	3	8	1	477526	4	1	1	1	0	713	1	4	0	72	85	0	0	100
fixed	3	8	2	478828	1	2	2	1	0	882	1	4	0	80	86	0	0	100
fixed	3	8	3	480523	6	4	4	1	0	642	1	4	0	96	87	0	0	100
fixed	3	8	4	481836	2	1	1	1	0	658	1	4	0	72	88	0	0	100
fixed	3	8	5	482840	5	3	3	1	0	624	1	4	0	88	89	0	0	100
fixed	3	8	6	483834	6	4	4	1	0	614	1	4	0	96	90	0	0	100
fixed	3	8	7	485074	3	1	1	1	0	610	1	4	0	72	91	0	0	100
fixed	3	8	8	486169	2	3	3	1	0	747	1	4	0	88	92	0	0	100
fixed	3	8	9	487720	3	2	2	1	0	497	1	4	0	80	93	0	0	100
fixed	3	8	10	488526	1	4	4	1	0	567	1	4	0	96	94	0	0	100
fixed	3	8	11	489575	5	2	2	1	0	739	1	4	0	80	95	0	0	100
fixed	3	8	12	491006	4	3	3	1	0	670	1	4	0	88	96	0	0	100
fixed	3	9	1	492530	4	1	1	1	0	565	1	4	0	72	97	0	0	100
fixed	3	9	2	493516	1	2	2	1	0	796	1	4	0	80	98	0	0	100
fixed	3	9	3	495107	6	4	4	1	0	592	1	4	0	96	99	0	0	100
fixed	3	9	4	496101	2	1	1	1	0	727	1	4	0	72	100	0	0	100
fixed	3	9	5	497240	5	3	3	1	0	566	1	4	0	88	101	0	0	100
fixed	3	9	6	498540	6	4	4	1	0	663	1	4	0	96	102	0	0	100
fixed	3	9	7	499986	3	1	1	1	0	666	1	4	0	72	103	0	0	100
fixed	3	9	8	501640	2	3	3	1	0	660	1	4	0	88	104	0	0	100
fixed	3	9	9	502880	3	2	2	1	0	471	1	4	0	80	105	0	0	100
fixed	3	9	10	504127	1	4	4	1	0	666	1	4	0	96	106	0	0	100
fixed	3	9	11	505636	5	2	2	1	0	683	1	4	0	80	107	0	0	100
fixed	3	9	12	506894	4	3	3	1	0	814	1	4	0	88	108	0	0	100
fixed	3	10	1	508419	4	1	1	1	0	644	1	4	0	72	109	0	0	100
fixed	3	10	2	509871	1	2	2	1	0	895	1	4	0	80	110	0	0	100
fixed	3	10	3	511777	6	4	4	1	0	590	1	4	0	96	111	0	0	100
fixed	3	10	4	513227	2	1	1	1	0	889	1	4	0	72	112	0	0	100
fixed	3	10	5	514534	5	3	3	1	0	617	1	4	0	88	113	0	0	100
fixed	3	10	6	515940	6	4	4	1	0	606	1	4	0	96	114	0	0	100
fixed	3	10	7	517223	3	1	1	1	0	615	1	4	0	72	115	0	0	100
fixed	3	10	8	518823	2	3	3	1	0	732	1	4	0	88	116	0	0	100
fixed	3	10	9	520549	3	2	2	1	0	651	1	4	0	80	117	0	0	100
fixed	3	10	10	522138	1	4	4	1	0	663	1	4	0	96	118	0	0	100
fixed	3	10	11	523090	5	2	2	1	0	767	1	4	0	80	119	0	0	100
fixed	3	10	12	524601	4	3	3	1	0	679	1	4	0	88	120	0	0	100
fixed	4	1	1	644216	4	1	1	1	0	781	1	4	0	104	1	0	0	100
fixed	4	1	2	645630	1	2	2	1	0	1153	1	4	0	112	2	0	0	100
fixed	4	1	3	647657	6	4	4	1	0	547	1	4	0	128	3	0	0	100
fixed	4	1	4	649133	2	1	1	1	0	517	1	4	0	104	4	0	0	100
fixed	4	1	5	650274	5	3	3	1	0	668	1	4	0	120	5	0	0	100
fixed	4	1	6	651450	6	4	4	1	0	611	1	4	0	128	6	0	0	100
fixed	4	1	7	652467	3	1	1	1	0	1008	1	4	0	104	7	0	0	100
fixed	4	1	8	654373	2	3	3	1	0	751	1	4	0	120	8	0	0	100
fixed	4	1	9	656108	3	2	2	1	0	461	1	4	0	112	9	0	0	100
fixed	4	1	10	657344	1	4	4	1	0	353	1	4	0	128	10	0	0	100
fixed	4	1	11	658600	5	2	2	1	0	836	1	4	0	112	11	0	0	100
fixed	4	1	12	660433	4	3	3	1	0	614	1	4	0	120	12	0	0	100
fixed	4	2	1	662313	4	1	1	1	0	646	1	4	0	104	13	0	0	100
fixed	4	2	2	663474	1	2	2	1	0	861	1	4	0	112	14	0	0	100
fixed	4	2	3	664848	6	4	4	1	0	603	1	4	0	128	15	0	0	100
fixed	4	2	4	666073	2	1	1	1	0	639	1	4	0	104	16	0	0	100
fixed	4	2	5	667380	5	3	3	1	0	696	1	4	0	120	17	0	0	100
fixed	4	2	6	668904	6	4	4	1	0	679	1	4	0	128	18	0	0	100
fixed	4	2	7	670547	3	1	1	1	0	737	1	4	0	104	19	0	0	100
fixed	4	2	8	671986	2	3	3	1	0	1013	1	4	0	120	20	0	0	100
fixed	4	2	9	673296	3	2	2	1	0	645	1	4	0	112	21	0	0	100
fixed	4	2	10	674527	1	4	4	1	0	601	1	4	0	128	22	0	0	100
fixed	4	2	11	675993	5	2	2	1	0	859	1	4	0	112	23	0	0	100
fixed	4	2	12	677469	4	3	3	1	0	556	1	4	0	120	24	0	0	100
fixed	4	3	1	678904	4	1	1	1	0	783	1	4	0	104	25	0	0	100
fixed	4	3	2	680106	1	2	2	1	0	893	1	4	0	112	26	0	0	100
fixed	4	3	3	681465	6	4	4	1	0	643	1	4	0	128	27	0	0	100
fixed	4	3	4	682515	2	1	1	1	0	727	1	4	0	104	28	0	0	100
fixed	4	3	5	683563	5	3	3	1	0	722	1	4	0	120	29	0	0	100
fixed	4	3	6	684923	6	4	4	1	0	689	1	4	0	128	30	0	0	100
fixed	4	3	7	686133	3	1	1	1	0	710	1	4	0	104	31	0	0	100
fixed	4	3	8	687266	2	3	3	1	0	966	1	4	0	120	32	0	0	100
fixed	4	3	9	688922	3	2	2	1	0	464	1	4	0	112	33	0	0	100
fixed	4	3	10	690018	1	4	4	1	0	641	1	4	0	128	34	0	0	100
fixed	4	3	11	691235	5	2	2	1	0	661	1	4	0	112	35	0	0	100
fixed	4	3	12	692639	4	3	3	1	0	642	1	4	0	120	36	0	0	100
fixed	4	4	1	694158	4	1	1	1	0	785	1	4	0	104	37	0	0	100
fixed	4	4	2	695630	1	2	2	1	0	795	1	4	0	112	38	0	0	100
fixed	4	4	3	697100	6	4	4	1	0	565	1	4	0	128	39	0	0	100
fixed	4	4	4	698492	2	1	1	1	0	682	1	4	0	104	40	0	0	100
fixed	4	4	5	699968	5	3	3	1	0	724	1	4	0	120	41	0	0	100
fixed	4	4	6	701319	6	4	4	1	0	699	1	4	0	128	42	0	0	100
fixed	4	4	7	702917	3	1	1	1	0	871	1	4	0	104	43	0	0	100
fixed	4	4	8	704808	2	3	3	1	0	935	1	4	0	120	44	0	0	100
fixed	4	4	9	706120	3	2	2	1	0	511	1	4	0	112	45	0	0	100
fixed	4	4	10	707603	1	4	4	1	0	689	1	4	0	128	46	0	0	100
fixed	4	4	11	708736	5	2	2	1	0	816	1	4	0	112	47	0	0	100
fixed	4	4	12	710529	4	3	3	1	0	636	1	4	0	120	48	0	0	100
fixed	4	5	1	712052	4	1	1	1	0	764	1	4	0	104	49	0	0	100
fixed	4	5	2	713303	1	2	2	1	0	759	1	4	0	112	50	0	0	100
fixed	4	5	3	714771	6	4	4	1	0	545	1	4	0	128	51	0	0	100
fixed	4	5	4	716257	2	1	1	1	0	826	1	4	0	104	52	0	0	100
fixed	4	5	5	717728	5	3	3	1	0	660	1	4	0	120	53	0	0	100
fixed	4	5	6	718850	6	4	4	1	0	595	1	4	0	128	54	0	0	100
fixed	4	5	7	720111	3	1	1	1	0	886	1	4	0	104	55	0	0	100
fixed	4	5	8	721513	2	3	3	1	0	835	1	4	0	120	56	0	0	100
fixed	4	5	9	723296	3	2	2	1	0	463	1	4	0	112	57	0	0	100
fixed	4	5	10	724747	1	4	4	1	0	474	1	4	0	128	58	0	0	100
fixed	4	5	11	725947	5	2	2	1	0	879	1	4	0	112	59	0	0	100
fixed	4	5	12	727549	4	3	3	1	0	564	1	4	0	120	60	0	0	100
fixed	4	6	1	728742	4	1	1	1	0	481	1	4	0	104	61	0	0	100
fixed	4	6	2	729665	1	2	2	1	0	890	1	4	0	112	62	0	0	100
fixed	4	6	3	730902	6	4	4	1	0	621	1	4	0	128	63	0	0	100
fixed	4	6	4	732527	2	1	1	1	0	745	1	4	0	104	64	0	0	100
fixed	4	6	5	734086	5	3	3	1	0	702	1	4	0	120	65	0	0	100
fixed	4	6	6	735387	6	4	4	1	0	568	1	4	0	128	66	0	0	100
fixed	4	6	7	736969	3	1	1	1	0	637	1	4	0	104	67	0	0	100
fixed	4	6	8	738128	2	3	3	1	0	708	1	4	0	120	68	0	0	100
fixed	4	6	9	739767	3	2	2	1	0	614	1	4	0	112	69	0	0	100
fixed	4	6	10	740767	1	4	4	1	0	620	1	4	0	128	70	0	0	100
fixed	4	6	11	741701	5	2	2	1	0	652	1	4	0	112	71	0	0	100
fixed	4	6	12	742716	4	3	3	1	0	601	1	4	0	120	72	0	0	100
fixed	4	7	1	744164	4	1	1	1	0	596	1	4	0	104	73	0	0	100
fixed	4	7	2	745288	1	2	2	1	0	780	1	4	0	112	74	0	0	100
fixed	4	7	3	746370	6	4	4	2	0	918	2	4	0	128	75	0	0	100
fixed	4	7	4	748228	2	1	1	1	0	775	1	4	0	104	76	0	0	100
fixed	4	7	5	749763	5	3	3	1	0	734	1	4	0	120	77	0	0	100
fixed	4	7	6	750876	6	4	4	1	0	600	1	4	0	128	78	0	0	100
fixed	4	7	7	751788	3	1	1	1	0	761	1	4	0	104	79	0	0	100
fixed	4	7	8	753023	2	3	3	1	0	668	1	4	0	120	80	0	0	100
fixed	4	7	9	754579	3	2	2	1	0	779	1	4	0	112	81	0	0	100
fixed	4	7	10	756148	1	4	4	1	0	488	1	4	0	128	82	0	0	100
fixed	4	7	11	757539	5	2	2	1	0	805	1	4	0	112	83	0	0	100
fixed	4	7	12	759027	4	3	3	1	0	750	1	4	0	120	84	0	0	100
fixed	4	8	1	760805	4	1	1	1	0	707	1	4	0	104	85	0	0	100
fixed	4	8	2	762530	1	2	2	1	0	906	1	4	0	112	86	0	0	100
fixed	4	8	3	763813	6	4	4	1	0	683	1	4	0	128	87	0	0	100
fixed	4	8	4	765146	2	1	1	1	0	691	1	4	0	104	88	0	0	100
fixed	4	8	5	766805	5	3	3	1	0	701	1	4	0	120	89	0	0	100
fixed	4	8	6	768236	6	4	4	1	0	680	1	4	0	128	90	0	0	100
fixed	4	8	7	769432	3	1	1	1	0	757	1	4	0	104	91	0	0	100
fixed	4	8	8	770804	2	3	3	1	0	667	1	4	0	120	92	0	0	100
fixed	4	8	9	771813	3	2	2	1	0	512	1	4	0	112	93	0	0	100
fixed	4	8	10	773103	1	4	4	1	0	538	1	4	0	128	94	0	0	100
fixed	4	8	11	773937	5	2	2	1	0	750	1	4	0	112	95	0	0	100
fixed	4	8	12	775233	4	3	3	1	0	560	1	4	0	120	96	0	0	100
fixed	4	9	1	776643	4	1	1	1	0	572	1	4	0	104	97	0	0	100
fixed	4	9	2	778037	1	2	2	1	0	761	1	4	0	112	98	0	0	100
fixed	4	9	3	779670	6	4	4	1	0	580	1	4	0	128	99	0	0	100
fixed	4	9	4	780718	2	1	1	1	0	727	1	4	0	104	100	0	0	100
fixed	4	9	5	782434	5	3	3	1	0	743	1	4	0	120	101	0	0	100
fixed	4	9	6	784114	6	4	4	1	0	616	1	4	0	128	102	0	0	100
fixed	4	9	7	785556	3	1	1	1	0	771	1	4	0	104	103	0	0	100
fixed	4	9	8	786733	2	3	3	1	0	944	1	4	0	120	104	0	0	100
fixed	4	9	9	788178	3	2	2	1	0	500	1	4	0	112	105	0	0	100
fixed	4	9	10	789471	1	4	4	1	0	557	1	4	0	128	106	0	0	100
fixed	4	9	11	790361	5	2	2	1	0	735	1	4	0	112	107	0	0	100
fixed	4	9	12	791644	4	3	3	1	0	432	1	4	0	120	108	0	0	100
fixed	4	10	1	792933	4	1	1	1	0	730	1	4	0	104	109	0	0	100
fixed	4	10	2	794327	1	2	2	1	0	887	1	4	0	112	110	0	0	100
fixed	4	10	3	796158	6	4	4	1	0	633	1	4	0	128	111	0	0	100
fixed	4	10	4	797117	2	1	1	1	0	777	1	4	0	104	112	0	0	100
fixed	4	10	5	798697	5	3	3	1	0	766	1	4	0	120	113	0	0	100
fixed	4	10	6	799987	6	4	4	1	0	615	1	4	0	128	114	0	0	100
fixed	4	10	7	801397	3	1	1	1	0	636	1	4	0	104	115	0	0	100
fixed	4	10	8	802401	2	3	3	1	0	641	1	4	0	120	116	0	0	100
fixed	4	10	9	803477	3	2	2	1	0	459	1	4	0	112	117	0	0	100
fixed	4	10	10	804688	1	4	4	1	0	472	1	4	0	128	118	0	0	100
fixed	4	10	11	805755	5	2	2	1	0	715	1	4	0	112	119	0	0	100
fixed	4	10	12	806977	4	3	3	2	0	799	2	4	0	120	120	0	0	100
fixed	5	1	1	809104	4	1	1	1	0	861	1	4	0	136	1	0	0	100
fixed	5	1	2	810778	1	2	2	1	0	686	1	4	0	144	2	0	0	100
fixed	5	1	3	812484	6	4	4	1	0	622	1	4	0	160	3	0	0	100
fixed	5	1	4	813473	2	1	1	1	0	716	1	4	0	136	4	0	0	100
fixed	5	1	5	814793	5	3	3	1	0	668	1	4	0	152	5	0	0	100
fixed	5	1	6	816462	6	4	4	1	0	678	1	4	0	160	6	0	0	100
fixed	5	1	7	817505	3	1	1	1	0	706	1	4	0	136	7	0	0	100
fixed	5	1	8	818644	2	3	3	1	0	769	1	4	0	152	8	0	0	100
fixed	5	1	9	820090	3	2	2	1	0	652	1	4	0	144	9	0	0	100
fixed	5	1	10	821139	1	4	4	1	0	527	1	4	0	160	10	0	0	100
fixed	5	1	11	822601	5	2	2	1	0	754	1	4	0	144	11	0	0	100
fixed	5	1	12	824037	4	3	3	1	0	597	1	4	0	152	12	0	0	100
fixed	5	2	1	825797	4	1	1	1	0	658	1	4	0	136	13	0	0	100
fixed	5	2	2	827037	1	2	2	1	0	1238	1	4	0	144	14	0	0	100
fixed	5	2	3	829187	6	4	4	1	0	594	1	4	0	160	15	0	0	100
fixed	5	2	4	830564	2	1	1	1	0	712	1	4	0	136	16	0	0	100
fixed	5	2	5	831897	5	3	3	1	0	856	1	4	0	152	17	0	0	100
fixed	5	2	6	833054	6	4	4	1	0	583	1	4	0	160	18	0	0	100
fixed	5	2	7	834646	3	1	1	1	0	676	1	4	0	136	19	0	0	100
fixed	5	2	8	836131	2	3	3	1	0	885	1	4	0	152	20	0	0	100
fixed	5	2	9	837776	3	2	2	1	0	510	1	4	0	144	21	0	0	100
fixed	5	2	10	838861	1	4	4	1	0	441	1	4	0	160	22	0	0	100
fixed	5	2	11	840087	5	2	2	1	0	821	1	4	0	144	23	0	0	100
fixed	5	2	12	841802	4	3	3	1	0	636	1	4	0	152	24	0	0	100
fixed	5	3	1	843675	4	1	1	1	0	653	1	4	0	136	25	0	0	100
fixed	5	3	2	845171	1	2	2	1	0	870	1	4	0	144	26	0	0	100
fixed	5	3	3	846990	6	4	4	1	0	577	1	4	0	160	27	0	0	100
fixed	5	3	4	848568	2	1	1	1	0	765	1	4	0	136	28	0	0	100
fixed	5	3	5	849852	5	3	3	1	0	656	1	4	0	152	29	0	0	100
fixed	5	3	6	850963	6	4	4	1	0	656	1	4	0	160	30	0	0	100
fixed	5	3	7	852355	3	1	1	1	0	806	1	4	0	136	31	0	0	100
fixed	5	3	8	853955	2	3	3	1	0	754	1	4	0	152	32	0	0	100
fixed	5	3	9	855636	3	2	2	1	0	882	1	4	0	144	33	0	0	100
fixed	5	3	10	857150	1	4	4	1	0	658	1	4	0	160	34	0	0	100
fixed	5	3	11	858539	5	2	2	1	0	784	1	4	0	144	35	0	0	100
fixed	5	3	12	859663	4	3	3	1	0	568	1	4	0	152	36	0	0	100
fixed	5	4	1	860833	4	1	1	1	0	534	1	4	0	136	37	0	0	100
fixed	5	4	2	862112	1	2	2	1	0	1392	1	4	0	144	38	0	0	100
fixed	5	4	3	863833	6	4	4	1	0	623	1	4	0	160	39	0	0	100
fixed	5	4	4	865347	2	1	1	1	0	719	1	4	0	136	40	0	0	100
fixed	5	4	5	866756	5	3	3	1	0	772	1	4	0	152	41	0	0	100
fixed	5	4	6	868245	6	4	4	1	0	605	1	4	0	160	42	0	0	100
fixed	5	4	7	869358	3	1	1	1	0	637	1	4	0	136	43	0	0	100
fixed	5	4	8	870853	2	3	3	1	0	750	1	4	0	152	44	0	0	100
fixed	5	4	9	871954	3	2	2	1	0	591	1	4	0	144	45	0	0	100
fixed	5	4	10	872934	1	4	4	1	0	494	1	4	0	160	46	0	0	100
fixed	5	4	11	874160	5	2	2	1	0	690	1	4	0	144	47	0	0	100
fixed	5	4	12	875693	4	3	3	1	0	729	1	4	0	152	48	0	0	100
fixed	5	5	1	877691	4	1	1	1	0	724	1	4	0	136	49	0	0	100
fixed	5	5	2	879425	1	2	2	1	0	779	1	4	0	144	50	0	0	100
fixed	5	5	3	880602	6	4	4	1	0	585	1	4	0	160	51	0	0	100
fixed	5	5	4	882014	2	1	1	1	0	749	1	4	0	136	52	0	0	100
fixed	5	5	5	883410	5	3	3	1	0	730	1	4	0	152	53	0	0	100
fixed	5	5	6	884916	6	4	4	1	0	578	1	4	0	160	54	0	0	100
fixed	5	5	7	885827	3	1	1	1	0	699	1	4	0	136	55	0	0	100
fixed	5	5	8	887321	2	3	3	1	0	596	1	4	0	152	56	0	0	100
fixed	5	5	9	888508	3	2	2	1	0	426	1	4	0	144	57	0	0	100
fixed	5	5	10	889668	1	4	4	1	0	577	1	4	0	160	58	0	0	100
fixed	5	5	11	891213	5	2	2	1	0	1040	1	4	0	144	59	0	0	100
fixed	5	5	12	893068	4	3	3	1	0	465	1	4	0	152	60	0	0	100
fixed	5	6	1	894349	4	1	1	1	0	563	1	4	0	136	61	0	0	100
fixed	5	6	2	895908	1	2	2	1	0	753	1	4	0	144	62	0	0	100
fixed	5	6	3	897662	6	4	4	1	0	526	1	4	0	160	63	0	0	100
fixed	5	6	4	898638	2	1	1	1	0	645	1	4	0	136	64	0	0	100
fixed	5	6	5	900171	5	3	3	1	0	652	1	4	0	152	65	0	0	100
fixed	5	6	6	901742	6	4	4	1	0	618	1	4	0	160	66	0	0	100
fixed	5	6	7	902676	3	1	1	1	0	858	1	4	0	136	67	0	0	100
fixed	5	6	8	904363	2	3	3	1	0	667	1	4	0	152	68	0	0	100
fixed	5	6	9	905756	3	2	2	1	0	584	1	4	0	144	69	0	0	100
fixed	5	6	10	906685	1	4	4	1	0	552	1	4	0	160	70	0	0	100
fixed	5	6	11	907693	5	2	2	1	0	830	1	4	0	144	71	0	0	100
fixed	5	6	12	908986	4	3	3	1	0	511	1	4	0	152	72	0	0	100
fixed	5	7	1	910271	4	1	1	1	0	632	1	4	0	136	73	0	0	100
fixed	5	7	2	911637	1	2	2	1	0	751	1	4	0	144	74	0	0	100
fixed	5	7	3	912893	6	4	4	1	0	593	1	4	0	160	75	0	0	100
fixed	5	7	4	913797	2	1	1	1	0	731	1	4	0	136	76	0	0	100
fixed	5	7	5	915521	5	3	3	1	0	690	1	4	0	152	77	0	0	100
fixed	5	7	6	916652	6	4	4	1	0	642	1	4	0	160	78	0	0	100
fixed	5	7	7	917781	3	1	1	1	0	1178	1	4	0	136	79	0	0	100
fixed	5	7	8	919969	2	3	3	1	0	638	1	4	0	152	80	0	0	100
fixed	5	7	9	920905	3	2	2	1	0	574	1	4	0	144	81	0	0	100
fixed	5	7	10	922043	1	4	4	1	0	374	1	4	0	160	82	0	0	100
fixed	5	7	11	922815	5	2	2	1	0	701	1	4	0	144	83	0	0	100
fixed	5	7	12	924064	4	3	3	1	0	624	1	4	0	152	84	0	0	100
fixed	5	8	1	925241	4	1	1	1	0	566	1	4	0	136	85	0	0	100
fixed	5	8	2	926199	1	2	2	1	0	694	1	4	0	144	86	0	0	100
fixed	5	8	3	927250	6	4	4	2	0	897	2	4	0	160	87	0	0	100
fixed	5	8	4	928966	2	1	1	1	0	728	1	4	0	136	88	0	0	100
fixed	5	8	5	930566	5	3	3	1	0	709	1	4	0	152	89	0	0	100
fixed	5	8	6	932045	6	4	4	1	0	606	1	4	0	160	90	0	0	100
fixed	5	8	7	933261	3	1	1	1	0	674	1	4	0	136	91	0	0	100
fixed	5	8	8	934547	2	3	3	1	0	716	1	4	0	152	92	0	0	100
fixed	5	8	9	935902	3	2	2	1	0	579	1	4	0	144	93	0	0	100
fixed	5	8	10	937239	1	4	4	1	0	586	1	4	0	160	94	0	0	100
fixed	5	8	11	938419	5	2	2	1	0	760	1	4	0	144	95	0	0	100
fixed	5	8	12	939725	4	3	3	1	0	617	1	4	0	152	96	0	0	100
fixed	5	9	1	941164	4	1	1	1	0	548	1	4	0	136	97	0	0	100
fixed	5	9	2	942196	1	2	2	1	0	712	1	4	0	144	98	0	0	100
fixed	5	9	3	943706	6	4	4	1	0	512	1	4	0	160	99	0	0	100
fixed	5	9	4	944990	2	1	1	1	0	730	1	4	0	136	100	0	0	100
fixed	5	9	5	946425	5	3	3	1	0	717	1	4	0	152	101	0	0	100
fixed	5	9	6	948099	6	4	4	1	0	622	1	4	0	160	102	0	0	100
fixed	5	9	7	949491	3	1	1	1	0	1251	1	4	0	136	103	0	0	100
fixed	5	9	8	951229	2	3	3	1	0	1010	1	4	0	152	104	0	0	100
fixed	5	9	9	952939	3	2	2	1	0	561	1	4	0	144	105	0	0	100
fixed	5	9	10	954201	1	4	4	1	0	548	1	4	0	160	106	0	0	100
fixed	5	9	11	955118	5	2	2	1	0	725	1	4	0	144	107	0	0	100
fixed	5	9	12	956584	4	3	3	1	0	583	1	4	0	152	108	0	0	100
fixed	5	10	1	958022	4	1	1	1	0	770	1	4	0	136	109	0	0	100
fixed	5	10	2	959544	1	2	2	1	0	817	1	4	0	144	110	0	0	100
fixed	5	10	3	961254	6	4	4	1	0	673	1	4	0	160	111	0	0	100
fixed	5	10	4	962295	2	1	1	1	0	805	1	4	0	136	112	0	0	100
fixed	5	10	5	963429	5	3	3	1	0	565	1	4	0	152	113	0	0	100
fixed	5	10	6	964683	6	4	4	1	0	512	1	4	0	160	114	0	0	100
fixed	5	10	7	966141	3	1	1	1	0	874	1	4	0	136	115	0	0	100
fixed	5	10	8	967449	2	3	3	1	0	651	1	4	0	152	116	0	0	100
fixed	5	10	9	968466	3	2	2	1	0	615	1	4	0	144	117	0	0	100
fixed	5	10	10	969724	1	4	4	1	0	458	1	4	0	160	118	0	0	100
fixed	5	10	11	970824	5	2	2	1	0	860	1	4	0	144	119	0	0	100
fixed	5	10	12	972446	4	3	3	1	0	607	1	4	0	152	120	0	0	100
random	6	1	1	1105598	6	1	1	1	0	679	1	4	0	168	1	0	0	100
random	6	1	2	1106859	4	4	4	1	0	674	1	4	0	192	2	0	0	100
random	6	1	3	1108083	2	2	2	2	0	1038	2	4	0	176	3	0	0	100
random	6	1	4	1110025	3	3	3	1	0	563	1	4	0	184	4	0	0	100
random	6	1	5	1111299	5	2	2	1	0	734	1	4	0	176	5	0	0	100
random	6	1	6	1112803	1	4	4	1	0	510	1	4	0	192	6	0	0	100
random	6	1	7	1113812	6	1	1	1	0	684	1	4	0	168	7	0	0	100
random	6	1	8	1115502	2	3	3	1	0	748	1	4	0	184	8	0	0	100
random	6	1	9	1116638	4	2	2	1	0	460	1	4	0	176	9	0	0	100
random	6	1	10	1117450	1	1	1	1	0	697	1	4	0	168	10	0	0	100
random	6	1	11	1118984	5	4	4	1	0	464	1	4	0	192	11	0	0	100
random	6	1	12	1120265	3	3	3	1	0	618	1	4	0	184	12	0	0	100
random	6	1	13	1121439	5	2	2	1	0	912	1	4	0	176	13	0	0	100
random	6	1	14	1122719	1	4	4	1	0	626	1	4	0	192	14	0	0	100
random	6	1	15	1124319	3	1	1	1	0	822	1	4	0	168	15	0	0	100
random	6	1	16	1126028	4	3	3	1	0	686	1	4	0	184	16	0	0	100
random	6	1	17	1127420	6	4	4	1	0	651	1	4	0	192	17	0	0	100
random	6	1	18	1128356	2	1	1	1	0	715	1	4	0	168	18	0	0	100
random	6	1	19	1129716	5	3	3	1	0	818	1	4	0	184	19	0	0	100
random	6	1	20	1131141	2	2	2	1	0	526	1	4	0	176	20	0	0	100
random	6	1	21	1132587	3	3	3	1	0	760	1	4	0	184	21	0	0	100
random	6	1	22	1133713	6	1	1	1	0	793	1	4	0	168	22	0	0	100
random	6	1	23	1135282	4	2	2	1	0	846	1	4	0	176	23	0	0	100
random	6	1	24	1137092	1	4	4	1	0	609	1	4	0	192	24	0	0	100
random	6	1	25	1138782	4	3	3	1	0	994	1	4	0	184	25	0	0	100
random	6	1	26	1140604	2	1	1	1	0	748	1	4	0	168	26	0	0	100
random	6	1	27	1141826	5	2	2	1	0	785	1	4	0	176	27	0	0	100
random	6	1	28	1143169	6	4	4	1	0	496	1	4	0	192	28	0	0	100
random	6	1	29	1144241	1	3	3	1	0	1123	1	4	0	184	29	0	0	100
random	6	1	30	1145814	5	2	2	1	0	600	1	4	0	176	30	0	0	100
random	6	1	31	1147447	2	1	1	1	0	675	1	4	0	168	31	0	0	100
random	6	1	32	1148808	3	3	3	1	0	737	1	4	0	184	32	0	0	100
random	6	1	33	1149949	6	4	4	1	0	577	1	4	0	192	33	0	0	100
random	6	1	34	1150924	4	2	2	1	0	632	1	4	0	176	34	0	0	100
random	6	1	35	1151892	3	4	4	1	0	703	1	4	0	192	35	0	0	100
random	6	1	36	1153451	1	1	1	1	0	748	1	4	0	168	36	0	0	100
random	6	1	37	1155138	3	4	4	1	0	645	1	4	0	192	37	0	0	100
random	6	1	38	1156505	5	3	3	1	0	756	1	4	0	184	38	0	0	100
random	6	1	39	1157783	6	1	1	1	0	845	1	4	0	168	39	0	0	100
random	6	1	40	1159076	1	2	2	1	0	879	1	4	0	176	40	0	0	100
random	6	1	41	1160550	2	3	3	1	0	584	1	4	0	184	41	0	0	100
random	6	1	42	1161856	4	4	4	1	0	432	1	4	0	192	42	0	0	100
random	6	1	43	1163269	1	2	2	1	0	941	1	4	0	176	43	0	0	100
random	6	1	44	1165147	6	3	3	1	0	709	1	4	0	184	44	0	0	100
random	6	1	45	1166712	3	1	1	1	0	731	1	4	0	168	45	0	0	100
random	6	1	46	1168445	4	4	4	1	0	626	1	4	0	192	46	0	0	100
random	6	1	47	1169395	2	2	2	1	0	905	1	4	0	176	47	0	0	100
random	6	1	48	1170764	5	1	1	1	0	775	1	4	0	168	48	0	0	100
random	6	1	49	1172364	2	3	3	1	0	923	1	4	0	184	49	0	0	100
random	6	1	50	1173907	3	1	1	1	0	730	1	4	0	168	50	0	0	100
random	6	1	51	1175309	1	4	4	1	0	503	1	4	0	192	51	0	0	100
random	6	1	52	1176368	5	3	3	1	0	778	1	4	0	184	52	0	0	100
random	6	1	53	1177720	3	2	2	1	0	441	1	4	0	176	53	0	0	100
random	6	1	54	1178913	6	4	4	1	0	486	1	4	0	192	54	0	0	100
random	6	1	55	1180325	4	2	2	1	0	722	1	4	0	176	55	0	0	100
random	6	1	56	1181970	1	1	1	1	0	804	1	4	0	168	56	0	0	100
random	6	1	57	1183360	5	4	4	1	0	634	1	4	0	192	57	0	0	100
random	6	1	58	1184691	2	1	1	2	0	962	2	4	0	168	58	0	0	100
random	6	1	59	1186073	6	2	2	1	0	975	1	4	0	176	59	0	0	100
random	6	1	60	1187782	4	3	3	1	0	647	1	4	0	184	60	0	0	100
random	6	1	61	1189205	1	2	2	1	0	890	1	4	0	176	61	0	0	100
random	6	1	62	1190878	6	4	4	1	0	627	1	4	0	192	62	0	0	100
random	6	1	63	1191859	4	1	1	1	0	529	1	4	0	168	63	0	0	100
random	6	1	64	1193102	2	2	2	1	0	933	1	4	0	176	64	0	0	100
random	6	1	65	1194727	4	3	3	1	0	688	1	4	0	184	65	0	0	100
random	6	1	66	1195879	3	1	1	1	0	696	1	4	0	168	66	0	0	100
random	6	1	67	1197411	1	3	3	1	0	838	1	4	0	184	67	0	0	100
random	6	1	68	1198867	5	4	4	1	0	689	1	4	0	192	68	0	0	100
random	6	1	69	1200583	2	2	2	1	0	712	1	4	0	176	69	0	0	100
random	6	1	70	1201725	3	1	1	1	0	784	1	4	0	168	70	0	0	100
random	6	1	71	1203482	5	4	4	1	0	646	1	4	0	192	71	0	0	100
random	6	1	72	1204939	6	3	3	1	0	840	1	4	0	184	72	0	0	100
random	6	1	73	1207016	2	1	1	1	0	704	1	4	0	168	73	0	0	100
random	6	1	74	1208152	5	3	3	1	0	679	1	4	0	184	74	0	0	100
random	6	1	75	1209282	1	4	4	1	0	648	1	4	0	192	75	0	0	100
random	6	1	76	1210825	6	2	2	1	0	654	1	4	0	176	76	0	0	100
random	6	1	77	1212408	2	1	1	1	0	756	1	4	0	168	77	0	0	100
random	6	1	78	1213552	4	4	4	1	0	571	1	4	0	192	78	0	0	100
random	6	1	79	1214425	3	2	2	1	0	734	1	4	0	176	79	0	0	100
random	6	1	80	1215989	4	3	3	1	0	820	1	4	0	184	80	0	0	100
random	6	1	81	1217331	1	4	4	1	0	443	1	4	0	192	81	0	0	100
random	6	1	82	1218249	5	1	1	1	0	692	1	4	0	168	82	0	0	100
random	6	1	83	1219464	3	2	2	1	0	784	1	4	0	176	83	0	0	100
random	6	1	84	1221150	6	3	3	1	0	777	1	4	0	184	84	0	0	100
random	6	1	85	1222821	3	2	2	1	0	762	1	4	0	176	85	0	0	100
random	6	1	86	1223899	1	3	3	1	0	781	1	4	0	184	86	0	0	100
random	6	1	87	1225000	4	4	4	1	0	750	1	4	0	192	87	0	0	100
random	6	1	88	1226177	2	1	1	1	0	580	1	4	0	168	88	0	0	100
random	6	1	89	1227760	6	4	4	1	0	617	1	4	0	192	89	0	0	100
random	6	1	90	1228733	3	3	3	1	0	728	1	4	0	184	90	0	0	100
random	6	1	91	1229781	5	4	4	1	0	692	1	4	0	192	91	0	0	100
random	6	1	92	1231208	1	2	2	1	0	807	1	4	0	176	92	0	0	100
random	6	1	93	1232722	5	1	1	1	0	791	1	4	0	168	93	0	0	100
random	6	1	94	1234139	4	3	3	1	0	779	1	4	0	184	94	0	0	100
random	6	1	95	1235747	6	1	1	2	0	983	2	4	0	168	95	0	0	100
random	6	1	96	1237604	2	2	2	1	0	833	1	4	0	176	96	0	0	100
random	6	1	97	1239511	4	3	3	1	0	807	1	4	0	184	97	0	0	100
random	6	1	98	1241189	3	2	2	1	0	617	1	4	0	176	98	0	0	100
random	6	1	99	1242516	6	3	3	1	0	865	1	4	0	184	99	0	0	100
random	6	1	100	1243656	1	4	4	1	0	576	1	4	0	192	100	0	0	100
random	6	1	101	1245048	4	1	1	1	0	757	1	4	0	168	101	0	0	100
random	6	1	102	1246409	5	2	2	1	0	884	1	4	0	176	102	0	0	100
random	6	1	103	1247767	2	4	4	1	0	650	1	4	0	192	103	0	0	100
random	6	1	104	1249001	3	1	1	1	0	677	1	4	0	168	104	0	0	100
random	6	1	105	1250090	1	3	3	1	0	807	1	4	0	184	105	0	0	100
random	6	1	106	1251218	2	2	2	1	0	592	1	4	0	176	106	0	0	100
random	6	1	107	1252588	5	4	4	1	0	630	1	4	0	192	107	0	0	100
random	6	1	108	1253742	6	1	1	1	0	733	1	4	0	168	108	0	0	100
random	6	1	109	1255602	5	4	4	1	0	614	1	4	0	192	109	0	0	100
random	6	1	110	1256958	6	3	3	1	0	716	1	4	0	184	110	0	0	100
random	6	1	111	1258290	2	2	2	1	0	844	1	4	0	176	111	0	0	100
random	6	1	112	1259913	3	1	1	1	0	671	1	4	0	168	112	0	0	100
random	6	1	113	1261330	1	2	2	2	0	1595	2	4	0	176	113	0	0	100
random	6	1	114	1263906	2	3	3	1	0	662	1	4	0	184	114	0	0	100
random	6	1	115	1264898	3	1	1	1	0	788	1	4	0	168	115	0	0	100
random	6	1	116	1266599	4	4	4	1	0	508	1	4	0	192	116	0	0	100
random	6	1	117	1267451	6	1	1	1	0	968	1	4	0	168	117	0	0	100
random	6	1	118	1269083	5	3	3	1	0	731	1	4	0	184	118	0	0	100
random	6	1	119	1270371	1	4	4	1	0	684	1	4	0	192	119	0	0	100
random	6	1	120	1271636	4	2	2	1	0	551	1	4	0	176	120	0	0	100
fixed	7	1	1	1273610	4	1	1	1	0	531	1	4	0	200	1	0	0	100
fixed	7	1	2	1274761	1	2	2	1	0	923	1	4	0	208	2	0	0	100
fixed	7	1	3	1276281	6	4	4	1	0	586	1	4	0	224	3	0	0	100
fixed	7	1	4	1277402	2	1	1	1	0	794	1	4	0	200	4	0	0	100
fixed	7	1	5	1278648	5	3	3	1	0	654	1	4	0	216	5	0	0	100
fixed	7	1	6	1280016	6	4	4	1	0	636	1	4	0	224	6	0	0	100
fixed	7	1	7	1281217	3	1	1	1	0	625	1	4	0	200	7	0	0	100
fixed	7	1	8	1282367	2	3	3	1	0	1016	1	4	0	216	8	0	0	100
fixed	7	1	9	1283787	3	2	2	1	0	492	1	4	0	208	9	0	0	100
fixed	7	1	10	1285197	1	4	4	1	0	649	1	4	0	224	10	0	0	100
fixed	7	1	11	1286703	5	2	2	1	0	753	1	4	0	208	11	0	0	100
fixed	7	1	12	1288473	4	3	3	1	0	654	1	4	0	216	12	0	0	100
fixed	7	2	1	1290270	4	1	1	1	0	801	1	4	0	200	1	0	0	8
fixed	7	2	2	1291904	1	2	2	1	0	885	1	4	0	208	2	0	0	14
fixed	7	2	3	1293248	6	4	4	1	0	651	1	4	0	224	3	0	0	20
fixed	7	2	4	1294279	2	1	1	1	0	760	1	4	0	200	4	0	0	25
fixed	7	2	5	1295951	5	3	3	1	0	865	1	4	0	216	5	0	0	29
fixed	7	2	6	1297231	6	4	4	1	0	683	1	4	0	224	6	0	0	33
fixed	7	2	7	1298193	3	1	1	1	0	778	1	4	0	200	7	0	0	37
fixed	7	2	8	1299699	2	3	3	1	0	810	1	4	0	216	8	0	0	40
fixed	7	2	9	1300954	3	2	2	1	0	525	1	4	0	208	9	0	0	43
fixed	7	2	10	1302122	1	4	4	1	0	604	1	4	0	224	10	0	0	45
fixed	7	2	11	1303724	5	2	2	1	0	912	1	4	0	208	11	0	0	48
fixed	7	2	12	1305614	4	3	3	1	0	648	1	4	0	216	12	0	0	50
fixed	7	3	1	1307529	4	1	1	1	0	766	1	4	0	200	1	0	0	4
fixed	7	3	2	1308844	1	2	2	1	0	807	1	4	0	208	2	0	0	8
fixed	7	3	3	1310157	6	4	4	1	0	599	1	4	0	224	3	0	0	11
fixed	7	3	4	1311637	2	1	1	1	0	696	1	4	0	200	4	0	0	14
fixed	7	3	5	1313110	5	3	3	1	0	682	1	4	0	216	5	0	0	17
fixed	7	3	6	1314746	6	4	4	1	0	637	1	4	0	224	6	0	0	20
fixed	7	3	7	1316336	3	1	1	1	0	737	1	4	0	200	7	0	0	23
fixed	7	3	8	1318120	2	3	3	1	0	918	1	4	0	216	8	0	0	25
fixed	7	3	9	1319436	3	2	2	1	0	503	1	4	0	208	9	0	0	27
fixed	7	3	10	1320815	1	4	4	1	0	612	1	4	0	224	10	0	0	29
fixed	7	3	11	1321998	5	2	2	1	0	794	1	4	0	208	11	0	0	31
fixed	7	3	12	1323820	4	3	3	1	0	660	1	4	0	216	12	0	0	33
fixed	7	4	1	1325506	4	1	1	1	0	749	1	4	0	200	1	0	0	3
fixed	7	4	2	1326750	1	2	2	1	0	809	1	4	0	208	2	0	0	5
fixed	7	4	3	1328289	6	4	4	1	0	608	1	4	0	224	3	0	0	8
fixed	7	4	4	1329207	2	1	1	1	0	689	1	4	0	200	4	0	0	10
fixed	7	4	5	1330584	5	3	3	1	0	734	1	4	0	216	5	0	0	12
fixed	7	4	6	1332222	6	4	4	1	0	648	1	4	0	224	6	0	0	14
fixed	7	4	7	1333459	3	1	1	1	0	684	1	4	0	200	7	0	0	16
fixed	7	4	8	1334859	2	3	3	1	0	889	1	4	0	216	8	0	0	18
fixed	7	4	9	1336212	3	2	2	1	0	488	1	4	0	208	9	0	0	20
fixed	7	4	10	1337499	1	4	4	1	0	609	1	4	0	224	10	0	0	22
fixed	7	4	11	1338552	5	2	2	1	0	741	1	4	0	208	11	0	0	23
fixed	7	4	12	1340034	4	3	3	1	0	662	1	4	0	216	12	0	0	25
fixed	7	5	1	1341295	4	1	1	1	0	696	1	4	0	200	1	0	0	2
fixed	7	5	2	1342690	1	2	2	1	0	813	1	4	0	208	2	0	0	4
fixed	7	5	3	1344151	6	4	4	1	0	663	1	4	0	224	3	0	0	6
fixed	7	5	4	1345680	2	1	1	1	0	919	1	4	0	200	4	0	0	8
fixed	7	5	5	1347259	5	3	3	1	0	812	1	4	0	216	5	0	0	9
fixed	7	5	6	1348415	6	4	4	1	0	635	1	4	0	224	6	0	0	11
fixed	7	5	7	1349729	3	1	1	1	0	796	1	4	0	200	7	0	0	13
fixed	7	5	8	1351439	2	3	3	1	0	667	1	4	0	216	8	0	0	14
fixed	7	5	9	1352925	3	2	2	1	0	452	1	4	0	208	9	0	0	16
fixed	7	5	10	1353933	1	4	4	1	0	505	1	4	0	224	10	0	0	17
fixed	7	5	11	1355461	5	2	2	1	0	848	1	4	0	208	11	0	0	19
fixed	7	5	12	1357023	4	3	3	1	0	502	1	4	0	216	12	0	0	20
fixed	7	6	1	1358420	4	1	1	1	0	587	1	4	0	200	1	0	0	2
fixed	7	6	2	1359472	1	2	2	1	0	750	1	4	0	208	2	0	0	3
fixed	7	6	3	1360731	6	4	4	1	0	617	1	4	0	224	3	0	0	5
fixed	7	6	4	1361649	2	1	1	1	0	674	1	4	0	200	4	0	0	6
fixed	7	6	5	1362867	5	3	3	1	0	679	1	4	0	216	5	0	0	8
fixed	7	6	6	1364241	6	4	4	1	0	709	1	4	0	224	6	0	0	9
fixed	7	6	7	1365713	3	1	1	1	0	598	1	4	0	200	7	0	0	10
fixed	7	6	8	1367149	2	3	3	1	0	857	1	4	0	216	8	0	0	12
fixed	7	6	9	1368551	3	2	2	1	0	510	1	4	0	208	9	0	0	13
fixed	7	6	10	1369494	1	4	4	1	0	551	1	4	0	224	10	0	0	14
fixed	7	6	11	1370529	5	2	2	1	0	619	1	4	0	208	11	0	0	15
fixed	7	6	12	1371865	4	3	3	1	0	658	1	4	0	216	12	0	0	17
fixed	7	7	1	1373507	4	1	1	1	0	756	1	4	0	200	1	0	0	1
fixed	7	7	2	1374714	1	2	2	1	0	777	1	4	0	208	2	0	0	3
fixed	7	7	3	1375781	6	4	4	1	0	676	1	4	0	224	3	0	0	4
fixed	7	7	4	1376751	2	1	1	1	0	683	1	4	0	200	4	0	0	5
fixed	7	7	5	1378437	5	3	3	1	0	691	1	4	0	216	5	0	0	6
fixed	7	7	6	1379852	6	4	4	1	0	624	1	4	0	224	6	0	0	8
fixed	7	7	7	1381038	3	1	1	1	0	693	1	4	0	200	7	0	0	9
fixed	7	7	8	1382637	2	3	3	2	0	1705	2	4	0	216	8	0	0	10
fixed	7	7	9	1384669	3	2	2	1	0	787	1	4	0	208	9	0	0	11
fixed	7	7	10	1385942	1	4	4	1	0	549	1	4	0	224	10	0	0	12
fixed	7	7	11	1386879	5	2	2	1	0	686	1	4	0	208	11	0	0	13
fixed	7	7	12	1388022	4	3	3	1	0	718	1	4	0	216	12	0	0	14
fixed	7	8	1	1389463	4	1	1	1	0	648	1	4	0	200	1	0	0	1
fixed	7	8	2	1390890	1	2	2	1	0	700	1	4	0	208	2	0	0	2
fixed	7	8	3	1392110	6	4	4	1	0	552	1	4	0	224	3	0	0	3
fixed	7	8	4	1393471	2	1	1	1	0	678	1	4	0	200	4	0	0	5
fixed	7	8	5	1394854	5	3	3	1	0	908	1	4	0	216	5	0	0	6
fixed	7	8	6	1396726	6	4	4	1	0	573	1	4	0	224	6	0	0	7
fixed	7	8	7	1398047	3	1	1	1	0	741	1	4	0	200	7	0	0	8
fixed	7	8	8	1399746	2	3	3	1	0	797	1	4	0	216	8	0	0	9
fixed	7	8	9	1400957	3	2	2	1	0	481	1	4	0	208	9	0	0	10
fixed	7	8	10	1402372	1	4	4	1	0	454	1	4	0	224	10	0	0	11
fixed	7	8	11	1403673	5	2	2	1	0	775	1	4	0	208	11	0	0	12
fixed	7	8	12	1405311	4	3	3	1	0	681	1	4	0	216	12	0	0	13
fixed	7	9	1	1407173	4	1	1	1	0	594	1	4	0	200	1	0	0	1
fixed	7	9	2	1408481	1	2	2	1	0	1011	1	4	0	208	2	0	0	2
fixed	7	9	3	1409869	6	4	4	1	0	608	1	4	0	224	3	0	0	3
fixed	7	9	4	1411399	2	1	1	1	0	687	1	4	0	200	4	0	0	4
fixed	7	9	5	1413066	5	3	3	1	0	729	1	4	0	216	5	0	0	5
fixed	7	9	6	1414694	6	4	4	1	0	620	1	4	0	224	6	0	0	6
fixed	7	9	7	1415746	3	1	1	1	0	663	1	4	0	200	7	0	0	7
fixed	7	9	8	1417085	2	3	3	1	0	718	1	4	0	216	8	0	0	8
fixed	7	9	9	1418274	3	2	2	1	0	444	1	4	0	208	9	0	0	9
fixed	7	9	10	1419493	1	4	4	1	0	384	1	4	0	224	10	0	0	9
fixed	7	9	11	1420311	5	2	2	1	0	686	1	4	0	208	11	0	0	10
fixed	7	9	12	1421505	4	3	3	1	0	708	1	4	0	216	12	0	0	11
fixed	7	10	1	1423229	4	1	1	1	0	650	1	4	0	200	1	0	0	1
fixed	7	10	2	1424210	1	2	2	1	0	785	1	4	0	208	2	0	0	2
fixed	7	10	3	1425495	6	4	4	1	0	586	1	4	0	224	3	0	0	3
fixed	7	10	4	1426801	2	1	1	2	0	931	2	4	0	200	4	0	0	4
fixed	7	10	5	1428619	5	3	3	1	0	854	1	4	0	216	5	0	0	4
fixed	7	10	6	1429906	6	4	4	1	0	592	1	4	0	224	6	0	0	5
fixed	7	10	7	1431100	3	1	1	1	0	757	1	4	0	200	7	0	0	6
fixed	7	10	8	1432823	2	3	3	1	0	900	1	4	0	216	8	0	0	7
fixed	7	10	9	1434602	3	2	2	1	0	729	1	4	0	208	9	0	0	8
fixed	7	10	10	1435869	1	4	4	1	0	483	1	4	0	224	10	0	0	8
fixed	7	10	11	1436937	5	2	2	1	0	774	1	4	0	208	11	0	0	9
fixed	7	10	12	1438467	4	3	3	1	0	685	1	4	0	216	12	0	0	10
