type	block	sequ.	trial	time	Pos.	Color	Button	NumRsp	Resp_1	RT_1	R_Code	Resp_2	RT_2	Trigg.	n_hit	n_inc	n_miss	score_%

random	1	1	1	2304	6	1	1	1	0	1079	1	4	0	8	1	0	0	100
random	1	1	2	4411	4	4	4	1	0	797	1	4	0	32	2	0	0	100
random	1	1	3	6097	2	2	2	1	0	1038	1	4	0	16	3	0	0	100
random	1	1	4	7872	3	3	3	1	0	659	1	4	0	24	4	0	0	100
random	1	1	5	9508	5	2	2	1	0	1022	1	4	0	16	5	0	0	100
random	1	1	6	11187	1	4	4	1	0	775	1	4	0	32	6	0	0	100
random	1	1	7	12794	6	1	1	1	0	603	1	4	0	8	7	0	0	100
random	1	1	8	14203	2	3	3	1	0	767	1	4	0	24	8	0	0	100
random	1	1	9	15309	4	2	2	1	0	736	1	4	0	16	9	0	0	100
random	1	1	10	16416	1	1	1	1	0	1073	1	4	0	8	10	0	0	100
random	1	1	11	18368	5	4	4	1	0	551	1	4	0	32	11	0	0	100
random	1	1	12	19539	3	3	3	1	0	757	1	4	0	24	12	0	0	100
random	1	1	13	21134	5	2	2	1	0	1289	1	4	0	16	13	0	0	100
random	1	1	14	22793	1	4	4	1	0	899	1	4	0	32	14	0	0	100
random	1	1	15	24251	3	1	1	1	0	925	1	4	0	8	15	0	0	100
random	1	1	16	26136	4	3	3	1	0	725	1	4	0	24	16	0	0	100
random	1	1	17	27558	6	4	4	1	0	985	1	4	0	32	17	0	0	100
random	1	1	18	28872	2	1	1	1	0	1049	1	4	0	8	18	0	0	100
random	1	1	19	30677	5	3	3	1	0	829	1	4	0	24	19	0	0	100
random	1	1	20	32154	2	2	2	1	0	631	1	4	0	16	20	0	0	100
random	1	1	21	33791	3	3	3	1	0	753	1	4	0	24	21	0	0	100
random	1	1	22	35015	6	1	1	1	0	862	1	4	0	8	22	0	0	100
random	1	1	23	36300	4	2	2	1	0	927	1	4	0	16	23	0	0	100
random	1	1	24	38097	1	4	4	1	0	619	1	4	0	32	24	0	0	100
random	1	1	25	39848	4	3	3	1	0	1185	1	4	0	24	25	0	0	100
random	1	1	26	41741	2	1	1	1	0	969	1	4	0	8	26	0	0	100
random	1	1	27	43126	5	2	2	1	0	1094	1	4	0	16	27	0	0	100
random	1	1	28	44569	6	4	4	1	0	681	1	4	0	32	28	0	0	100
random	1	1	29	45576	1	3	3	1	0	1511	1	4	0	24	29	0	0	100
random	1	1	30	47864	5	2	2	1	0	902	1	4	0	16	30	0	0	100
random	1	1	31	49317	2	1	1	1	0	848	1	4	0	8	31	0	0	100
random	1	1	32	50801	3	3	3	1	0	1201	1	4	0	24	32	0	0	100
random	1	1	33	52934	6	4	4	1	0	806	1	4	0	32	33	0	0	100
random	1	1	34	54384	4	2	2	1	0	737	1	4	0	16	34	0	0	100
random	1	1	35	55466	3	4	4	1	0	764	1	4	0	32	35	0	0	100
random	1	1	36	56708	1	1	1	1	0	759	1	4	0	8	36	0	0	100
random	1	1	37	58026	3	4	4	1	0	1295	1	4	0	32	37	0	0	100
random	1	1	38	59643	5	3	3	1	0	1019	1	4	0	24	38	0	0	100
random	1	1	39	61275	6	1	1	1	0	757	1	4	0	8	39	0	0	100
random	1	1	40	62634	1	2	2	1	0	636	1	4	0	16	40	0	0	100
random	1	1	41	63687	2	3	3	1	0	1167	1	4	0	24	41	0	0	100
random	1	1	42	65433	4	4	4	1	0	861	1	4	0	32	42	0	0	100
random	1	1	43	67314	1	2	2	1	0	1109	1	4	0	16	43	0	0	100
random	1	1	44	69030	6	3	3	1	0	853	1	4	0	24	44	0	0	100
random	1	1	45	70641	3	1	1	1	0	936	1	4	0	8	45	0	0	100
random	1	1	46	71994	4	4	4	1	0	751	1	4	0	32	46	0	0	100
random	1	1	47	73520	2	2	2	1	0	879	1	4	0	16	47	0	0	100
random	1	1	48	74886	5	1	1	1	0	957	1	4	0	8	48	0	0	100
random	1	1	49	76638	2	3	3	1	0	906	1	4	0	24	49	0	0	100
random	1	1	50	78024	3	1	1	1	0	960	1	4	0	8	50	0	0	100
random	1	1	51	79851	1	4	4	1	0	762	1	4	0	32	51	0	0	100
random	1	1	52	81613	5	3	3	1	0	952	1	4	0	24	52	0	0	100
random	1	1	53	83158	3	2	2	1	0	846	1	4	0	16	53	0	0	100
random	1	1	54	84696	6	4	4	1	0	749	1	4	0	32	54	0	0	100
random	1	1	55	85772	4	2	2	1	0	1240	1	4	0	16	55	0	0	100
random	1	1	56	87865	1	1	1	1	0	1023	1	4	0	8	56	0	0	100
random	1	1	57	89588	5	4	4	1	0	734	1	4	0	32	57	0	0	100
random	1	1	58	91065	2	1	1	1	0	904	1	4	0	8	58	0	0	100
random	1	1	59	92540	6	2	2	2	0	1697	2	4	0	16	59	0	0	100
random	1	1	60	95218	4	3	3	1	0	791	1	4	0	24	60	0	0	100
random	1	1	61	96905	1	2	2	1	0	792	1	4	0	16	61	0	0	100
random	1	1	62	98259	6	4	4	1	0	863	1	4	0	32	62	0	0	100
random	1	1	63	99474	4	1	1	1	0	1124	1	4	0	8	63	0	0	100
random	1	1	64	101221	2	2	2	1	0	977	1	4	0	16	64	0	0	100
random	1	1	65	102550	4	3	3	1	0	769	1	4	0	24	65	0	0	100
random	1	1	66	103670	3	1	1	1	0	993	1	4	0	8	66	0	0	100
random	1	1	67	105186	1	3	3	1	0	986	1	4	0	24	67	0	0	100
random	1	1	68	106508	5	4	4	1	0	890	1	4	0	32	68	0	0	100
random	1	1	69	107713	2	2	2	1	0	934	1	4	0	16	69	0	0	100
random	1	1	70	109415	3	1	1	1	0	791	1	4	0	8	70	0	0	100
random	1	1	71	110870	5	4	4	1	0	696	1	4	0	32	71	0	0	100
random	1	1	72	112573	6	3	3	1	0	1033	1	4	0	24	72	0	0	100
random	1	1	73	114231	2	1	1	1	0	994	1	4	0	8	73	0	0	100
random	1	1	74	116060	5	3	3	1	0	821	1	4	0	24	74	0	0	100
random	1	1	75	117363	1	4	4	1	0	798	1	4	0	32	75	0	0	100
random	1	1	76	118911	6	2	2	1	0	908	1	4	0	16	76	0	0	100
random	1	1	77	120462	2	1	1	1	0	1146	1	4	0	8	77	0	0	100
random	1	1	78	122526	4	4	4	1	0	771	1	4	0	32	78	0	0	100
random	1	1	79	124214	3	2	2	1	0	892	1	4	0	16	79	0	0	100
random	1	1	80	125859	4	3	3	1	0	694	1	4	0	24	80	0	0	100
random	1	1	81	126884	1	4	4	1	0	1114	1	4	0	32	81	0	0	100
random	1	1	82	128878	5	1	1	1	0	694	1	4	0	8	82	0	0	100
random	1	1	83	130278	3	2	2	1	0	1667	1	4	0	16	83	0	0	100
random	1	1	84	132372	6	3	3	1	0	842	1	4	0	24	84	0	0	100
random	1	1	85	134180	3	2	2	1	0	797	1	4	0	16	85	0	0	100
random	1	1	86	135405	1	3	3	1	0	834	1	4	0	24	86	0	0	100
random	1	1	87	136695	4	4	4	1	0	915	1	4	0	32	87	0	0	100
random	1	1	88	138352	2	1	1	1	0	589	1	4	0	8	88	0	0	100
random	1	1	89	139672	6	4	4	1	0	837	1	4	0	32	89	0	0	100
random	1	1	90	141400	3	3	3	1	0	1171	1	4	0	24	90	0	0	100
random	1	1	91	143213	5	4	4	2	0	1071	2	4	0	32	91	0	0	100
random	1	1	92	144642	1	2	2	1	0	1050	1	4	0	16	92	0	0	100
random	1	1	93	146617	5	1	1	1	0	1103	1	4	0	8	93	0	0	100
random	1	1	94	148260	4	3	3	1	0	865	1	4	0	24	94	0	0	100
random	1	1	95	149699	6	1	1	1	0	1020	1	4	0	8	95	0	0	100
random	1	1	96	151230	2	2	2	1	0	915	1	4	0	16	96	0	0	100
random	1	1	97	153143	4	3	3	1	0	1010	1	4	0	24	97	0	0	100
random	1	1	98	154562	3	2	2	1	0	734	1	4	0	16	98	0	0	100
random	1	1	99	156107	6	3	3	1	0	853	1	4	0	24	99	0	0	100
random	1	1	100	157654	1	4	4	1	0	851	1	4	0	32	100	0	0	100
random	1	1	101	159381	4	1	1	1	0	866	1	4	0	8	101	0	0	100
random	1	1	102	161156	5	2	2	1	0	927	1	4	0	16	102	0	0	100
random	1	1	103	163097	2	4	4	1	0	789	1	4	0	32	103	0	0	100
random	1	1	104	164637	3	1	1	1	0	907	1	4	0	8	104	0	0	100
random	1	1	105	166481	1	3	3	1	0	949	1	4	0	24	105	0	0	100
random	1	1	106	167856	2	2	2	1	0	795	1	4	0	16	106	0	0	100
random	1	1	107	169032	5	4	4	1	0	985	1	4	0	32	107	0	0	100
random	1	1	108	170533	6	1	1	1	0	769	1	4	0	8	108	0	0	100
random	1	1	109	171889	5	4	4	1	0	840	1	4	0	32	109	0	0	100
random	1	1	110	173427	6	3	3	1	0	1031	1	4	0	24	110	0	0	100
random	1	1	111	175316	2	2	2	1	0	663	1	4	0	16	111	0	0	100
random	1	1	112	176278	3	1	1	1	0	1295	1	4	0	8	112	0	0	100
random	1	1	113	178130	1	2	2	1	0	1040	1	4	0	16	113	0	0	100
random	1	1	114	179926	2	3	3	1	0	700	1	4	0	24	114	0	0	100
random	1	1	115	181454	3	1	1	1	0	811	1	4	0	8	115	0	0	100
random	1	1	116	182701	4	4	4	1	0	806	1	4	0	32	116	0	0	100
random	1	1	117	184217	6	1	1	1	0	926	1	4	0	8	117	0	0	100
random	1	1	118	185534	5	3	3	1	0	943	1	4	0	24	118	0	0	100
random	1	1	119	186819	1	4	4	1	0	864	1	4	0	32	119	0	0	100
random	1	1	120	188163	4	2	2	1	0	935	1	4	0	16	120	0	0	100
fixed	2	1	1	189981	4	1	1	1	0	1450	1	4	0	40	1	0	0	100
fixed	2	1	2	192118	1	2	2	1	0	976	1	4	0	48	2	0	0	100
fixed	2	1	3	193482	6	4	4	1	0	662	1	4	0	64	3	0	0	100
fixed	2	1	4	194976	2	1	1	1	0	823	1	4	0	40	4	0	0	100
fixed	2	1	5	196386	5	3	3	1	0	747	1	4	0	56	5	0	0	100
fixed	2	1	6	197736	6	4	4	1	0	793	1	4	0	64	6	0	0	100
fixed	2	1	7	198865	3	1	1	1	0	1066	1	4	0	40	7	0	0	100
fixed	2	1	8	200941	2	3	3	1	0	1097	1	4	0	56	8	0	0	100
fixed	2	1	9	202910	3	2	2	1	0	935	1	4	0	48	9	0	0	100
fixed	2	1	10	204600	1	4	4	1	0	791	1	4	0	64	10	0	0	100
fixed	2	1	11	205756	5	2	2	1	0	918	1	4	0	48	11	0	0	100
fixed	2	1	12	207464	4	3	3	1	0	741	1	4	0	56	12	0	0	100
fixed	2	2	1	208996	4	1	1	1	0	1180	1	4	0	40	13	0	0	100
fixed	2	2	2	210511	1	2	2	1	0	1069	1	4	0	48	14	0	0	100
fixed	2	2	3	212176	6	4	4	1	0	774	1	4	0	64	15	0	0	100
fixed	2	2	4	213666	2	1	1	1	0	1247	1	4	0	40	16	0	0	100
fixed	2	2	5	215506	5	3	3	1	0	905	1	4	0	56	17	0	0	100
fixed	2	2	6	217128	6	4	4	1	0	788	1	4	0	64	18	0	0	100
fixed	2	2	7	218515	3	1	1	1	0	802	1	4	0	40	19	0	0	100
fixed	2	2	8	220153	2	3	3	1	0	876	1	4	0	56	20	0	0	100
fixed	2	2	9	221862	3	2	2	1	0	476	1	4	0	48	21	0	0	100
fixed	2	2	10	222991	1	4	4	1	0	756	1	4	0	64	22	0	0	100
fixed	2	2	11	224227	5	2	2	1	0	1032	1	4	0	48	23	0	0	100
fixed	2	2	12	226127	4	3	3	1	0	847	1	4	0	56	24	0	0	100
fixed	2	3	1	227843	4	1	1	1	0	878	1	4	0	40	25	0	0	100
fixed	2	3	2	229548	1	2	2	1	0	1062	1	4	0	48	26	0	0	100
fixed	2	3	3	231260	6	4	4	1	0	822	1	4	0	64	27	0	0	100
fixed	2	3	4	232393	2	1	1	1	0	958	1	4	0	40	28	0	0	100
fixed	2	3	5	234302	5	3	3	1	0	1101	1	4	0	56	29	0	0	100
fixed	2	3	6	235789	6	4	4	1	0	1214	1	4	0	64	30	0	0	100
fixed	2	3	7	237778	3	1	1	1	0	1018	1	4	0	40	31	0	0	100
fixed	2	3	8	239629	2	3	3	1	0	843	1	4	0	56	32	0	0	100
fixed	2	3	9	241267	3	2	2	1	0	542	1	4	0	48	33	0	0	100
fixed	2	3	10	242452	1	4	4	1	0	756	1	4	0	64	34	0	0	100
fixed	2	3	11	243630	5	2	2	1	0	1113	1	4	0	48	35	0	0	100
fixed	2	3	12	245775	4	3	3	1	0	831	1	4	0	56	36	0	0	100
fixed	2	4	1	247274	4	1	1	1	0	999	1	4	0	40	37	0	0	100
fixed	2	4	2	249213	1	2	2	1	0	1181	1	4	0	48	38	0	0	100
fixed	2	4	3	251017	6	4	4	1	0	697	1	4	0	64	39	0	0	100
fixed	2	4	4	252276	2	1	1	1	0	764	1	4	0	40	40	0	0	100
fixed	2	4	5	253908	5	3	3	1	0	822	1	4	0	56	41	0	0	100
fixed	2	4	6	255406	6	4	4	1	0	831	1	4	0	64	42	0	0	100
fixed	2	4	7	257124	3	1	1	1	0	806	1	4	0	40	43	0	0	100
fixed	2	4	8	258741	2	3	3	1	0	1026	1	4	0	56	44	0	0	100
fixed	2	4	9	260733	3	2	2	1	0	822	1	4	0	48	45	0	0	100
fixed	2	4	10	262490	1	4	4	1	0	635	1	4	0	64	46	0	0	100
fixed	2	4	11	263522	5	2	2	1	0	999	1	4	0	48	47	0	0	100
fixed	2	4	12	265192	4	3	3	1	0	889	1	4	0	56	48	0	0	100
fixed	2	5	1	267089	4	1	1	1	0	808	1	4	0	40	49	0	0	100
fixed	2	5	2	268468	1	2	2	1	0	1086	1	4	0	48	50	0	0	100
fixed	2	5	3	269997	6	4	4	1	0	869	1	4	0	64	51	0	0	100
fixed	2	5	4	271503	2	1	1	1	0	813	1	4	0	40	52	0	0	100
fixed	2	5	5	272994	5	3	3	1	0	910	1	4	0	56	53	0	0	100
fixed	2	5	6	274225	6	4	4	1	0	930	1	4	0	64	54	0	0	100
fixed	2	5	7	276099	3	1	1	1	0	850	1	4	0	40	55	0	0	100
fixed	2	5	8	277649	2	3	3	1	0	977	1	4	0	56	56	0	0	100
fixed	2	5	9	279053	3	2	2	1	0	757	1	4	0	48	57	0	0	100
fixed	2	5	10	280821	1	4	4	1	0	794	1	4	0	64	58	0	0	100
fixed	2	5	11	282084	5	2	2	1	0	973	1	4	0	48	59	0	0	100
fixed	2	5	12	283696	4	3	3	1	0	825	1	4	0	56	60	0	0	100
fixed	2	6	1	285250	4	1	1	1	0	695	1	4	0	40	61	0	0	100
fixed	2	6	2	286410	1	2	2	1	0	1182	1	4	0	48	62	0	0	100
fixed	2	6	3	287944	6	4	4	1	0	797	1	4	0	64	63	0	0	100
fixed	2	6	4	289258	2	1	1	1	0	837	1	4	0	40	64	0	0	100
fixed	2	6	5	290594	5	3	3	1	0	1132	1	4	0	56	65	0	0	100
fixed	2	6	6	292368	6	4	4	1	0	713	1	4	0	64	66	0	0	100
fixed	2	6	7	293809	3	1	1	1	0	1020	1	4	0	40	67	0	0	100
fixed	2	6	8	295718	2	3	3	1	0	692	1	4	0	56	68	0	0	100
fixed	2	6	9	297092	3	2	2	1	0	442	1	4	0	48	69	0	0	100
fixed	2	6	10	298022	1	4	4	1	0	618	1	4	0	64	70	0	0	100
fixed	2	6	11	299285	5	2	2	1	0	876	1	4	0	48	71	0	0	100
fixed	2	6	12	301039	4	3	3	1	0	890	1	4	0	56	72	0	0	100
fixed	2	7	1	302576	4	1	1	1	0	769	1	4	0	40	73	0	0	100
fixed	2	7	2	303762	1	2	2	1	0	1151	1	4	0	48	74	0	0	100
fixed	2	7	3	305829	6	4	4	1	0	816	1	4	0	64	75	0	0	100
fixed	2	7	4	307575	2	1	1	1	0	933	1	4	0	40	76	0	0	100
fixed	2	7	5	308880	5	3	3	1	0	1222	1	4	0	56	77	0	0	100
fixed	2	7	6	311103	6	4	4	1	0	776	1	4	0	64	78	0	0	100
fixed	2	7	7	312256	3	1	1	1	0	807	1	4	0	40	79	0	0	100
fixed	2	7	8	313963	2	3	3	1	0	879	1	4	0	56	80	0	0	100
fixed	2	7	9	315180	3	2	2	1	0	579	1	4	0	48	81	0	0	100
fixed	2	7	10	316191	1	4	4	1	0	688	1	4	0	64	82	0	0	100
fixed	2	7	11	317268	5	2	2	1	0	1003	1	4	0	48	83	0	0	100
fixed	2	7	12	318862	4	3	3	1	0	984	1	4	0	56	84	0	0	100
fixed	2	8	1	320838	4	1	1	1	0	971	1	4	0	40	85	0	0	100
fixed	2	8	2	322397	1	2	2	1	0	1226	1	4	0	48	86	0	0	100
fixed	2	8	3	324132	6	4	4	1	0	664	1	4	0	64	87	0	0	100
fixed	2	8	4	325663	2	1	1	1	0	823	1	4	0	40	88	0	0	100
fixed	2	8	5	327041	5	3	3	1	0	933	1	4	0	56	89	0	0	100
fixed	2	8	6	328307	6	4	4	1	0	967	1	4	0	64	90	0	0	100
fixed	2	8	7	329805	3	1	1	1	0	744	1	4	0	40	91	0	0	100
fixed	2	8	8	331226	2	3	3	1	0	660	1	4	0	56	92	0	0	100
fixed	2	8	9	332225	3	2	2	1	0	569	1	4	0	48	93	0	0	100
fixed	2	8	10	333397	1	4	4	1	0	608	1	4	0	64	94	0	0	100
fixed	2	8	11	334477	5	2	2	1	0	1050	1	4	0	48	95	0	0	100
fixed	2	8	12	336543	4	3	3	1	0	834	1	4	0	56	96	0	0	100
fixed	2	9	1	338180	4	1	1	1	0	773	1	4	0	40	97	0	0	100
fixed	2	9	2	339495	1	2	2	1	0	1318	1	4	0	48	98	0	0	100
fixed	2	9	3	341390	6	4	4	1	0	589	1	4	0	64	99	0	0	100
fixed	2	9	4	343014	2	1	1	1	0	872	1	4	0	40	100	0	0	100
fixed	2	9	5	344781	5	3	3	1	0	1157	1	4	0	56	101	0	0	100
fixed	2	9	6	346835	6	4	4	1	0	478	1	4	0	64	102	0	0	100
fixed	2	9	7	348092	3	1	1	1	0	665	1	4	0	40	103	0	0	100
fixed	2	9	8	349135	2	3	3	1	0	1301	1	4	0	56	104	0	0	100
fixed	2	9	9	351084	3	2	2	1	0	899	1	4	0	48	105	0	0	100
fixed	2	9	10	352974	1	4	4	1	0	635	1	4	0	64	106	0	0	100
fixed	2	9	11	354619	5	2	2	1	0	1301	1	4	0	48	107	0	0	100
fixed	2	9	12	356715	4	3	3	1	0	852	1	4	0	56	108	0	0	100
fixed	2	10	1	358547	4	1	1	1	0	870	1	4	0	40	109	0	0	100
fixed	2	10	2	359849	1	2	2	1	0	1103	1	4	0	48	110	0	0	100
fixed	2	10	3	361495	6	4	4	1	0	794	1	4	0	64	111	0	0	100
fixed	2	10	4	362854	2	1	1	1	0	1048	1	4	0	40	112	0	0	100
fixed	2	10	5	364660	5	3	3	1	0	979	1	4	0	56	113	0	0	100
fixed	2	10	6	366244	6	4	4	1	0	753	1	4	0	64	114	0	0	100
fixed	2	10	7	368020	3	1	1	1	0	709	1	4	0	40	115	0	0	100
fixed	2	10	8	369300	2	3	3	1	0	903	1	4	0	56	116	0	0	100
fixed	2	10	9	370922	3	2	2	1	0	699	1	4	0	48	117	0	0	100
fixed	2	10	10	371939	1	4	4	1	0	727	1	4	0	64	118	0	0	100
fixed	2	10	11	373271	5	2	2	1	0	951	1	4	0	48	119	0	0	100
fixed	2	10	12	374906	4	3	3	1	0	705	1	4	0	56	120	0	0	100
fixed	3	1	1	376923	4	1	1	1	0	580	1	4	0	72	1	0	0	100
fixed	3	1	2	378066	1	2	2	1	0	1428	1	4	0	80	2	0	0	100
fixed	3	1	3	379788	6	4	4	1	0	707	1	4	0	96	3	0	0	100
fixed	3	1	4	381432	2	1	1	1	0	1141	1	4	0	72	4	0	0	100
fixed	3	1	5	383384	5	3	3	1	0	1219	1	4	0	88	5	0	0	100
fixed	3	1	6	385304	6	4	4	1	0	817	1	4	0	96	6	0	0	100
fixed	3	1	7	386741	3	1	1	1	0	628	1	4	0	72	7	0	0	100
fixed	3	1	8	387704	2	3	3	1	0	907	1	4	0	88	8	0	0	100
fixed	3	1	9	389522	3	2	2	1	0	398	1	4	0	80	9	0	0	100
fixed	3	1	10	390347	1	4	4	1	0	492	1	4	0	96	10	0	0	100
fixed	3	1	11	391166	5	2	2	1	0	1089	1	4	0	80	11	0	0	100
fixed	3	1	12	392923	4	3	3	1	0	959	1	4	0	88	12	0	0	100
fixed	3	2	1	394485	4	1	1	1	0	732	1	4	0	72	13	0	0	100
fixed	3	2	2	395776	1	2	2	1	0	1222	1	4	0	80	14	0	0	100
fixed	3	2	3	397373	6	4	4	1	0	802	1	4	0	96	15	0	0	100
fixed	3	2	4	398812	2	1	1	1	0	773	1	4	0	72	16	0	0	100
fixed	3	2	5	399945	5	3	3	1	0	1021	1	4	0	88	17	0	0	100
fixed	3	2	6	401614	6	4	4	1	0	959	1	4	0	96	18	0	0	100
fixed	3	2	7	403354	3	1	1	1	0	684	1	4	0	72	19	0	0	100
fixed	3	2	8	404587	2	3	3	1	0	1065	1	4	0	88	20	0	0	100
fixed	3	2	9	406606	3	2	2	1	0	515	1	4	0	80	21	0	0	100
fixed	3	2	10	407545	1	4	4	1	0	635	1	4	0	96	22	0	0	100
fixed	3	2	11	409173	5	2	2	1	0	1270	1	4	0	80	23	0	0	100
fixed	3	2	12	410869	4	3	3	1	0	751	1	4	0	88	24	0	0	100
fixed	3	3	1	412279	4	1	1	1	0	778	1	4	0	72	25	0	0	100
fixed	3	3	2	413939	1	2	2	1	0	1012	1	4	0	80	26	0	0	100
fixed	3	3	3	415360	6	4	4	1	0	640	1	4	0	96	27	0	0	100
fixed	3	3	4	416309	2	1	1	1	0	856	1	4	0	72	28	0	0	100
fixed	3	3	5	418085	5	3	3	1	0	1165	1	4	0	88	29	0	0	100
fixed	3	3	6	419630	6	4	4	1	0	811	1	4	0	96	30	0	0	100
fixed	3	3	7	420906	3	1	1	1	0	861	1	4	0	72	31	0	0	100
fixed	3	3	8	422540	2	3	3	1	0	872	1	4	0	88	32	0	0	100
fixed	3	3	9	424036	3	2	2	1	0	409	1	4	0	80	33	0	0	100
fixed	3	3	10	425476	1	4	4	1	0	371	1	4	0	96	34	0	0	100
fixed	3	3	11	426894	5	2	2	1	0	944	1	4	0	80	35	0	0	100
fixed	3	3	12	428280	4	3	3	1	0	453	1	4	0	88	36	0	0	100
fixed	3	4	1	429805	4	1	1	1	0	932	1	4	0	72	37	0	0	100
fixed	3	4	2	431599	1	2	2	1	0	1080	1	4	0	80	38	0	0	100
fixed	3	4	3	433161	6	4	4	1	0	558	1	4	0	96	39	0	0	100
fixed	3	4	4	434058	2	1	1	1	0	1032	1	4	0	72	40	0	0	100
fixed	3	4	5	435533	5	3	3	1	0	497	1	4	0	88	41	0	0	100
fixed	3	4	6	436871	6	4	4	1	0	441	1	4	0	96	42	0	0	100
fixed	3	4	7	437938	3	1	1	1	0	660	1	4	0	72	43	0	0	100
fixed	3	4	8	439389	2	3	3	1	0	855	1	4	0	88	44	0	0	100
fixed	3	4	9	440927	3	2	2	1	0	838	1	4	0	80	45	0	0	100
fixed	3	4	10	442717	1	4	4	1	0	618	1	4	0	96	46	0	0	100
fixed	3	4	11	444145	5	2	2	1	0	1045	1	4	0	80	47	0	0	100
fixed	3	4	12	446202	4	3	3	1	0	446	1	4	0	88	48	0	0	100
fixed	3	5	1	447398	4	1	1	1	0	747	1	4	0	72	49	0	0	100
fixed	3	5	2	449051	1	2	2	1	0	1157	1	4	0	80	50	0	0	100
fixed	3	5	3	451232	6	4	4	1	0	441	1	4	0	96	51	0	0	100
fixed	3	5	4	452185	2	1	1	1	0	1209	1	4	0	72	52	0	0	100
fixed	3	5	5	453979	5	3	3	1	0	1116	1	4	0	88	53	0	0	100
fixed	3	5	6	456033	6	4	4	1	0	645	1	4	0	96	54	0	0	100
fixed	3	5	7	457294	3	1	1	1	0	720	1	4	0	72	55	0	0	100
fixed	3	5	8	458932	2	3	3	1	0	819	1	4	0	88	56	0	0	100
fixed	3	5	9	460436	3	2	2	1	0	547	1	4	0	80	57	0	0	100
fixed	3	5	10	461858	1	4	4	1	0	647	1	4	0	96	58	0	0	100
fixed	3	5	11	463235	5	2	2	1	0	980	1	4	0	80	59	0	0	100
fixed	3	5	12	464670	4	3	3	1	0	592	1	4	0	88	60	0	0	100
fixed	3	6	1	465810	4	1	1	1	0	967	1	4	0	72	61	0	0	100
fixed	3	6	2	467168	1	2	2	1	0	1078	1	4	0	80	62	0	0	100
fixed	3	6	3	468693	6	4	4	1	0	693	1	4	0	96	63	0	0	100
fixed	3	6	4	470028	2	1	1	1	0	725	1	4	0	72	64	0	0	100
fixed	3	6	5	471174	5	3	3	1	0	868	1	4	0	88	65	0	0	100
fixed	3	6	6	473071	6	4	4	1	0	436	1	4	0	96	66	0	0	100
fixed	3	6	7	473908	3	1	1	1	0	665	1	4	0	72	67	0	0	100
fixed	3	6	8	475069	2	3	3	1	0	863	1	4	0	88	68	0	0	100
fixed	3	6	9	476517	3	2	2	1	0	490	1	4	0	80	69	0	0	100
fixed	3	6	10	477682	1	4	4	1	0	633	1	4	0	96	70	0	0	100
fixed	3	6	11	479180	5	2	2	1	0	985	1	4	0	80	71	0	0	100
fixed	3	6	12	480639	4	3	3	1	0	827	1	4	0	88	72	0	0	100
fixed	3	7	1	482417	4	1	1	1	0	712	1	4	0	72	73	0	0	100
fixed	3	7	2	484016	1	2	2	1	0	997	1	4	0	80	74	0	0	100
fixed	3	7	3	485717	6	4	4	1	0	388	1	4	0	96	75	0	0	100
fixed	3	7	4	486622	2	1	1	1	0	814	1	4	0	72	76	0	0	100
fixed	3	7	5	488337	5	3	3	1	0	493	1	4	0	88	77	0	0	100
fixed	3	7	6	489557	6	4	4	1	0	490	1	4	0	96	78	0	0	100
fixed	3	7	7	490753	3	1	1	1	0	687	1	4	0	72	79	0	0	100
fixed	3	7	8	492299	2	3	3	1	0	1294	1	4	0	88	80	0	0	100
fixed	3	7	9	494212	3	2	2	1	0	476	1	4	0	80	81	0	0	100
fixed	3	7	10	495398	1	4	4	1	0	778	1	4	0	96	82	0	0	100
fixed	3	7	11	496560	5	2	2	1	0	1153	1	4	0	80	83	0	0	100
fixed	3	7	12	498599	4	3	3	1	0	1027	1	4	0	88	84	0	0	100
fixed	3	8	1	500762	4	1	1	1	0	695	1	4	0	72	85	0	0	100
fixed	3	8	2	501941	1	2	2	1	0	1141	1	4	0	80	86	0	0	100
fixed	3	8	3	503669	6	4	4	1	0	484	1	4	0	96	87	0	0	100
fixed	3	8	4	504971	2	1	1	1	0	660	1	4	0	72	88	0	0	100
fixed	3	8	5	506223	5	3	3	1	0	815	1	4	0	88	89	0	0	100
fixed	3	8	6	508059	6	4	4	1	0	386	1	4	0	96	90	0	0	100
fixed	3	8	7	509342	3	1	1	1	0	588	1	4	0	72	91	0	0	100
fixed	3	8	8	510760	2	3	3	1	0	848	1	4	0	88	92	0	0	100
fixed	3	8	9	511928	3	2	2	1	0	662	1	4	0	80	93	0	0	100
fixed	3	8	10	513091	1	4	4	1	0	621	1	4	0	96	94	0	0	100
fixed	3	8	11	514047	5	2	2	1	0	1052	1	4	0	80	95	0	0	100
fixed	3	8	12	515560	4	3	3	1	0	596	1	4	0	88	96	0	0	100
fixed	3	9	1	516952	4	1	1	1	0	961	1	4	0	72	97	0	0	100
fixed	3	9	2	518811	1	2	2	1	0	994	1	4	0	80	98	0	0	100
fixed	3	9	3	520434	6	4	4	1	0	774	1	4	0	96	99	0	0	100
fixed	3	9	4	521726	2	1	1	1	0	671	1	4	0	72	100	0	0	100
fixed	3	9	5	523281	5	3	3	1	0	942	1	4	0	88	101	0	0	100
fixed	3	9	6	525061	6	4	4	1	0	906	1	4	0	96	102	0	0	100
fixed	3	9	7	526381	3	1	1	1	0	682	1	4	0	72	103	0	0	100
fixed	3	9	8	527993	2	3	3	1	0	941	1	4	0	88	104	0	0	100
fixed	3	9	9	529866	3	2	2	1	0	430	1	4	0	80	105	0	0	100
fixed	3	9	10	531044	1	4	4	1	0	420	1	4	0	96	106	0	0	100
fixed	3	9	11	531852	5	2	2	1	0	907	1	4	0	80	107	0	0	100
fixed	3	9	12	533092	4	3	3	1	0	565	1	4	0	88	108	0	0	100
fixed	3	10	1	534746	4	1	1	1	0	439	1	4	0	72	109	0	0	100
fixed	3	10	2	535907	1	2	2	1	0	975	1	4	0	80	110	0	0	100
fixed	3	10	3	537196	6	4	4	1	0	624	1	4	0	96	111	0	0	100
fixed	3	10	4	538123	2	1	1	1	0	784	1	4	0	72	112	0	0	100
fixed	3	10	5	539631	5	3	3	1	0	425	1	4	0	88	113	0	0	100
fixed	3	10	6	540399	6	4	4	1	0	920	1	4	0	96	114	0	0	100
fixed	3	10	7	541810	3	1	1	1	0	636	1	4	0	72	115	0	0	100
fixed	3	10	8	543240	2	3	3	1	0	896	1	4	0	88	116	0	0	100
fixed	3	10	9	544715	3	2	2	1	0	522	1	4	0	80	117	0	0	100
fixed	3	10	10	545775	1	4	4	1	0	644	1	4	0	96	118	0	0	100
fixed	3	10	11	547054	5	2	2	1	0	871	1	4	0	80	119	0	0	100
fixed	3	10	12	548333	4	3	3	1	0	432	1	4	0	88	120	0	0	100
fixed	4	1	1	665046	4	1	1	1	0	896	1	4	0	104	1	0	0	100
fixed	4	1	2	666492	1	2	2	1	0	980	1	4	0	112	2	0	0	100
fixed	4	1	3	667854	6	4	4	1	0	562	1	4	0	128	3	0	0	100
fixed	4	1	4	669180	2	1	1	1	0	722	1	4	0	104	4	0	0	100
fixed	4	1	5	670532	5	3	3	1	0	736	1	4	0	120	5	0	0	100
fixed	4	1	6	671851	6	4	4	1	0	456	1	4	0	128	6	0	0	100
fixed	4	1	7	673221	3	1	1	1	0	486	1	4	0	104	7	0	0	100
fixed	4	1	8	674640	2	3	3	1	0	818	1	4	0	120	8	0	0	100
fixed	4	1	9	676020	3	2	2	1	0	520	1	4	0	112	9	0	0	100
fixed	4	1	10	676834	1	4	4	1	0	670	1	4	0	128	10	0	0	100
fixed	4	1	11	677844	5	2	2	1	0	898	1	4	0	112	11	0	0	100
fixed	4	1	12	679183	4	3	3	1	0	442	1	4	0	120	12	0	0	100
fixed	4	2	1	680871	4	1	1	1	0	730	1	4	0	104	13	0	0	100
fixed	4	2	2	682613	1	2	2	1	0	961	1	4	0	112	14	0	0	100
fixed	4	2	3	684319	6	4	4	1	0	393	1	4	0	128	15	0	0	100
fixed	4	2	4	685283	2	1	1	1	0	743	1	4	0	104	16	0	0	100
fixed	4	2	5	686616	5	3	3	1	0	431	1	4	0	120	17	0	0	100
fixed	4	2	6	687990	6	4	4	1	0	373	1	4	0	128	18	0	0	100
fixed	4	2	7	688847	3	1	1	1	0	833	1	4	0	104	19	0	0	100
fixed	4	2	8	690563	2	3	3	1	0	808	1	4	0	120	20	0	0	100
fixed	4	2	9	692169	3	2	2	1	0	324	1	4	0	112	21	0	0	100
fixed	4	2	10	693072	1	4	4	1	0	470	1	4	0	128	22	0	0	100
fixed	4	2	11	693978	5	2	2	1	0	912	1	4	0	112	23	0	0	100
fixed	4	2	12	695640	4	3	3	1	0	865	1	4	0	120	24	0	0	100
fixed	4	3	1	697244	4	1	1	1	0	653	1	4	0	104	25	0	0	100
fixed	4	3	2	698672	1	2	2	1	0	625	1	4	0	112	26	0	0	100
fixed	4	3	3	700204	6	4	4	1	0	376	1	4	0	128	27	0	0	100
fixed	4	3	4	700920	2	1	1	1	0	881	1	4	0	104	28	0	0	100
fixed	4	3	5	702670	5	3	3	1	0	624	1	4	0	120	29	0	0	100
fixed	4	3	6	704241	6	4	4	1	0	325	1	4	0	128	30	0	0	100
fixed	4	3	7	705009	3	1	1	1	0	692	1	4	0	104	31	0	0	100
fixed	4	3	8	706523	2	3	3	1	0	540	1	4	0	120	32	0	0	100
fixed	4	3	9	707935	3	2	2	1	0	328	1	4	0	112	33	0	0	100
fixed	4	3	10	709016	1	4	4	1	0	403	1	4	0	128	34	0	0	100
fixed	4	3	11	709812	5	2	2	1	0	865	1	4	0	112	35	0	0	100
fixed	4	3	12	711020	4	3	3	1	0	550	1	4	0	120	36	0	0	100
fixed	4	4	1	712398	4	1	1	1	0	1011	1	4	0	104	37	0	0	100
fixed	4	4	2	713776	1	2	0	1	2	0	3	4	0	112	37	0	1	97
fixed	4	4	3	717238	6	4	4	1	0	542	1	4	0	128	38	0	1	97
fixed	4	4	4	718571	2	1	1	1	0	686	1	4	0	104	39	0	1	98
fixed	4	4	5	720068	5	3	3	1	0	694	1	4	0	120	40	0	1	98
fixed	4	4	6	721463	6	4	4	1	0	396	1	4	0	128	41	0	1	98
fixed	4	4	7	722281	3	1	1	1	0	649	1	4	0	104	42	0	1	98
fixed	4	4	8	723593	2	3	3	1	0	697	1	4	0	120	43	0	1	98
fixed	4	4	9	724727	3	2	2	1	0	569	1	4	0	112	44	0	1	98
fixed	4	4	10	726143	1	4	4	1	0	365	1	4	0	128	45	0	1	98
fixed	4	4	11	727507	5	2	2	1	0	803	1	4	0	112	46	0	1	98
fixed	4	4	12	729037	4	3	3	1	0	330	1	4	0	120	47	0	1	98
fixed	4	5	1	730492	4	1	1	1	0	653	1	4	0	104	48	0	1	98
fixed	4	5	2	732114	1	2	0	1	2	0	3	4	0	112	48	0	2	96
fixed	4	5	3	735023	6	4	4	1	0	557	1	4	0	128	49	0	2	96
fixed	4	5	4	736412	2	1	1	1	0	794	1	4	0	104	50	0	2	96
fixed	4	5	5	737941	5	3	3	1	0	754	1	4	0	120	51	0	2	96
fixed	4	5	6	739169	6	4	4	1	0	901	1	4	0	128	52	0	2	96
fixed	4	5	7	740666	3	1	1	1	0	638	1	4	0	104	53	0	2	96
fixed	4	5	8	741671	2	3	3	1	0	619	1	4	0	120	54	0	2	96
fixed	4	5	9	742606	3	2	2	1	0	660	1	4	0	112	55	0	2	96
fixed	4	5	10	744095	1	4	4	1	0	437	1	4	0	128	56	0	2	97
fixed	4	5	11	745030	5	2	2	1	0	941	1	4	0	112	57	0	2	97
fixed	4	5	12	746862	4	3	3	1	0	408	1	4	0	120	58	0	2	97
fixed	4	6	1	748169	4	1	1	1	0	584	1	4	0	104	59	0	2	97
fixed	4	6	2	749711	1	2	2	1	0	999	1	4	0	112	60	0	2	97
fixed	4	6	3	751531	6	4	4	1	0	626	1	4	0	128	61	0	2	97
fixed	4	6	4	752541	2	1	1	1	0	1095	1	4	0	104	62	0	2	97
fixed	4	6	5	754399	5	3	3	1	0	624	1	4	0	120	63	0	2	97
fixed	4	6	6	755541	6	4	4	1	0	464	1	4	0	128	64	0	2	97
fixed	4	6	7	756410	3	1	1	1	0	723	1	4	0	104	65	0	2	97
fixed	4	6	8	758115	2	3	3	1	0	1419	1	4	0	120	66	0	2	97
fixed	4	6	9	760320	3	2	2	1	0	381	1	4	0	112	67	0	2	97
fixed	4	6	10	761090	1	4	4	1	0	645	1	4	0	128	68	0	2	97
fixed	4	6	11	762335	5	2	2	1	0	648	1	4	0	112	69	0	2	97
fixed	4	6	12	763676	4	3	3	1	0	359	1	4	0	120	70	0	2	97
fixed	4	7	1	765010	4	1	1	1	0	607	1	4	0	104	71	0	2	97
fixed	4	7	2	766532	1	2	2	1	0	854	1	4	0	112	72	0	2	97
fixed	4	7	3	767872	6	4	4	1	0	430	1	4	0	128	73	0	2	97
fixed	4	7	4	769250	2	1	1	1	0	580	1	4	0	104	74	0	2	97
fixed	4	7	5	770802	5	3	3	1	0	690	1	4	0	120	75	0	2	97
fixed	4	7	6	771971	6	4	4	1	0	528	1	4	0	128	76	0	2	97
fixed	4	7	7	772796	3	1	1	1	0	1213	1	4	0	104	77	0	2	97
fixed	4	7	8	774756	2	3	3	1	0	778	1	4	0	120	78	0	2	98
fixed	4	7	9	776351	3	2	2	1	0	447	1	4	0	112	79	0	2	98
fixed	4	7	10	777632	1	4	4	1	0	448	1	4	0	128	80	0	2	98
fixed	4	7	11	778602	5	2	2	1	0	655	1	4	0	112	81	0	2	98
fixed	4	7	12	779558	4	3	3	1	0	551	1	4	0	120	82	0	2	98
fixed	4	8	1	781200	4	1	1	1	0	545	1	4	0	104	83	0	2	98
fixed	4	8	2	782613	1	2	2	1	0	1045	1	4	0	112	84	0	2	98
fixed	4	8	3	784359	6	4	4	1	0	363	1	4	0	128	85	0	2	98
fixed	4	8	4	785639	2	1	1	1	0	821	1	4	0	104	86	0	2	98
fixed	4	8	5	786857	5	3	3	1	0	538	1	4	0	120	87	0	2	98
fixed	4	8	6	788007	6	4	4	1	0	393	1	4	0	128	88	0	2	98
fixed	4	8	7	788735	3	1	1	1	0	666	1	4	0	104	89	0	2	98
fixed	4	8	8	789808	2	3	3	1	0	1236	1	4	0	120	90	0	2	98
fixed	4	8	9	791732	3	2	2	1	0	347	1	4	0	112	91	0	2	98
fixed	4	8	10	792691	1	4	4	1	0	395	1	4	0	128	92	0	2	98
fixed	4	8	11	793515	5	2	2	1	0	807	1	4	0	112	93	0	2	98
fixed	4	8	12	795171	4	3	3	1	0	401	1	4	0	120	94	0	2	98
fixed	4	9	1	796204	4	1	1	1	0	669	1	4	0	104	95	0	2	98
fixed	4	9	2	797387	1	2	2	1	0	772	1	4	0	112	96	0	2	98
fixed	4	9	3	798537	6	4	4	1	0	547	1	4	0	128	97	0	2	98
fixed	4	9	4	800001	2	1	1	1	0	629	1	4	0	104	98	0	2	98
fixed	4	9	5	801118	5	3	3	1	0	669	1	4	0	120	99	0	2	98
fixed	4	9	6	802756	6	4	4	1	0	152	1	4	0	128	100	0	2	98
fixed	4	9	7	803606	3	1	1	1	0	668	1	4	0	104	101	0	2	98
fixed	4	9	8	804905	2	3	3	1	0	1045	1	4	0	120	102	0	2	98
fixed	4	9	9	806935	3	2	2	1	0	487	1	4	0	112	103	0	2	98
fixed	4	9	10	807958	1	4	4	1	0	556	1	4	0	128	104	0	2	98
fixed	4	9	11	809546	5	2	2	1	0	529	1	4	0	112	105	0	2	98
fixed	4	9	12	810427	4	3	3	1	0	491	1	4	0	120	106	0	2	98
fixed	4	10	1	811992	4	1	1	1	0	889	1	4	0	104	107	0	2	98
fixed	4	10	2	813459	1	2	2	1	0	979	1	4	0	112	108	0	2	98
fixed	4	10	3	814961	6	4	4	1	0	459	1	4	0	128	109	0	2	98
fixed	4	10	4	815960	2	1	1	1	0	681	1	4	0	104	110	0	2	98
fixed	4	10	5	817656	5	3	3	1	0	721	1	4	0	120	111	0	2	98
fixed	4	10	6	818854	6	4	4	1	0	735	1	4	0	128	112	0	2	98
fixed	4	10	7	819988	3	1	1	1	0	646	1	4	0	104	113	0	2	98
fixed	4	10	8	821178	2	3	3	1	0	772	1	4	0	120	114	0	2	98
fixed	4	10	9	822283	3	2	2	1	0	541	1	4	0	112	115	0	2	98
fixed	4	10	10	823512	1	4	4	1	0	353	1	4	0	128	116	0	2	98
fixed	4	10	11	824680	5	2	2	1	0	824	1	4	0	112	117	0	2	98
fixed	4	10	12	826511	4	3	3	1	0	394	1	4	0	120	118	0	2	98
fixed	5	1	1	828146	4	1	1	1	0	605	1	4	0	136	1	0	0	100
fixed	5	1	2	829762	1	2	2	1	0	872	1	4	0	144	2	0	0	100
fixed	5	1	3	831565	6	4	4	1	0	356	1	4	0	160	3	0	0	100
fixed	5	1	4	832874	2	1	1	1	0	645	1	4	0	136	4	0	0	100
fixed	5	1	5	834509	5	3	3	1	0	832	1	4	0	152	5	0	0	100
fixed	5	1	6	836118	6	4	4	1	0	499	1	4	0	160	6	0	0	100
fixed	5	1	7	837613	3	1	1	1	0	780	1	4	0	136	7	0	0	100
fixed	5	1	8	839338	2	3	3	1	0	827	1	4	0	152	8	0	0	100
fixed	5	1	9	841184	3	2	2	1	0	324	1	4	0	144	9	0	0	100
fixed	5	1	10	841985	1	4	4	1	0	490	1	4	0	160	10	0	0	100
fixed	5	1	11	843448	5	2	2	1	0	933	1	4	0	144	11	0	0	100
fixed	5	1	12	845079	4	3	3	1	0	448	1	4	0	152	12	0	0	100
fixed	5	2	1	846544	4	1	1	1	0	569	1	4	0	136	13	0	0	100
fixed	5	2	2	847804	1	2	2	1	0	740	1	4	0	144	14	0	0	100
fixed	5	2	3	849170	6	4	4	1	0	314	1	4	0	160	15	0	0	100
fixed	5	2	4	850472	2	1	1	1	0	642	1	4	0	136	16	0	0	100
fixed	5	2	5	851600	5	3	3	1	0	484	1	4	0	152	17	0	0	100
fixed	5	2	6	852765	6	4	4	1	0	362	1	4	0	160	18	0	0	100
fixed	5	2	7	854037	3	1	1	1	0	540	1	4	0	136	19	0	0	100
fixed	5	2	8	855186	2	3	3	1	0	555	1	4	0	152	20	0	0	100
fixed	5	2	9	856528	3	2	2	1	0	379	1	4	0	144	21	0	0	100
fixed	5	2	10	857543	1	4	4	1	0	392	1	4	0	160	22	0	0	100
fixed	5	2	11	858520	5	2	2	1	0	878	1	4	0	144	23	0	0	100
fixed	5	2	12	860386	4	3	3	1	0	239	1	4	0	152	24	0	0	100
fixed	5	3	1	861330	4	1	1	1	0	751	1	4	0	136	25	0	0	100
fixed	5	3	2	862596	1	2	2	2	0	1946	2	4	0	144	26	0	0	100
fixed	5	3	3	865564	6	4	4	1	0	1948	1	4	0	160	27	0	0	100
fixed	5	3	4	868012	2	1	1	1	0	764	1	4	0	136	28	0	0	100
fixed	5	3	5	869356	5	3	3	1	0	1219	1	4	0	152	29	0	0	100
fixed	5	3	6	871067	6	4	4	1	0	579	1	4	0	160	30	0	0	100
fixed	5	3	7	872379	3	1	1	1	0	1267	1	4	0	136	31	0	0	100
fixed	5	3	8	874472	2	3	3	1	0	867	1	4	0	152	32	0	0	100
fixed	5	3	9	875814	3	2	2	1	0	369	1	4	0	144	33	0	0	100
fixed	5	3	10	876849	1	4	4	1	0	646	1	4	0	160	34	0	0	100
fixed	5	3	11	877897	5	2	2	1	0	858	1	4	0	144	35	0	0	100
fixed	5	3	12	879107	4	3	3	1	0	486	1	4	0	152	36	0	0	100
fixed	5	4	1	880343	4	1	1	1	0	698	1	4	0	136	37	0	0	100
fixed	5	4	2	881733	1	2	2	1	0	487	1	4	0	144	38	0	0	100
fixed	5	4	3	882840	6	4	4	1	0	464	1	4	0	160	39	0	0	100
fixed	5	4	4	883885	2	1	1	1	0	812	1	4	0	136	40	0	0	100
fixed	5	4	5	885403	5	3	3	1	0	1003	1	4	0	152	41	0	0	100
fixed	5	4	6	887036	6	4	4	1	0	487	1	4	0	160	42	0	0	100
fixed	5	4	7	888421	3	1	1	1	0	772	1	4	0	136	43	0	0	100
fixed	5	4	8	889707	2	3	3	1	0	741	1	4	0	152	44	0	0	100
fixed	5	4	9	890985	3	2	2	1	0	399	1	4	0	144	45	0	0	100
fixed	5	4	10	892201	1	4	4	1	0	316	1	4	0	160	46	0	0	100
fixed	5	4	11	893491	5	2	2	1	0	437	1	4	0	144	47	0	0	100
fixed	5	4	12	894362	4	3	3	1	0	624	1	4	0	152	48	0	0	100
fixed	5	5	1	895881	4	1	1	1	0	824	1	4	0	136	49	0	0	100
fixed	5	5	2	897039	1	2	2	1	0	759	1	4	0	144	50	0	0	100
fixed	5	5	3	898285	6	4	4	1	0	482	1	4	0	160	51	0	0	100
fixed	5	5	4	899297	2	1	1	1	0	631	1	4	0	136	52	0	0	100
fixed	5	5	5	900954	5	3	3	1	0	465	1	4	0	152	53	0	0	100
fixed	5	5	6	902253	6	4	4	1	0	338	1	4	0	160	54	0	0	100
fixed	5	5	7	903421	3	1	1	1	0	561	1	4	0	136	55	0	0	100
fixed	5	5	8	904880	2	3	3	1	0	1011	1	4	0	152	56	0	0	100
fixed	5	5	9	906887	3	2	2	1	0	814	1	4	0	144	57	0	0	100
fixed	5	5	10	908211	1	4	4	1	0	517	1	4	0	160	58	0	0	100
fixed	5	5	11	909385	5	2	2	1	0	508	1	4	0	144	59	0	0	100
fixed	5	5	12	910930	4	3	3	1	0	275	1	4	0	152	60	0	0	100
fixed	5	6	1	911754	4	1	1	1	0	623	1	4	0	136	61	0	0	100
fixed	5	6	2	912759	1	2	2	1	0	1205	1	4	0	144	62	0	0	100
fixed	5	6	3	914558	6	4	4	1	0	457	1	4	0	160	63	0	0	100
fixed	5	6	4	915712	2	1	1	1	0	568	1	4	0	136	64	0	0	100
fixed	5	6	5	917191	5	3	3	1	0	361	1	4	0	152	65	0	0	100
fixed	5	6	6	918532	6	4	4	1	0	321	1	4	0	160	66	0	0	100
fixed	5	6	7	919674	3	1	1	1	0	528	1	4	0	136	67	0	0	100
fixed	5	6	8	921011	2	3	3	1	0	1175	1	4	0	152	68	0	0	100
fixed	5	6	9	923226	3	2	2	1	0	442	1	4	0	144	69	0	0	100
fixed	5	6	10	924453	1	4	4	1	0	454	1	4	0	160	70	0	0	100
fixed	5	6	11	925741	5	2	2	1	0	567	1	4	0	144	71	0	0	100
fixed	5	6	12	927013	4	3	3	1	0	401	1	4	0	152	72	0	0	100
fixed	5	7	1	928194	4	1	1	1	0	591	1	4	0	136	73	0	0	100
fixed	5	7	2	929564	1	2	2	1	0	877	1	4	0	144	74	0	0	100
fixed	5	7	3	930928	6	4	4	1	0	492	1	4	0	160	75	0	0	100
fixed	5	7	4	931921	2	1	1	1	0	801	1	4	0	136	76	0	0	100
fixed	5	7	5	933724	5	3	3	1	0	396	1	4	0	152	77	0	0	100
fixed	5	7	6	934893	6	4	4	1	0	387	1	4	0	160	78	0	0	100
fixed	5	7	7	935619	3	1	1	1	0	725	1	4	0	136	79	0	0	100
fixed	5	7	8	937361	2	3	3	1	0	755	1	4	0	152	80	0	0	100
fixed	5	7	9	939082	3	2	2	1	0	418	1	4	0	144	81	0	0	100
fixed	5	7	10	940423	1	4	4	1	0	457	1	4	0	160	82	0	0	100
fixed	5	7	11	941761	5	2	2	1	0	464	1	4	0	144	83	0	0	100
fixed	5	7	12	943254	4	3	3	1	0	401	1	4	0	152	84	0	0	100
fixed	5	8	1	944818	4	1	1	1	0	591	1	4	0	136	85	0	0	100
fixed	5	8	2	946421	1	2	2	1	0	915	1	4	0	144	86	0	0	100
fixed	5	8	3	947879	6	4	4	1	0	485	1	4	0	160	87	0	0	100
fixed	5	8	4	948897	2	1	1	1	0	770	1	4	0	136	88	0	0	100
fixed	5	8	5	950489	5	3	3	1	0	375	1	4	0	152	89	0	0	100
fixed	5	8	6	951614	6	4	4	1	0	424	1	4	0	160	90	0	0	100
fixed	5	8	7	952628	3	1	1	1	0	548	1	4	0	136	91	0	0	100
fixed	5	8	8	953975	2	3	3	1	0	643	1	4	0	152	92	0	0	100
fixed	5	8	9	955558	3	2	2	1	0	440	1	4	0	144	93	0	0	100
fixed	5	8	10	956753	1	4	4	1	0	406	1	4	0	160	94	0	0	100
fixed	5	8	11	957771	5	2	2	1	0	466	1	4	0	144	95	0	0	100
fixed	5	8	12	958529	4	3	3	1	0	627	1	4	0	152	96	0	0	100
fixed	5	9	1	960122	4	1	1	1	0	495	1	4	0	136	97	0	0	100
fixed	5	9	2	961348	1	2	2	1	0	1331	1	4	0	144	98	0	0	100
fixed	5	9	3	963154	6	4	4	1	0	431	1	4	0	160	99	0	0	100
fixed	5	9	4	964217	2	1	1	1	0	649	1	4	0	136	100	0	0	100
fixed	5	9	5	965718	5	3	3	1	0	394	1	4	0	152	101	0	0	100
fixed	5	9	6	966693	6	4	4	1	0	393	1	4	0	160	102	0	0	100
fixed	5	9	7	967957	3	1	1	1	0	627	1	4	0	136	103	0	0	100
fixed	5	9	8	969004	2	3	3	1	0	679	1	4	0	152	104	0	0	100
fixed	5	9	9	969977	3	2	2	1	0	557	1	4	0	144	105	0	0	100
fixed	5	9	10	971063	1	4	4	1	0	663	1	4	0	160	106	0	0	100
fixed	5	9	11	972090	5	2	2	1	0	884	1	4	0	144	107	0	0	100
fixed	5	9	12	973849	4	3	3	1	0	314	1	4	0	152	108	0	0	100
fixed	5	10	1	974775	4	1	1	1	0	594	1	4	0	136	109	0	0	100
fixed	5	10	2	975842	1	2	2	1	0	661	1	4	0	144	110	0	0	100
fixed	5	10	3	977016	6	4	4	1	0	443	1	4	0	160	111	0	0	100
fixed	5	10	4	978224	2	1	1	1	0	888	1	4	0	136	112	0	0	100
fixed	5	10	5	979641	5	3	3	1	0	548	1	4	0	152	113	0	0	100
fixed	5	10	6	980863	6	4	4	1	0	505	1	4	0	160	114	0	0	100
fixed	5	10	7	981745	3	1	1	1	0	731	1	4	0	136	115	0	0	100
fixed	5	10	8	983125	2	3	3	1	0	817	1	4	0	152	116	0	0	100
fixed	5	10	9	984282	3	2	2	1	0	535	1	4	0	144	117	0	0	100
fixed	5	10	10	985513	1	4	4	1	0	476	1	4	0	160	118	0	0	100
fixed	5	10	11	986991	5	2	2	1	0	445	1	4	0	144	119	0	0	100
fixed	5	10	12	988250	4	3	3	1	0	384	1	4	0	152	120	0	0	100
random	6	1	1	1154229	6	1	1	1	0	705	1	4	0	168	1	0	0	100
random	6	1	2	1155510	4	4	4	1	0	996	1	4	0	192	2	0	0	100
random	6	1	3	1156959	2	2	2	1	0	1078	1	4	0	176	3	0	0	100
random	6	1	4	1158698	3	3	3	1	0	748	1	4	0	184	4	0	0	100
random	6	1	5	1159806	5	2	2	1	0	1014	1	4	0	176	5	0	0	100
random	6	1	6	1161574	1	4	4	1	0	603	1	4	0	192	6	0	0	100
random	6	1	7	1162654	6	1	1	1	0	741	1	4	0	168	7	0	0	100
random	6	1	8	1163903	2	3	3	1	0	1048	1	4	0	184	8	0	0	100
random	6	1	9	1165916	4	2	2	1	0	739	1	4	0	176	9	0	0	100
random	6	1	10	1167073	1	1	1	1	0	906	1	4	0	168	10	0	0	100
random	6	1	11	1168644	5	4	4	1	0	695	1	4	0	192	11	0	0	100
random	6	1	12	1169881	3	3	3	1	0	595	1	4	0	184	12	0	0	100
random	6	1	13	1171424	5	2	2	1	0	1073	1	4	0	176	13	0	0	100
random	6	1	14	1172970	1	4	4	1	0	736	1	4	0	192	14	0	0	100
random	6	1	15	1174461	3	1	1	1	0	665	1	4	0	168	15	0	0	100
random	6	1	16	1176003	4	3	3	1	0	783	1	4	0	184	16	0	0	100
random	6	1	17	1177123	6	4	4	1	0	888	1	4	0	192	17	0	0	100
random	6	1	18	1178357	2	1	1	1	0	932	1	4	0	168	18	0	0	100
random	6	1	19	1180077	5	3	3	1	0	771	1	4	0	184	19	0	0	100
random	6	1	20	1181531	2	2	2	1	0	597	1	4	0	176	20	0	0	100
random	6	1	21	1183083	3	3	3	1	0	1012	1	4	0	184	21	0	0	100
random	6	1	22	1184982	6	1	1	1	0	811	1	4	0	168	22	0	0	100
random	6	1	23	1186467	4	2	2	1	0	884	1	4	0	176	23	0	0	100
random	6	1	24	1187782	1	4	4	1	0	620	1	4	0	192	24	0	0	100
random	6	1	25	1189535	4	3	3	1	0	1074	1	4	0	184	25	0	0	100
random	6	1	26	1191454	2	1	1	2	0	1193	2	4	0	168	26	0	0	100
random	6	1	27	1193093	5	2	2	1	0	939	1	4	0	176	27	0	0	100
random	6	1	28	1194624	6	4	4	1	0	891	1	4	0	192	28	0	0	100
random	6	1	29	1196322	1	3	3	1	0	939	1	4	0	184	29	0	0	100
random	6	1	30	1198051	5	2	2	1	0	818	1	4	0	176	30	0	0	100
random	6	1	31	1199265	2	1	1	1	0	902	1	4	0	168	31	0	0	100
random	6	1	32	1200687	3	3	3	1	0	954	1	4	0	184	32	0	0	100
random	6	1	33	1202055	6	4	4	1	0	760	1	4	0	192	33	0	0	100
random	6	1	34	1203623	4	2	2	1	0	870	1	4	0	176	34	0	0	100
random	6	1	35	1204789	3	4	4	1	0	884	1	4	0	192	35	0	0	100
random	6	1	36	1206291	1	1	1	1	0	700	1	4	0	168	36	0	0	100
random	6	1	37	1208181	3	4	4	1	0	996	1	4	0	192	37	0	0	100
random	6	1	38	1209650	5	3	3	1	0	990	1	4	0	184	38	0	0	100
random	6	1	39	1211006	6	1	1	1	0	821	1	4	0	168	39	0	0	100
random	6	1	40	1212864	1	2	2	1	0	670	1	4	0	176	40	0	0	100
random	6	1	41	1214001	2	3	3	1	0	934	1	4	0	184	41	0	0	100
random	6	1	42	1215216	4	4	4	1	0	850	1	4	0	192	42	0	0	100
random	6	1	43	1216573	1	2	2	1	0	953	1	4	0	176	43	0	0	100
random	6	1	44	1217834	6	3	3	1	0	860	1	4	0	184	44	0	0	100
random	6	1	45	1219711	3	1	1	1	0	900	1	4	0	168	45	0	0	100
random	6	1	46	1221310	4	4	4	1	0	656	1	4	0	192	46	0	0	100
random	6	1	47	1222364	2	2	2	1	0	908	1	4	0	176	47	0	0	100
random	6	1	48	1224059	5	1	1	1	0	812	1	4	0	168	48	0	0	100
random	6	1	49	1225707	2	3	3	1	0	990	1	4	0	184	49	0	0	100
random	6	1	50	1227116	3	1	1	1	0	859	1	4	0	168	50	0	0	100
random	6	1	51	1228290	1	4	4	1	0	681	1	4	0	192	51	0	0	100
random	6	1	52	1229259	5	3	3	1	0	1064	1	4	0	184	52	0	0	100
random	6	1	53	1231077	3	2	2	1	0	835	1	4	0	176	53	0	0	100
random	6	1	54	1232604	6	4	4	1	0	810	1	4	0	192	54	0	0	100
random	6	1	55	1233776	4	2	2	1	0	872	1	4	0	176	55	0	0	100
random	6	1	56	1235651	1	1	1	1	0	753	1	4	0	168	56	0	0	100
random	6	1	57	1237006	5	4	4	1	0	736	1	4	0	192	57	0	0	100
random	6	1	58	1238633	2	1	1	1	0	907	1	4	0	168	58	0	0	100
random	6	1	59	1239852	6	2	2	1	0	1135	1	4	0	176	59	0	0	100
random	6	1	60	1241580	4	3	3	1	0	774	1	4	0	184	60	0	0	100
random	6	1	61	1242999	1	2	2	1	0	850	1	4	0	176	61	0	0	100
random	6	1	62	1244618	6	4	4	1	0	661	1	4	0	192	62	0	0	100
random	6	1	63	1245799	4	1	1	1	0	699	1	4	0	168	63	0	0	100
random	6	1	64	1247262	2	2	2	1	0	917	1	4	0	176	64	0	0	100
random	6	1	65	1248951	4	3	3	1	0	646	1	4	0	184	65	0	0	100
random	6	1	66	1250410	3	1	1	1	0	744	1	4	0	168	66	0	0	100
random	6	1	67	1251997	1	3	3	1	0	813	1	4	0	184	67	0	0	100
random	6	1	68	1253346	5	4	4	1	0	796	1	4	0	192	68	0	0	100
random	6	1	69	1255177	2	2	2	1	0	790	1	4	0	176	69	0	0	100
random	6	1	70	1256716	3	1	1	1	0	677	1	4	0	168	70	0	0	100
random	6	1	71	1258238	5	4	4	1	0	692	1	4	0	192	71	0	0	100
random	6	1	72	1259457	6	3	3	1	0	817	1	4	0	184	72	0	0	100
random	6	1	73	1260960	2	1	1	1	0	865	1	4	0	168	73	0	0	100
random	6	1	74	1262845	5	3	3	1	0	777	1	4	0	184	74	0	0	100
random	6	1	75	1264052	1	4	4	1	0	686	1	4	0	192	75	0	0	100
random	6	1	76	1265787	6	2	2	1	0	660	1	4	0	176	76	0	0	100
random	6	1	77	1267133	2	1	1	1	0	884	1	4	0	168	77	0	0	100
random	6	1	78	1268509	4	4	4	1	0	770	1	4	0	192	78	0	0	100
random	6	1	79	1269700	3	2	2	2	0	1159	2	4	0	176	79	0	0	100
random	6	1	80	1271428	4	3	3	1	0	694	1	4	0	184	80	0	0	100
random	6	1	81	1272949	1	4	4	1	0	662	1	4	0	192	81	0	0	100
random	6	1	82	1274181	5	1	1	1	0	745	1	4	0	168	82	0	0	100
random	6	1	83	1275704	3	2	2	1	0	993	1	4	0	176	83	0	0	100
random	6	1	84	1277698	6	3	3	1	0	757	1	4	0	184	84	0	0	100
random	6	1	85	1279706	3	2	2	1	0	967	1	4	0	176	85	0	0	100
random	6	1	86	1281303	1	3	3	1	0	812	1	4	0	184	86	0	0	100
random	6	1	87	1283021	4	4	4	1	0	683	1	4	0	192	87	0	0	100
random	6	1	88	1284298	2	1	1	1	0	740	1	4	0	168	88	0	0	100
random	6	1	89	1285915	6	4	4	1	0	760	1	4	0	192	89	0	0	100
random	6	1	90	1287367	3	3	3	1	0	1243	1	4	0	184	90	0	0	100
random	6	1	91	1289289	5	4	4	1	0	897	1	4	0	192	91	0	0	100
random	6	1	92	1290768	1	2	2	1	0	834	1	4	0	176	92	0	0	100
random	6	1	93	1292494	5	1	1	1	0	690	1	4	0	168	93	0	0	100
random	6	1	94	1294190	4	3	3	1	0	1273	1	4	0	184	94	0	0	100
random	6	1	95	1295900	6	1	1	1	0	1129	1	4	0	168	95	0	0	100
random	6	1	96	1297928	2	2	2	1	0	1156	1	4	0	176	96	0	0	100
random	6	1	97	1300273	4	3	3	1	0	920	1	4	0	184	97	0	0	100
random	6	1	98	1301722	3	2	2	1	0	731	1	4	0	176	98	0	0	100
random	6	1	99	1303390	6	3	3	1	0	748	1	4	0	184	99	0	0	100
random	6	1	100	1304778	1	4	4	1	0	505	1	4	0	192	100	0	0	100
random	6	1	101	1306208	4	1	1	1	0	885	1	4	0	168	101	0	0	100
random	6	1	102	1307509	5	2	2	1	0	1029	1	4	0	176	102	0	0	100
random	6	1	103	1309218	2	4	4	1	0	677	1	4	0	192	103	0	0	100
random	6	1	104	1310725	3	1	1	1	0	902	1	4	0	168	104	0	0	100
random	6	1	105	1311960	1	3	3	1	0	1089	1	4	0	184	105	0	0	100
random	6	1	106	1313851	2	2	2	1	0	785	1	4	0	176	106	0	0	100
random	6	1	107	1315422	5	4	4	1	0	711	1	4	0	192	107	0	0	100
random	6	1	108	1316713	6	1	1	1	0	903	1	4	0	168	108	0	0	100
random	6	1	109	1318785	5	4	4	1	0	960	1	4	0	192	109	0	0	100
random	6	1	110	1320304	6	3	3	1	0	1231	1	4	0	184	110	0	0	100
random	6	1	111	1322495	2	2	2	1	0	627	1	4	0	176	111	0	0	100
random	6	1	112	1323838	3	1	1	1	0	1026	1	4	0	168	112	0	0	100
random	6	1	113	1325303	1	2	2	1	0	1068	1	4	0	176	113	0	0	100
random	6	1	114	1326908	2	3	3	1	0	624	1	4	0	184	114	0	0	100
random	6	1	115	1328200	3	1	1	1	0	769	1	4	0	168	115	0	0	100
random	6	1	116	1329450	4	4	4	1	0	668	1	4	0	192	116	0	0	100
random	6	1	117	1330449	6	1	1	1	0	890	1	4	0	168	117	0	0	100
random	6	1	118	1332326	5	3	3	1	0	971	1	4	0	184	118	0	0	100
random	6	1	119	1334144	1	4	4	1	0	661	1	4	0	192	119	0	0	100
random	6	1	120	1335838	4	2	2	1	0	878	1	4	0	176	120	0	0	100
fixed	7	1	1	1337930	4	1	1	1	0	909	1	4	0	200	1	0	0	100
fixed	7	1	2	1339477	1	2	2	1	0	996	1	4	0	208	2	0	0	100
fixed	7	1	3	1341193	6	4	4	1	0	787	1	4	0	224	3	0	0	100
fixed	7	1	4	1342818	2	1	1	1	0	742	1	4	0	200	4	0	0	100
fixed	7	1	5	1344448	5	3	3	1	0	801	1	4	0	216	5	0	0	100
fixed	7	1	6	1345947	6	4	4	1	0	554	1	4	0	224	6	0	0	100
fixed	7	1	7	1347345	3	1	1	1	0	702	1	4	0	200	7	0	0	100
fixed	7	1	8	1348522	2	3	3	1	0	1188	1	4	0	216	8	0	0	100
fixed	7	1	9	1350049	3	2	2	1	0	620	1	4	0	208	9	0	0	100
fixed	7	1	10	1351172	1	4	4	1	0	1188	1	4	0	224	10	0	0	100
fixed	7	1	11	1353018	5	2	2	1	0	1046	1	4	0	208	11	0	0	100
fixed	7	1	12	1354925	4	3	3	1	0	869	1	4	0	216	12	0	0	100
fixed	7	2	1	1356561	4	1	1	1	0	808	1	4	0	200	1	0	0	8
fixed	7	2	2	1357978	1	2	2	1	0	1092	1	4	0	208	2	0	0	14
fixed	7	2	3	1359801	6	4	4	1	0	558	1	4	0	224	3	0	0	20
fixed	7	2	4	1360675	2	1	1	1	0	802	1	4	0	200	4	0	0	25
fixed	7	2	5	1361781	5	3	3	1	0	747	1	4	0	216	5	0	0	29
fixed	7	2	6	1363311	6	4	4	1	0	602	1	4	0	224	6	0	0	33
fixed	7	2	7	1364430	3	1	1	1	0	722	1	4	0	200	7	0	0	37
fixed	7	2	8	1366200	2	3	3	1	0	1111	1	4	0	216	8	0	0	40
fixed	7	2	9	1368058	3	2	2	1	0	497	1	4	0	208	9	0	0	43
fixed	7	2	10	1369409	1	4	4	1	0	720	1	4	0	224	10	0	0	45
fixed	7	2	11	1370456	5	2	2	1	0	884	1	4	0	208	11	0	0	48
fixed	7	2	12	1372056	4	3	3	1	0	760	1	4	0	216	12	0	0	50
fixed	7	3	1	1373553	4	1	1	1	0	712	1	4	0	200	1	0	0	4
fixed	7	3	2	1375205	1	2	2	1	0	1018	1	4	0	208	2	0	0	8
fixed	7	3	3	1377055	6	4	4	1	0	740	1	4	0	224	3	0	0	11
fixed	7	3	4	1378407	2	1	1	1	0	691	1	4	0	200	4	0	0	14
fixed	7	3	5	1379418	5	3	3	1	0	856	1	4	0	216	5	0	0	17
fixed	7	3	6	1380665	6	4	4	1	0	755	1	4	0	224	6	0	0	20
fixed	7	3	7	1381750	3	1	1	1	0	741	1	4	0	200	7	0	0	23
fixed	7	3	8	1382822	2	3	3	1	0	1056	1	4	0	216	8	0	0	25
fixed	7	3	9	1384416	3	2	2	1	0	556	1	4	0	208	9	0	0	27
fixed	7	3	10	1385667	1	4	4	1	0	535	1	4	0	224	10	0	0	29
fixed	7	3	11	1386617	5	2	2	1	0	919	1	4	0	208	11	0	0	31
fixed	7	3	12	1388533	4	3	3	1	0	590	1	4	0	216	12	0	0	33
fixed	7	4	1	1390027	4	1	1	1	0	646	1	4	0	200	1	0	0	3
fixed	7	4	2	1391157	1	2	2	1	0	1007	1	4	0	208	2	0	0	5
fixed	7	4	3	1392901	6	4	4	1	0	589	1	4	0	224	3	0	0	8
fixed	7	4	4	1393981	2	1	1	1	0	655	1	4	0	200	4	0	0	10
fixed	7	4	5	1394926	5	3	3	1	0	1103	1	4	0	216	5	0	0	12
fixed	7	4	6	1396401	6	4	4	1	0	721	1	4	0	224	6	0	0	14
fixed	7	4	7	1397512	3	1	1	1	0	697	1	4	0	200	7	0	0	16
fixed	7	4	8	1398552	2	3	3	1	0	765	1	4	0	216	8	0	0	18
fixed	7	4	9	1400026	3	2	2	1	0	567	1	4	0	208	9	0	0	20
fixed	7	4	10	1401367	1	4	4	1	0	503	1	4	0	224	10	0	0	22
fixed	7	4	11	1402839	5	2	2	1	0	944	1	4	0	208	11	0	0	23
fixed	7	4	12	1404461	4	3	3	1	0	467	1	4	0	216	12	0	0	25
fixed	7	5	1	1406150	4	1	1	1	0	627	1	4	0	200	1	0	0	2
fixed	7	5	2	1407399	1	2	2	1	0	1111	1	4	0	208	2	0	0	4
fixed	7	5	3	1409313	6	4	4	1	0	350	1	4	0	224	3	0	0	6
fixed	7	5	4	1410423	2	1	1	1	0	599	1	4	0	200	4	0	0	8
fixed	7	5	5	1411396	5	3	3	1	0	525	1	4	0	216	5	0	0	9
fixed	7	5	6	1412833	6	4	4	1	0	456	1	4	0	224	6	0	0	11
fixed	7	5	7	1414005	3	1	1	1	0	591	1	4	0	200	7	0	0	13
fixed	7	5	8	1415140	2	3	3	1	0	959	1	4	0	216	8	0	0	14
fixed	7	5	9	1416969	3	2	2	1	0	602	1	4	0	208	9	0	0	16
fixed	7	5	10	1418018	1	4	4	1	0	741	1	4	0	224	10	0	0	17
fixed	7	5	11	1419688	5	2	2	1	0	862	1	4	0	208	11	0	0	19
fixed	7	5	12	1421053	4	3	3	1	0	468	1	4	0	216	12	0	0	20
fixed	7	6	1	1422389	4	1	1	1	0	700	1	4	0	200	1	0	0	2
fixed	7	6	2	1424109	1	2	2	1	0	523	1	4	0	208	2	0	0	3
fixed	7	6	3	1425421	6	4	4	1	0	364	1	4	0	224	3	0	0	5
fixed	7	6	4	1426249	2	1	1	1	0	696	1	4	0	200	4	0	0	6
fixed	7	6	5	1427300	5	3	3	1	0	580	1	4	0	216	5	0	0	8
fixed	7	6	6	1428370	6	4	4	1	0	614	1	4	0	224	6	0	0	9
fixed	7	6	7	1429685	3	1	1	1	0	687	1	4	0	200	7	0	0	10
fixed	7	6	8	1431305	2	3	3	1	0	930	1	4	0	216	8	0	0	12
fixed	7	6	9	1432732	3	2	2	1	0	510	1	4	0	208	9	0	0	13
fixed	7	6	10	1434056	1	4	4	1	0	382	1	4	0	224	10	0	0	14
fixed	7	6	11	1434747	5	2	2	1	0	849	1	4	0	208	11	0	0	15
fixed	7	6	12	1436562	4	3	3	1	0	388	1	4	0	216	12	0	0	17
fixed	7	7	1	1438078	4	1	1	1	0	539	1	4	0	200	1	0	0	1
fixed	7	7	2	1439363	1	2	2	1	0	1653	1	4	0	208	2	0	0	3
fixed	7	7	3	1441609	6	4	4	1	0	462	1	4	0	224	3	0	0	4
fixed	7	7	4	1442444	2	1	1	1	0	762	1	4	0	200	4	0	0	5
fixed	7	7	5	1443653	5	3	3	1	0	527	1	4	0	216	5	0	0	6
fixed	7	7	6	1445147	6	4	4	1	0	400	1	4	0	224	6	0	0	8
fixed	7	7	7	1446263	3	1	1	1	0	592	1	4	0	200	7	0	0	9
fixed	7	7	8	1447237	2	3	3	1	0	791	1	4	0	216	8	0	0	10
fixed	7	7	9	1448876	3	2	2	1	0	674	1	4	0	208	9	0	0	11
fixed	7	7	10	1450086	1	4	4	1	0	479	1	4	0	224	10	0	0	12
fixed	7	7	11	1451034	5	2	2	1	0	871	1	4	0	208	11	0	0	13
fixed	7	7	12	1452901	4	3	3	1	0	335	1	4	0	216	12	0	0	14
fixed	7	8	1	1453800	4	1	1	1	0	737	1	4	0	200	1	0	0	1
fixed	7	8	2	1455220	1	2	2	1	0	989	1	4	0	208	2	0	0	2
fixed	7	8	3	1457024	6	4	4	1	0	345	1	4	0	224	3	0	0	3
fixed	7	8	4	1458362	2	1	1	1	0	640	1	4	0	200	4	0	0	5
fixed	7	8	5	1459869	5	3	3	1	0	352	1	4	0	216	5	0	0	6
fixed	7	8	6	1461231	6	4	4	1	0	311	1	4	0	224	6	0	0	7
fixed	7	8	7	1461961	3	1	1	1	0	744	1	4	0	200	7	0	0	8
fixed	7	8	8	1463415	2	3	3	1	0	722	1	4	0	216	8	0	0	9
fixed	7	8	9	1464583	3	2	2	1	0	465	1	4	0	208	9	0	0	10
fixed	7	8	10	1466026	1	4	4	1	0	396	1	4	0	224	10	0	0	11
fixed	7	8	11	1467418	5	2	2	1	0	952	1	4	0	208	11	0	0	12
fixed	7	8	12	1469192	4	3	3	1	0	821	1	4	0	216	12	0	0	13
fixed	7	9	1	1470708	4	1	1	1	0	637	1	4	0	200	1	0	0	1
fixed	7	9	2	1471849	1	2	2	1	0	581	1	4	0	208	2	0	0	2
fixed	7	9	3	1473399	6	4	4	1	0	307	1	4	0	224	3	0	0	3
fixed	7	9	4	1474600	2	1	1	1	0	472	1	4	0	200	4	0	0	4
fixed	7	9	5	1475401	5	3	3	1	0	822	1	4	0	216	5	0	0	5
fixed	7	9	6	1476995	6	4	4	1	0	387	1	4	0	224	6	0	0	6
fixed	7	9	7	1478190	3	1	1	1	0	600	1	4	0	200	7	0	0	7
fixed	7	9	8	1479658	2	3	3	1	0	858	1	4	0	216	8	0	0	8
fixed	7	9	9	1481427	3	2	2	1	0	479	1	4	0	208	9	0	0	9
fixed	7	9	10	1482632	1	4	4	1	0	469	1	4	0	224	10	0	0	9
fixed	7	9	11	1484058	5	2	2	1	0	496	1	4	0	208	11	0	0	10
fixed	7	9	12	1485564	4	3	3	1	0	296	1	4	0	216	12	0	0	11
fixed	7	10	1	1486898	4	1	1	1	0	471	1	4	0	200	1	0	0	1
fixed	7	10	2	1488383	1	2	2	1	0	904	1	4	0	208	2	0	0	2
fixed	7	10	3	1489728	6	4	4	1	0	576	1	4	0	224	3	0	0	3
fixed	7	10	4	1490787	2	1	1	1	0	683	1	4	0	200	4	0	0	4
fixed	7	10	5	1492306	5	3	3	1	0	467	1	4	0	216	5	0	0	4
fixed	7	10	6	1493364	6	4	4	1	0	510	1	4	0	224	6	0	0	5
fixed	7	10	7	1494831	3	1	1	1	0	767	1	4	0	200	7	0	0	6
fixed	7	10	8	1495957	2	3	3	1	0	1032	1	4	0	216	8	0	0	7
fixed	7	10	9	1497797	3	2	2	1	0	378	1	4	0	208	9	0	0	8
fixed	7	10	10	1498560	1	4	4	1	0	665	1	4	0	224	10	0	0	8
fixed	7	10	11	1499616	5	2	2	1	0	733	1	4	0	208	11	0	0	9
fixed	7	10	12	1500965	4	3	3	1	0	340	1	4	0	216	12	0	0	10
