type	block	sequ.	trial	time	Pos.	Color	Button	NumRsp	Resp_1	RT_1	R_Code	Resp_2	RT_2	Trigg.	n_hit	n_inc	n_miss	score_%

random	1	1	1	2353	6	1	1	1	0	973	1	4	0	8	1	0	0	100
random	1	1	2	4271	4	4	4	1	0	740	1	4	0	32	2	0	0	100
random	1	1	3	5497	2	2	2	1	0	912	1	4	0	16	3	0	0	100
random	1	1	4	7378	3	3	3	1	0	657	1	4	0	24	4	0	0	100
random	1	1	5	8478	5	2	2	1	0	1018	1	4	0	16	5	0	0	100
random	1	1	6	9815	1	4	4	1	0	745	1	4	0	32	6	0	0	100
random	1	1	7	11534	6	1	1	1	0	712	1	4	0	8	7	0	0	100
random	1	1	8	12951	2	3	3	2	0	1316	2	4	0	24	8	0	0	100
random	1	1	9	14580	4	2	2	1	0	656	1	4	0	16	9	0	0	100
random	1	1	10	15874	1	1	1	1	0	960	1	4	0	8	10	0	0	100
random	1	1	11	17811	5	4	4	1	0	630	1	4	0	32	11	0	0	100
random	1	1	12	19219	3	3	3	1	0	1123	1	4	0	24	12	0	0	100
random	1	1	13	21401	5	2	2	1	0	742	1	4	0	16	13	0	0	100
random	1	1	14	22759	1	4	4	1	0	805	1	4	0	32	14	0	0	100
random	1	1	15	24111	3	1	1	1	0	564	1	4	0	8	15	0	0	100
random	1	1	16	25363	4	3	3	1	0	750	1	4	0	24	16	0	0	100
random	1	1	17	27132	6	4	4	1	0	843	1	4	0	32	17	0	0	100
random	1	1	18	28634	2	1	1	1	0	700	1	4	0	8	18	0	0	100
random	1	1	19	29763	5	3	3	1	0	916	1	4	0	24	19	0	0	100
random	1	1	20	31451	2	2	2	1	0	525	1	4	0	16	20	0	0	100
random	1	1	21	32963	3	3	3	1	0	916	1	4	0	24	21	0	0	100
random	1	1	22	34734	6	1	1	1	0	937	1	4	0	8	22	0	0	100
random	1	1	23	36430	4	2	2	1	0	1010	1	4	0	16	23	0	0	100
random	1	1	24	38304	1	4	4	1	0	579	1	4	0	32	24	0	0	100
random	1	1	25	39597	4	3	3	1	0	1228	1	4	0	24	25	0	0	100
random	1	1	26	41353	2	1	1	1	0	1049	1	4	0	8	26	0	0	100
random	1	1	27	42859	5	2	2	1	0	850	1	4	0	16	27	0	0	100
random	1	1	28	44371	6	4	4	1	0	570	1	4	0	32	28	0	0	100
random	1	1	29	45542	1	3	3	1	0	1256	1	4	0	24	29	0	0	100
random	1	1	30	47718	5	2	2	1	0	844	1	4	0	16	30	0	0	100
random	1	1	31	49315	2	1	1	1	0	1272	1	4	0	8	31	0	0	100
random	1	1	32	51010	3	3	3	1	0	1480	1	4	0	24	32	0	0	100
random	1	1	33	52914	6	4	4	1	0	896	1	4	0	32	33	0	0	100
random	1	1	34	54163	4	2	2	1	0	842	1	4	0	16	34	0	0	100
random	1	1	35	55685	3	4	4	1	0	714	1	4	0	32	35	0	0	100
random	1	1	36	57424	1	1	1	1	0	792	1	4	0	8	36	0	0	100
random	1	1	37	59262	3	4	4	1	0	859	1	4	0	32	37	0	0	100
random	1	1	38	60770	5	3	3	1	0	923	1	4	0	24	38	0	0	100
random	1	1	39	62507	6	1	1	1	0	793	1	4	0	8	39	0	0	100
random	1	1	40	63746	1	2	2	1	0	629	1	4	0	16	40	0	0	100
random	1	1	41	65218	2	3	3	1	0	895	1	4	0	24	41	0	0	100
random	1	1	42	66484	4	4	4	1	0	921	1	4	0	32	42	0	0	100
random	1	1	43	68427	1	2	2	1	0	1255	1	4	0	16	43	0	0	100
random	1	1	44	70470	6	3	3	1	0	737	1	4	0	24	44	0	0	100
random	1	1	45	72193	3	1	1	1	0	935	1	4	0	8	45	0	0	100
random	1	1	46	74021	4	4	4	1	0	530	1	4	0	32	46	0	0	100
random	1	1	47	75381	2	2	2	1	0	1400	1	4	0	16	47	0	0	100
random	1	1	48	77532	5	1	1	1	0	941	1	4	0	8	48	0	0	100
random	1	1	49	79060	2	3	3	1	0	892	1	4	0	24	49	0	0	100
random	1	1	50	80669	3	1	1	1	0	864	1	4	0	8	50	0	0	100
random	1	1	51	81948	1	4	4	1	0	722	1	4	0	32	51	0	0	100
random	1	1	52	83533	5	3	3	1	0	983	1	4	0	24	52	0	0	100
random	1	1	53	85004	3	2	2	1	0	793	1	4	0	16	53	0	0	100
random	1	1	54	86627	6	4	4	1	0	788	1	4	0	32	54	0	0	100
random	1	1	55	87816	4	2	2	1	0	1169	1	4	0	16	55	0	0	100
random	1	1	56	89444	1	1	1	1	0	789	1	4	0	8	56	0	0	100
random	1	1	57	90994	5	4	4	1	0	667	1	4	0	32	57	0	0	100
random	1	1	58	92384	2	1	1	1	0	840	1	4	0	8	58	0	0	100
random	1	1	59	93773	6	2	2	1	0	957	1	4	0	16	59	0	0	100
random	1	1	60	95741	4	3	3	1	0	506	1	4	0	24	60	0	0	100
random	1	1	61	97054	1	2	2	1	0	858	1	4	0	16	61	0	0	100
random	1	1	62	98373	6	4	4	1	0	802	1	4	0	32	62	0	0	100
random	1	1	63	99642	4	1	1	1	0	876	1	4	0	8	63	0	0	100
random	1	1	64	101032	2	2	2	1	0	1642	1	4	0	16	64	0	0	100
random	1	1	65	103515	4	3	3	1	0	737	1	4	0	24	65	0	0	100
random	1	1	66	104950	3	1	1	1	0	684	1	4	0	8	66	0	0	100
random	1	1	67	106371	1	3	3	1	0	1128	1	4	0	24	67	0	0	100
random	1	1	68	108224	5	4	4	1	0	833	1	4	0	32	68	0	0	100
random	1	1	69	110080	2	2	2	1	0	835	1	4	0	16	69	0	0	100
random	1	1	70	111634	3	1	1	1	0	857	1	4	0	8	70	0	0	100
random	1	1	71	113469	5	4	4	1	0	691	1	4	0	32	71	0	0	100
random	1	1	72	114670	6	3	3	1	0	904	1	4	0	24	72	0	0	100
random	1	1	73	116369	2	1	1	1	0	1072	1	4	0	8	73	0	0	100
random	1	1	74	118025	5	3	3	1	0	810	1	4	0	24	74	0	0	100
random	1	1	75	119310	1	4	4	1	0	883	1	4	0	32	75	0	0	100
random	1	1	76	120937	6	2	2	1	0	823	1	4	0	16	76	0	0	100
random	1	1	77	122393	2	1	1	1	0	1041	1	4	0	8	77	0	0	100
random	1	1	78	123946	4	4	4	1	0	687	1	4	0	32	78	0	0	100
random	1	1	79	125183	3	2	2	1	0	963	1	4	0	16	79	0	0	100
random	1	1	80	127130	4	3	3	1	0	720	1	4	0	24	80	0	0	100
random	1	1	81	128670	1	4	4	1	0	735	1	4	0	32	81	0	0	100
random	1	1	82	130267	5	1	1	1	0	747	1	4	0	8	82	0	0	100
random	1	1	83	131583	3	2	2	1	0	996	1	4	0	16	83	0	0	100
random	1	1	84	133324	6	3	3	1	0	786	1	4	0	24	84	0	0	100
random	1	1	85	134680	3	2	2	1	0	848	1	4	0	16	85	0	0	100
random	1	1	86	136528	1	3	3	1	0	1042	1	4	0	24	86	0	0	100
random	1	1	87	138288	4	4	4	1	0	903	1	4	0	32	87	0	0	100
random	1	1	88	139833	2	1	1	1	0	894	1	4	0	8	88	0	0	100
random	1	1	89	141402	6	4	4	1	0	772	1	4	0	32	89	0	0	100
random	1	1	90	143191	3	3	3	1	0	1104	1	4	0	24	90	0	0	100
random	1	1	91	145209	5	4	4	1	0	995	1	4	0	32	91	0	0	100
random	1	1	92	146740	1	2	2	1	0	929	1	4	0	16	92	0	0	100
random	1	1	93	148356	5	1	1	1	0	997	1	4	0	8	93	0	0	100
random	1	1	94	150369	4	3	3	1	0	1192	1	4	0	24	94	0	0	100
random	1	1	95	152460	6	1	1	1	0	999	1	4	0	8	95	0	0	100
random	1	1	96	154129	2	2	2	1	0	745	1	4	0	16	96	0	0	100
random	1	1	97	156166	4	3	3	1	0	994	1	4	0	24	97	0	0	100
random	1	1	98	157680	3	2	2	1	0	723	1	4	0	16	98	0	0	100
random	1	1	99	159355	6	3	3	1	0	1091	1	4	0	24	99	0	0	100
random	1	1	100	161057	1	4	4	1	0	652	1	4	0	32	100	0	0	100
random	1	1	101	162242	4	1	1	1	0	921	1	4	0	8	101	0	0	100
random	1	1	102	163553	5	2	2	1	0	1018	1	4	0	16	102	0	0	100
random	1	1	103	164965	2	4	4	1	0	694	1	4	0	32	103	0	0	100
random	1	1	104	166680	3	1	1	1	0	773	1	4	0	8	104	0	0	100
random	1	1	105	168044	1	3	3	1	0	667	1	4	0	24	105	0	0	100
random	1	1	106	169400	2	2	2	1	0	970	1	4	0	16	106	0	0	100
random	1	1	107	171279	5	4	4	1	0	531	1	4	0	32	107	0	0	100
random	1	1	108	172778	6	1	1	1	0	651	1	4	0	8	108	0	0	100
random	1	1	109	174494	5	4	4	1	0	850	1	4	0	32	109	0	0	100
random	1	1	110	176373	6	3	3	1	0	835	1	4	0	24	110	0	0	100
random	1	1	111	177510	2	2	2	1	0	723	1	4	0	16	111	0	0	100
random	1	1	112	178802	3	1	1	1	0	979	1	4	0	8	112	0	0	100
random	1	1	113	180144	1	2	2	1	0	907	1	4	0	16	113	0	0	100
random	1	1	114	182095	2	3	3	1	0	552	1	4	0	24	114	0	0	100
random	1	1	115	183638	3	1	1	1	0	703	1	4	0	8	115	0	0	100
random	1	1	116	184889	4	4	4	1	0	618	1	4	0	32	116	0	0	100
random	1	1	117	186549	6	1	1	1	0	1004	1	4	0	8	117	0	0	100
random	1	1	118	188016	5	3	3	1	0	958	1	4	0	24	118	0	0	100
random	1	1	119	190007	1	4	4	1	0	713	1	4	0	32	119	0	0	100
random	1	1	120	191603	4	2	2	1	0	797	1	4	0	16	120	0	0	100
fixed	2	1	1	193388	4	1	1	1	0	1010	1	4	0	40	1	0	0	100
fixed	2	1	2	195207	1	2	2	1	0	797	1	4	0	48	2	0	0	100
fixed	2	1	3	196361	6	4	4	1	0	716	1	4	0	64	3	0	0	100
fixed	2	1	4	197577	2	1	1	1	0	713	1	4	0	40	4	0	0	100
fixed	2	1	5	199171	5	3	3	1	0	925	1	4	0	56	5	0	0	100
fixed	2	1	6	200443	6	4	4	1	0	887	1	4	0	64	6	0	0	100
fixed	2	1	7	202157	3	1	1	1	0	671	1	4	0	40	7	0	0	100
fixed	2	1	8	203264	2	3	3	1	0	831	1	4	0	56	8	0	0	100
fixed	2	1	9	204535	3	2	2	1	0	530	1	4	0	48	9	0	0	100
fixed	2	1	10	206084	1	4	4	1	0	641	1	4	0	64	10	0	0	100
fixed	2	1	11	207379	5	2	2	1	0	881	1	4	0	48	11	0	0	100
fixed	2	1	12	209051	4	3	3	1	0	779	1	4	0	56	12	0	0	100
fixed	2	2	1	210900	4	1	1	1	0	668	1	4	0	40	13	0	0	100
fixed	2	2	2	212317	1	2	2	1	0	873	1	4	0	48	14	0	0	100
fixed	2	2	3	213493	6	4	4	1	0	782	1	4	0	64	15	0	0	100
fixed	2	2	4	215280	2	1	1	1	0	747	1	4	0	40	16	0	0	100
fixed	2	2	5	216674	5	3	3	1	0	952	1	4	0	56	17	0	0	100
fixed	2	2	6	218257	6	4	4	1	0	725	1	4	0	64	18	0	0	100
fixed	2	2	7	219578	3	1	1	1	0	1605	1	4	0	40	19	0	0	100
fixed	2	2	8	221630	2	3	3	1	0	878	1	4	0	56	20	0	0	100
fixed	2	2	9	223495	3	2	2	1	0	694	1	4	0	48	21	0	0	100
fixed	2	2	10	224606	1	4	4	1	0	648	1	4	0	64	22	0	0	100
fixed	2	2	11	225586	5	2	2	1	0	886	1	4	0	48	23	0	0	100
fixed	2	2	12	226787	4	3	3	1	0	811	1	4	0	56	24	0	0	100
fixed	2	3	1	228677	4	1	1	1	0	723	1	4	0	40	25	0	0	100
fixed	2	3	2	229713	1	2	2	1	0	959	1	4	0	48	26	0	0	100
fixed	2	3	3	231683	6	4	4	1	0	620	1	4	0	64	27	0	0	100
fixed	2	3	4	232791	2	1	1	1	0	725	1	4	0	40	28	0	0	100
fixed	2	3	5	234237	5	3	3	1	0	720	1	4	0	56	29	0	0	100
fixed	2	3	6	235692	6	4	4	1	0	434	1	4	0	64	30	0	0	100
fixed	2	3	7	236976	3	1	1	1	0	732	1	4	0	40	31	0	0	100
fixed	2	3	8	238370	2	3	3	1	0	801	1	4	0	56	32	0	0	100
fixed	2	3	9	239831	3	2	2	1	0	755	1	4	0	48	33	0	0	100
fixed	2	3	10	241355	1	4	4	1	0	523	1	4	0	64	34	0	0	100
fixed	2	3	11	242343	5	2	2	1	0	888	1	4	0	48	35	0	0	100
fixed	2	3	12	243970	4	3	3	1	0	740	1	4	0	56	36	0	0	100
fixed	2	4	1	245301	4	1	1	1	0	763	1	4	0	40	37	0	0	100
fixed	2	4	2	247061	1	2	2	1	0	921	1	4	0	48	38	0	0	100
fixed	2	4	3	248617	6	4	4	1	0	511	1	4	0	64	39	0	0	100
fixed	2	4	4	249686	2	1	1	1	0	722	1	4	0	40	40	0	0	100
fixed	2	4	5	251389	5	3	3	1	0	609	1	4	0	56	41	0	0	100
fixed	2	4	6	252859	6	4	4	1	0	403	1	4	0	64	42	0	0	100
fixed	2	4	7	254060	3	1	1	1	0	608	1	4	0	40	43	0	0	100
fixed	2	4	8	255462	2	3	3	1	0	861	1	4	0	56	44	0	0	100
fixed	2	4	9	257041	3	2	2	1	0	418	1	4	0	48	45	0	0	100
fixed	2	4	10	258158	1	4	4	1	0	547	1	4	0	64	46	0	0	100
fixed	2	4	11	259186	5	2	2	1	0	871	1	4	0	48	47	0	0	100
fixed	2	4	12	260898	4	3	3	1	0	1087	1	4	0	56	48	0	0	100
fixed	2	5	1	263212	4	1	1	1	0	748	1	4	0	40	49	0	0	100
fixed	2	5	2	264297	1	2	2	1	0	1038	1	4	0	48	50	0	0	100
fixed	2	5	3	266159	6	4	4	1	0	736	1	4	0	64	51	0	0	100
fixed	2	5	4	267226	2	1	1	1	0	723	1	4	0	40	52	0	0	100
fixed	2	5	5	268326	5	3	3	1	0	628	1	4	0	56	53	0	0	100
fixed	2	5	6	269320	6	4	4	1	0	602	1	4	0	64	54	0	0	100
fixed	2	5	7	270357	3	1	1	1	0	918	1	4	0	40	55	0	0	100
fixed	2	5	8	271597	2	3	3	1	0	705	1	4	0	56	56	0	0	100
fixed	2	5	9	272840	3	2	2	1	0	485	1	4	0	48	57	0	0	100
fixed	2	5	10	273628	1	4	4	1	0	532	1	4	0	64	58	0	0	100
fixed	2	5	11	274554	5	2	2	1	0	908	1	4	0	48	59	0	0	100
fixed	2	5	12	276372	4	3	3	1	0	479	1	4	0	56	60	0	0	100
fixed	2	6	1	278132	4	1	1	1	0	716	1	4	0	40	61	0	0	100
fixed	2	6	2	279189	1	2	2	1	0	960	1	4	0	48	62	0	0	100
fixed	2	6	3	280841	6	4	4	1	0	722	1	4	0	64	63	0	0	100
fixed	2	6	4	282427	2	1	1	1	0	599	1	4	0	40	64	0	0	100
fixed	2	6	5	283540	5	3	3	1	0	888	1	4	0	56	65	0	0	100
fixed	2	6	6	284930	6	4	4	1	0	660	1	4	0	64	66	0	0	100
fixed	2	6	7	286224	3	1	1	1	0	1062	1	4	0	40	67	0	0	100
fixed	2	6	8	287705	2	3	3	1	0	687	1	4	0	56	68	0	0	100
fixed	2	6	9	289102	3	2	2	1	0	572	1	4	0	48	69	0	0	100
fixed	2	6	10	290333	1	4	4	1	0	640	1	4	0	64	70	0	0	100
fixed	2	6	11	291633	5	2	2	1	0	849	1	4	0	48	71	0	0	100
fixed	2	6	12	293439	4	3	3	1	0	804	1	4	0	56	72	0	0	100
fixed	2	7	1	295324	4	1	1	1	0	700	1	4	0	40	73	0	0	100
fixed	2	7	2	296571	1	2	2	1	0	1264	1	4	0	48	74	0	0	100
fixed	2	7	3	298612	6	4	4	1	0	778	1	4	0	64	75	0	0	100
fixed	2	7	4	300260	2	1	1	1	0	668	1	4	0	40	76	0	0	100
fixed	2	7	5	301218	5	3	3	1	0	899	1	4	0	56	77	0	0	100
fixed	2	7	6	302801	6	4	4	1	0	568	1	4	0	64	78	0	0	100
fixed	2	7	7	303797	3	1	1	1	0	718	1	4	0	40	79	0	0	100
fixed	2	7	8	305357	2	3	3	1	0	756	1	4	0	56	80	0	0	100
fixed	2	7	9	306875	3	2	2	1	0	419	1	4	0	48	81	0	0	100
fixed	2	7	10	307988	1	4	4	1	0	532	1	4	0	64	82	0	0	100
fixed	2	7	11	309509	5	2	2	1	0	907	1	4	0	48	83	0	0	100
fixed	2	7	12	311212	4	3	3	1	0	379	1	4	0	56	84	0	0	100
fixed	2	8	1	312165	4	1	1	1	0	675	1	4	0	40	85	0	0	100
fixed	2	8	2	313545	1	2	2	1	0	953	1	4	0	48	86	0	0	100
fixed	2	8	3	315274	6	4	4	1	0	471	1	4	0	64	87	0	0	100
fixed	2	8	4	316667	2	1	1	1	0	557	1	4	0	40	88	0	0	100
fixed	2	8	5	317686	5	3	3	1	0	505	1	4	0	56	89	0	0	100
fixed	2	8	6	318925	6	4	4	1	0	405	1	4	0	64	90	0	0	100
fixed	2	8	7	319978	3	1	1	1	0	1321	1	4	0	40	91	0	0	100
fixed	2	8	8	321812	2	3	3	1	0	835	1	4	0	56	92	0	0	100
fixed	2	8	9	323165	3	2	2	1	0	393	1	4	0	48	93	0	0	100
fixed	2	8	10	323884	1	4	4	1	0	643	1	4	0	64	94	0	0	100
fixed	2	8	11	325435	5	2	2	1	0	921	1	4	0	48	95	0	0	100
fixed	2	8	12	327072	4	3	3	1	0	788	1	4	0	56	96	0	0	100
fixed	2	9	1	328723	4	1	1	1	0	758	1	4	0	40	97	0	0	100
fixed	2	9	2	330379	1	2	2	1	0	1048	1	4	0	48	98	0	0	100
fixed	2	9	3	332407	6	4	4	1	0	362	1	4	0	64	99	0	0	100
fixed	2	9	4	333621	2	1	1	1	0	662	1	4	0	40	100	0	0	100
fixed	2	9	5	335314	5	3	3	1	0	655	1	4	0	56	101	0	0	100
fixed	2	9	6	336361	6	4	4	1	0	570	1	4	0	64	102	0	0	100
fixed	2	9	7	337501	3	1	1	1	0	602	1	4	0	40	103	0	0	100
fixed	2	9	8	338874	2	3	3	1	0	448	1	4	0	56	104	0	0	100
fixed	2	9	9	339740	3	2	2	1	0	451	1	4	0	48	105	0	0	100
fixed	2	9	10	341171	1	4	4	1	0	263	1	4	0	64	106	0	0	100
fixed	2	9	11	342273	5	2	2	1	0	976	1	4	0	48	107	0	0	100
fixed	2	9	12	344175	4	3	3	1	0	343	1	4	0	56	108	0	0	100
fixed	2	10	1	345280	4	1	1	1	0	672	1	4	0	40	109	0	0	100
fixed	2	10	2	346844	1	2	2	1	0	887	1	4	0	48	110	0	0	100
fixed	2	10	3	348162	6	4	4	1	0	535	1	4	0	64	111	0	0	100
fixed	2	10	4	349221	2	1	1	1	0	905	1	4	0	40	112	0	0	100
fixed	2	10	5	350444	5	3	3	1	0	798	1	4	0	56	113	0	0	100
fixed	2	10	6	351604	6	4	4	1	0	589	1	4	0	64	114	0	0	100
fixed	2	10	7	352676	3	1	1	1	0	608	1	4	0	40	115	0	0	100
fixed	2	10	8	353883	2	3	3	1	0	644	1	4	0	56	116	0	0	100
fixed	2	10	9	355245	3	2	2	1	0	355	1	4	0	48	117	0	0	100
fixed	2	10	10	356183	1	4	4	1	0	475	1	4	0	64	118	0	0	100
fixed	2	10	11	357685	5	2	2	1	0	619	1	4	0	48	119	0	0	100
fixed	2	10	12	358624	4	3	3	1	0	492	1	4	0	56	120	0	0	100
fixed	3	1	1	360081	4	1	1	1	0	621	1	4	0	72	1	0	0	100
fixed	3	1	2	361366	1	2	0	1	2	0	3	4	0	80	1	0	1	50
fixed	3	1	3	364734	6	4	4	1	0	329	1	4	0	96	2	0	1	67
fixed	3	1	4	365545	2	1	1	1	0	582	1	4	0	72	3	0	1	75
fixed	3	1	5	367141	5	3	3	1	0	475	1	4	0	88	4	0	1	80
fixed	3	1	6	367991	6	4	4	1	0	823	1	4	0	96	5	0	1	83
fixed	3	1	7	369432	3	1	1	1	0	538	1	4	0	72	6	0	1	86
fixed	3	1	8	370786	2	3	3	1	0	1169	1	4	0	88	7	0	1	88
fixed	3	1	9	372357	3	2	2	1	0	494	1	4	0	80	8	0	1	89
fixed	3	1	10	373784	1	4	4	1	0	377	1	4	0	96	9	0	1	90
fixed	3	1	11	374794	5	2	2	1	0	767	1	4	0	80	10	0	1	91
fixed	3	1	12	376317	4	3	3	1	0	366	1	4	0	88	11	0	1	92
fixed	3	2	1	377292	4	1	1	1	0	637	1	4	0	72	12	0	1	92
fixed	3	2	2	378704	1	2	2	1	0	745	1	4	0	80	13	0	1	93
fixed	3	2	3	379736	6	4	4	1	0	565	1	4	0	96	14	0	1	93
fixed	3	2	4	381050	2	1	1	1	0	669	1	4	0	72	15	0	1	94
fixed	3	2	5	382212	5	3	3	1	0	597	1	4	0	88	16	0	1	94
fixed	3	2	6	383837	6	4	4	1	0	864	1	4	0	96	17	0	1	94
fixed	3	2	7	385252	3	1	1	1	0	732	1	4	0	72	18	0	1	95
fixed	3	2	8	386489	2	3	3	1	0	479	1	4	0	88	19	0	1	95
fixed	3	2	9	387897	3	2	2	1	0	396	1	4	0	80	20	0	1	95
fixed	3	2	10	389034	1	4	4	1	0	532	1	4	0	96	21	0	1	95
fixed	3	2	11	390337	5	2	2	1	0	877	1	4	0	80	22	0	1	96
fixed	3	2	12	391501	4	3	3	1	0	467	1	4	0	88	23	0	1	96
fixed	3	3	1	392563	4	1	1	1	0	654	1	4	0	72	24	0	1	96
fixed	3	3	2	394255	1	2	2	1	0	1054	1	4	0	80	25	0	1	96
fixed	3	3	3	396302	6	4	4	1	0	360	1	4	0	96	26	0	1	96
fixed	3	3	4	397107	2	1	1	1	0	733	1	4	0	72	27	0	1	96
fixed	3	3	5	398260	5	3	3	1	0	580	1	4	0	88	28	0	1	97
fixed	3	3	6	399539	6	4	4	1	0	727	1	4	0	96	29	0	1	97
fixed	3	3	7	401019	3	1	1	1	0	904	1	4	0	72	30	0	1	97
fixed	3	3	8	402710	2	3	3	1	0	960	1	4	0	88	31	0	1	97
fixed	3	3	9	403982	3	2	2	1	0	562	1	4	0	80	32	0	1	97
fixed	3	3	10	404964	1	4	4	1	0	505	1	4	0	96	33	0	1	97
fixed	3	3	11	405836	5	2	2	1	0	628	1	4	0	80	34	0	1	97
fixed	3	3	12	407109	4	3	3	1	0	350	1	4	0	88	35	0	1	97
fixed	3	4	1	408752	4	1	1	1	0	808	1	4	0	72	36	0	1	97
fixed	3	4	2	410563	1	2	2	1	0	932	1	4	0	80	37	0	1	97
fixed	3	4	3	412326	6	4	4	1	0	401	1	4	0	96	38	0	1	97
fixed	3	4	4	413297	2	1	1	1	0	856	1	4	0	72	39	0	1	98
fixed	3	4	5	414957	5	3	3	1	0	585	1	4	0	88	40	0	1	98
fixed	3	4	6	416047	6	4	4	1	0	444	1	4	0	96	41	0	1	98
fixed	3	4	7	417204	3	1	1	1	0	586	1	4	0	72	42	0	1	98
fixed	3	4	8	418680	2	3	3	1	0	796	1	4	0	88	43	0	1	98
fixed	3	4	9	420474	3	2	2	1	0	376	1	4	0	80	44	0	1	98
fixed	3	4	10	421812	1	4	4	1	0	343	1	4	0	96	45	0	1	98
fixed	3	4	11	422640	5	2	2	1	0	596	1	4	0	80	46	0	1	98
fixed	3	4	12	424226	4	3	3	1	0	369	1	4	0	88	47	0	1	98
fixed	3	5	1	425193	4	1	1	1	0	808	1	4	0	72	48	0	1	98
fixed	3	5	2	426680	1	2	2	1	0	1153	1	4	0	80	49	0	1	98
fixed	3	5	3	428834	6	4	4	1	0	405	1	4	0	96	50	0	1	98
fixed	3	5	4	429968	2	1	1	1	0	630	1	4	0	72	51	0	1	98
fixed	3	5	5	431343	5	3	3	1	0	555	1	4	0	88	52	0	1	98
fixed	3	5	6	432937	6	4	4	1	0	336	1	4	0	96	53	0	1	98
fixed	3	5	7	434035	3	1	1	1	0	529	1	4	0	72	54	0	1	98
fixed	3	5	8	435512	2	3	3	1	0	411	1	4	0	88	55	0	1	98
fixed	3	5	9	436691	3	2	2	1	0	513	1	4	0	80	56	0	1	98
fixed	3	5	10	437607	1	4	4	1	0	770	1	4	0	96	57	0	1	98
fixed	3	5	11	439416	5	2	2	1	0	446	1	4	0	80	58	0	1	98
fixed	3	5	12	440166	4	3	3	1	0	686	1	4	0	88	59	0	1	98
fixed	3	6	1	441650	4	1	1	1	0	543	1	4	0	72	60	0	1	98
fixed	3	6	2	443233	1	2	2	1	0	940	1	4	0	80	61	0	1	98
fixed	3	6	3	445141	6	4	4	1	0	387	1	4	0	96	62	0	1	98
fixed	3	6	4	446097	2	1	1	1	0	634	1	4	0	72	63	0	1	98
fixed	3	6	5	447300	5	3	3	1	0	528	1	4	0	88	64	0	1	98
fixed	3	6	6	448750	6	4	4	1	0	426	1	4	0	96	65	0	1	98
fixed	3	6	7	449796	3	1	1	1	0	574	1	4	0	72	66	0	1	99
fixed	3	6	8	451272	2	3	3	1	0	631	1	4	0	88	67	0	1	99
fixed	3	6	9	452355	3	2	2	1	0	722	1	4	0	80	68	0	1	99
fixed	3	6	10	453714	1	4	4	1	0	512	1	4	0	96	69	0	1	99
fixed	3	6	11	455094	5	2	2	1	0	830	1	4	0	80	70	0	1	99
fixed	3	6	12	456942	4	3	3	1	0	303	1	4	0	88	71	0	1	99
fixed	3	7	1	457890	4	1	1	1	0	719	1	4	0	72	72	0	1	99
fixed	3	7	2	459072	1	2	2	2	0	2493	2	4	0	80	73	0	1	99
fixed	3	7	3	462101	6	4	4	1	0	445	1	4	0	96	74	0	1	99
fixed	3	7	4	463320	2	1	1	1	0	481	1	4	0	72	75	0	1	99
fixed	3	7	5	464296	5	3	3	1	0	920	1	4	0	88	76	0	1	99
fixed	3	7	6	465915	6	4	4	1	0	475	1	4	0	96	77	0	1	99
fixed	3	7	7	467396	3	1	1	1	0	604	1	4	0	72	78	0	1	99
fixed	3	7	8	468750	2	3	3	1	0	595	1	4	0	88	79	0	1	99
fixed	3	7	9	470009	3	2	2	1	0	366	1	4	0	80	80	0	1	99
fixed	3	7	10	471170	1	4	4	1	0	404	1	4	0	96	81	0	1	99
fixed	3	7	11	472330	5	2	2	1	0	411	1	4	0	80	82	0	1	99
fixed	3	7	12	473393	4	3	3	1	0	486	1	4	0	88	83	0	1	99
fixed	3	8	1	474982	4	1	1	1	0	459	1	4	0	72	84	0	1	99
fixed	3	8	2	476018	1	2	2	1	0	615	1	4	0	80	85	0	1	99
fixed	3	8	3	477067	6	4	4	1	0	459	1	4	0	96	86	0	1	99
fixed	3	8	4	478017	2	1	1	1	0	723	1	4	0	72	87	0	1	99
fixed	3	8	5	479364	5	3	3	1	0	522	1	4	0	88	88	0	1	99
fixed	3	8	6	480511	6	4	4	1	0	433	1	4	0	96	89	0	1	99
fixed	3	8	7	481851	3	1	1	1	0	488	1	4	0	72	90	0	1	99
fixed	3	8	8	483074	2	3	3	1	0	621	1	4	0	88	91	0	1	99
fixed	3	8	9	484014	3	2	2	1	0	565	1	4	0	80	92	0	1	99
fixed	3	8	10	485219	1	4	4	1	0	482	1	4	0	96	93	0	1	99
fixed	3	8	11	486415	5	2	2	1	0	639	1	4	0	80	94	0	1	99
fixed	3	8	12	487625	4	3	3	1	0	388	1	4	0	88	95	0	1	99
fixed	3	9	1	489083	4	1	1	1	0	461	1	4	0	72	96	0	1	99
fixed	3	9	2	490571	1	2	2	2	0	1327	2	4	0	80	97	0	1	99
fixed	3	9	3	492300	6	4	4	1	0	582	1	4	0	96	98	0	1	99
fixed	3	9	4	493530	2	1	1	1	0	577	1	4	0	72	99	0	1	99
fixed	3	9	5	494444	5	3	3	1	0	835	1	4	0	88	100	0	1	99
fixed	3	9	6	495952	6	4	4	1	0	331	1	4	0	96	101	0	1	99
fixed	3	9	7	496596	3	1	1	1	0	608	1	4	0	72	102	0	1	99
fixed	3	9	8	498185	2	3	3	1	0	717	1	4	0	88	103	0	1	99
fixed	3	9	9	499693	3	2	2	1	0	396	1	4	0	80	104	0	1	99
fixed	3	9	10	500795	1	4	4	1	0	334	1	4	0	96	105	0	1	99
fixed	3	9	11	502078	5	2	2	1	0	448	1	4	0	80	106	0	1	99
fixed	3	9	12	502889	4	3	3	1	0	421	1	4	0	88	107	0	1	99
fixed	3	10	1	503986	4	1	1	1	0	718	1	4	0	72	108	0	1	99
fixed	3	10	2	505183	1	2	2	1	0	1140	1	4	0	80	109	0	1	99
fixed	3	10	3	507193	6	4	4	1	0	87	1	4	0	96	110	0	1	99
fixed	3	10	4	507940	2	1	1	1	0	799	1	4	0	72	111	0	1	99
fixed	3	10	5	509510	5	3	3	1	0	709	1	4	0	88	112	0	1	99
fixed	3	10	6	511252	6	4	4	1	0	307	1	4	0	96	113	0	1	99
fixed	3	10	7	512335	3	1	1	1	0	1013	1	4	0	72	114	0	1	99
fixed	3	10	8	513965	2	3	3	1	0	872	1	4	0	88	115	0	1	99
fixed	3	10	9	515299	3	2	2	1	0	455	1	4	0	80	116	0	1	99
fixed	3	10	10	516056	1	4	4	1	0	584	1	4	0	96	117	0	1	99
fixed	3	10	11	517374	5	2	2	1	0	352	1	4	0	80	118	0	1	99
fixed	3	10	12	518331	4	3	3	1	0	295	1	4	0	88	119	0	1	99
fixed	4	1	1	638113	4	1	1	1	0	966	1	4	0	104	1	0	0	100
fixed	4	1	2	639519	1	2	2	1	0	858	1	4	0	112	2	0	0	100
fixed	4	1	3	641063	6	4	4	1	0	513	1	4	0	128	3	0	0	100
fixed	4	1	4	642510	2	1	1	1	0	579	1	4	0	104	4	0	0	100
fixed	4	1	5	643787	5	3	3	1	0	486	1	4	0	120	5	0	0	100
fixed	4	1	6	645276	6	4	4	1	0	399	1	4	0	128	6	0	0	100
fixed	4	1	7	646029	3	1	1	1	0	647	1	4	0	104	7	0	0	100
fixed	4	1	8	647287	2	3	3	1	0	745	1	4	0	120	8	0	0	100
fixed	4	1	9	648787	3	2	2	1	0	426	1	4	0	112	9	0	0	100
fixed	4	1	10	649852	1	4	4	1	0	445	1	4	0	128	10	0	0	100
fixed	4	1	11	650884	5	2	2	1	0	449	1	4	0	112	11	0	0	100
fixed	4	1	12	652188	4	3	3	1	0	314	1	4	0	120	12	0	0	100
fixed	4	2	1	653570	4	1	1	1	0	631	1	4	0	104	13	0	0	100
fixed	4	2	2	654688	1	2	2	1	0	839	1	4	0	112	14	0	0	100
fixed	4	2	3	656289	6	4	4	1	0	428	1	4	0	128	15	0	0	100
fixed	4	2	4	657014	2	1	1	1	0	917	1	4	0	104	16	0	0	100
fixed	4	2	5	658638	5	3	3	1	0	449	1	4	0	120	17	0	0	100
fixed	4	2	6	659679	6	4	4	1	0	421	1	4	0	128	18	0	0	100
fixed	4	2	7	660975	3	1	1	1	0	502	1	4	0	104	19	0	0	100
fixed	4	2	8	662428	2	3	3	1	0	848	1	4	0	120	20	0	0	100
fixed	4	2	9	664247	3	2	2	1	0	379	1	4	0	112	21	0	0	100
fixed	4	2	10	665314	1	4	4	1	0	398	1	4	0	128	22	0	0	100
fixed	4	2	11	666330	5	2	2	1	0	619	1	4	0	112	23	0	0	100
fixed	4	2	12	667593	4	3	3	1	0	373	1	4	0	120	24	0	0	100
fixed	4	3	1	668807	4	1	1	1	0	466	1	4	0	104	25	0	0	100
fixed	4	3	2	669795	1	2	2	1	0	664	1	4	0	112	26	0	0	100
fixed	4	3	3	671109	6	4	4	1	0	409	1	4	0	128	27	0	0	100
fixed	4	3	4	672172	2	1	1	1	0	515	1	4	0	104	28	0	0	100
fixed	4	3	5	673597	5	3	3	1	0	535	1	4	0	120	29	0	0	100
fixed	4	3	6	674784	6	4	4	1	0	405	1	4	0	128	30	0	0	100
fixed	4	3	7	675647	3	1	1	1	0	584	1	4	0	104	31	0	0	100
fixed	4	3	8	677008	2	3	3	1	0	654	1	4	0	120	32	0	0	100
fixed	4	3	9	678382	3	2	2	1	0	484	1	4	0	112	33	0	0	100
fixed	4	3	10	679373	1	4	4	1	0	514	1	4	0	128	34	0	0	100
fixed	4	3	11	680261	5	2	2	1	0	533	1	4	0	112	35	0	0	100
fixed	4	3	12	681286	4	3	3	1	0	321	1	4	0	120	36	0	0	100
fixed	4	4	1	682674	4	1	1	1	0	574	1	4	0	104	37	0	0	100
fixed	4	4	2	683934	1	2	2	1	0	673	1	4	0	112	38	0	0	100
fixed	4	4	3	685525	6	4	4	1	0	326	1	4	0	128	39	0	0	100
fixed	4	4	4	686796	2	1	1	1	0	440	1	4	0	104	40	0	0	100
fixed	4	4	5	687779	5	3	3	1	0	494	1	4	0	120	41	0	0	100
fixed	4	4	6	688695	6	4	4	1	0	600	1	4	0	128	42	0	0	100
fixed	4	4	7	689609	3	1	1	1	0	1041	1	4	0	104	43	0	0	100
fixed	4	4	8	691367	2	3	3	1	0	726	1	4	0	120	44	0	0	100
fixed	4	4	9	692995	3	2	2	1	0	290	1	4	0	112	45	0	0	100
fixed	4	4	10	693759	1	4	4	1	0	457	1	4	0	128	46	0	0	100
fixed	4	4	11	694638	5	2	2	1	0	820	1	4	0	112	47	0	0	100
fixed	4	4	12	696297	4	3	3	1	0	478	1	4	0	120	48	0	0	100
fixed	4	5	1	697745	4	1	1	1	0	456	1	4	0	104	49	0	0	100
fixed	4	5	2	698583	1	2	2	1	0	669	1	4	0	112	50	0	0	100
fixed	4	5	3	700097	6	4	4	1	0	309	1	4	0	128	51	0	0	100
fixed	4	5	4	700962	2	1	1	1	0	736	1	4	0	104	52	0	0	100
fixed	4	5	5	702410	5	3	3	1	0	507	1	4	0	120	53	0	0	100
fixed	4	5	6	703643	6	4	4	1	0	398	1	4	0	128	54	0	0	100
fixed	4	5	7	704361	3	1	1	1	0	792	1	4	0	104	55	0	0	100
fixed	4	5	8	705498	2	3	3	1	0	744	1	4	0	120	56	0	0	100
fixed	4	5	9	706537	3	2	2	1	0	556	1	4	0	112	57	0	0	100
fixed	4	5	10	707626	1	4	4	1	0	462	1	4	0	128	58	0	0	100
fixed	4	5	11	708670	5	2	2	1	0	513	1	4	0	112	59	0	0	100
fixed	4	5	12	710137	4	3	3	1	0	372	1	4	0	120	60	0	0	100
fixed	4	6	1	711578	4	1	1	1	0	446	1	4	0	104	61	0	0	100
fixed	4	6	2	712676	1	2	2	1	0	424	1	4	0	112	62	0	0	100
fixed	4	6	3	713899	6	4	4	1	0	332	1	4	0	128	63	0	0	100
fixed	4	6	4	715238	2	1	1	1	0	667	1	4	0	104	64	0	0	100
fixed	4	6	5	716394	5	3	3	1	0	570	1	4	0	120	65	0	0	100
fixed	4	6	6	717306	6	4	4	1	0	556	1	4	0	128	66	0	0	100
fixed	4	6	7	718581	3	1	1	1	0	526	1	4	0	104	67	0	0	100
fixed	4	6	8	719412	2	3	3	1	0	642	1	4	0	120	68	0	0	100
fixed	4	6	9	720612	3	2	2	1	0	368	1	4	0	112	69	0	0	100
fixed	4	6	10	721706	1	4	4	1	0	329	1	4	0	128	70	0	0	100
fixed	4	6	11	722864	5	2	2	1	0	336	1	4	0	112	71	0	0	100
fixed	4	6	12	723868	4	3	3	1	0	302	1	4	0	120	72	0	0	100
fixed	4	7	1	724727	4	1	1	1	0	673	1	4	0	104	73	0	0	100
fixed	4	7	2	726258	1	2	2	1	0	849	1	4	0	112	74	0	0	100
fixed	4	7	3	727547	6	4	4	1	0	498	1	4	0	128	75	0	0	100
fixed	4	7	4	728605	2	1	1	1	0	581	1	4	0	104	76	0	0	100
fixed	4	7	5	729727	5	3	3	1	0	510	1	4	0	120	77	0	0	100
fixed	4	7	6	731222	6	4	4	1	0	367	1	4	0	128	78	0	0	100
fixed	4	7	7	732189	3	1	1	1	0	502	1	4	0	104	79	0	0	100
fixed	4	7	8	733157	2	3	3	1	0	1044	1	4	0	120	80	0	0	100
fixed	4	7	9	734589	3	2	2	1	0	472	1	4	0	112	81	0	0	100
fixed	4	7	10	736023	1	4	4	1	0	419	1	4	0	128	82	0	0	100
fixed	4	7	11	737019	5	2	2	1	0	353	1	4	0	112	83	0	0	100
fixed	4	7	12	737746	4	3	3	1	0	410	1	4	0	120	84	0	0	100
fixed	4	8	1	738712	4	1	1	1	0	521	1	4	0	104	85	0	0	100
fixed	4	8	2	739641	1	2	2	1	0	658	1	4	0	112	86	0	0	100
fixed	4	8	3	741242	6	4	4	1	0	318	1	4	0	128	87	0	0	100
fixed	4	8	4	741966	2	1	1	1	0	512	1	4	0	104	88	0	0	100
fixed	4	8	5	743228	5	3	3	1	0	330	1	4	0	120	89	0	0	100
fixed	4	8	6	744574	6	4	4	1	0	312	1	4	0	128	90	0	0	100
fixed	4	8	7	745607	3	1	1	1	0	405	1	4	0	104	91	0	0	100
fixed	4	8	8	746525	2	3	3	1	0	558	1	4	0	120	92	0	0	100
fixed	4	8	9	748115	3	2	2	1	0	330	1	4	0	112	93	0	0	100
fixed	4	8	10	748974	1	4	4	1	0	478	1	4	0	128	94	0	0	100
fixed	4	8	11	750371	5	2	2	1	0	843	1	4	0	112	95	0	0	100
fixed	4	8	12	751596	4	3	3	1	0	487	1	4	0	120	96	0	0	100
fixed	4	9	1	753064	4	1	1	1	0	513	1	4	0	104	97	0	0	100
fixed	4	9	2	754046	1	2	2	1	0	976	1	4	0	112	98	0	0	100
fixed	4	9	3	755510	6	4	4	1	0	402	1	4	0	128	99	0	0	100
fixed	4	9	4	756348	2	1	1	1	0	662	1	4	0	104	100	0	0	100
fixed	4	9	5	757958	5	3	3	1	0	546	1	4	0	120	101	0	0	100
fixed	4	9	6	759493	6	4	4	1	0	353	1	4	0	128	102	0	0	100
fixed	4	9	7	760235	3	1	1	1	0	633	1	4	0	104	103	0	0	100
fixed	4	9	8	761732	2	3	3	1	0	682	1	4	0	120	104	0	0	100
fixed	4	9	9	763012	3	2	2	1	0	636	1	4	0	112	105	0	0	100
fixed	4	9	10	763950	1	4	4	1	0	612	1	4	0	128	106	0	0	100
fixed	4	9	11	764919	5	2	2	1	0	571	1	4	0	112	107	0	0	100
fixed	4	9	12	766338	4	3	3	1	0	519	1	4	0	120	108	0	0	100
fixed	4	10	1	767733	4	1	1	1	0	476	1	4	0	104	109	0	0	100
fixed	4	10	2	768529	1	2	2	1	0	682	1	4	0	112	110	0	0	100
fixed	4	10	3	769706	6	4	4	1	0	384	1	4	0	128	111	0	0	100
fixed	4	10	4	771077	2	1	1	1	0	614	1	4	0	104	112	0	0	100
fixed	4	10	5	772698	5	3	3	1	0	353	1	4	0	120	113	0	0	100
fixed	4	10	6	773439	6	4	4	1	0	434	1	4	0	128	114	0	0	100
fixed	4	10	7	774602	3	1	1	1	0	489	1	4	0	104	115	0	0	100
fixed	4	10	8	775881	2	3	3	1	0	715	1	4	0	120	116	0	0	100
fixed	4	10	9	777528	3	2	2	1	0	933	1	4	0	112	117	0	0	100
fixed	4	10	10	778879	1	4	4	1	0	532	1	4	0	128	118	0	0	100
fixed	4	10	11	780131	5	2	2	1	0	719	1	4	0	112	119	0	0	100
fixed	4	10	12	781680	4	3	3	1	0	277	1	4	0	120	120	0	0	100
fixed	5	1	1	782884	4	1	1	1	0	530	1	4	0	136	1	0	0	100
fixed	5	1	2	784120	1	2	2	1	0	317	1	4	0	144	2	0	0	100
fixed	5	1	3	785360	6	4	4	1	0	369	1	4	0	160	3	0	0	100
fixed	5	1	4	786150	2	1	1	1	0	504	1	4	0	136	4	0	0	100
fixed	5	1	5	787681	5	3	3	1	0	431	1	4	0	152	5	0	0	100
fixed	5	1	6	788828	6	4	4	1	0	383	1	4	0	160	6	0	0	100
fixed	5	1	7	790144	3	1	1	1	0	735	1	4	0	136	7	0	0	100
fixed	5	1	8	791232	2	3	3	1	0	761	1	4	0	152	8	0	0	100
fixed	5	1	9	792346	3	2	2	1	0	393	1	4	0	144	9	0	0	100
fixed	5	1	10	793563	1	4	4	1	0	382	1	4	0	160	10	0	0	100
fixed	5	1	11	794622	5	2	2	1	0	529	1	4	0	144	11	0	0	100
fixed	5	1	12	795693	4	3	3	1	0	420	1	4	0	152	12	0	0	100
fixed	5	2	1	797322	4	1	1	1	0	550	1	4	0	136	13	0	0	100
fixed	5	2	2	798495	1	2	2	1	0	949	1	4	0	144	14	0	0	100
fixed	5	2	3	800422	6	4	4	1	0	412	1	4	0	160	15	0	0	100
fixed	5	2	4	801857	2	1	1	1	0	591	1	4	0	136	16	0	0	100
fixed	5	2	5	802759	5	3	3	1	0	456	1	4	0	152	17	0	0	100
fixed	5	2	6	803725	6	4	4	1	0	431	1	4	0	160	18	0	0	100
fixed	5	2	7	804748	3	1	1	1	0	484	1	4	0	136	19	0	0	100
fixed	5	2	8	805703	2	3	3	1	0	556	1	4	0	152	20	0	0	100
fixed	5	2	9	807016	3	2	2	1	0	468	1	4	0	144	21	0	0	100
fixed	5	2	10	808487	1	4	4	1	0	350	1	4	0	160	22	0	0	100
fixed	5	2	11	809584	5	2	2	1	0	303	1	4	0	144	23	0	0	100
fixed	5	2	12	810709	4	3	3	1	0	304	1	4	0	152	24	0	0	100
fixed	5	3	1	811657	4	1	1	1	0	439	1	4	0	136	25	0	0	100
fixed	5	3	2	812717	1	2	2	1	0	419	1	4	0	144	26	0	0	100
fixed	5	3	3	813995	6	4	4	1	0	284	1	4	0	160	27	0	0	100
fixed	5	3	4	814806	2	1	1	1	0	458	1	4	0	136	28	0	0	100
fixed	5	3	5	815589	5	3	3	1	0	593	1	4	0	152	29	0	0	100
fixed	5	3	6	817149	6	4	4	1	0	375	1	4	0	160	30	0	0	100
fixed	5	3	7	817946	3	1	1	1	0	501	1	4	0	136	31	0	0	100
fixed	5	3	8	819240	2	3	3	1	0	534	1	4	0	152	32	0	0	100
fixed	5	3	9	820252	3	2	2	1	0	492	1	4	0	144	33	0	0	100
fixed	5	3	10	821062	1	4	4	1	0	569	1	4	0	160	34	0	0	100
fixed	5	3	11	822365	5	2	2	1	0	378	1	4	0	144	35	0	0	100
fixed	5	3	12	823762	4	3	3	1	0	271	1	4	0	152	36	0	0	100
fixed	5	4	1	825307	4	1	1	1	0	469	1	4	0	136	37	0	0	100
fixed	5	4	2	826418	1	2	2	1	0	454	1	4	0	144	38	0	0	100
fixed	5	4	3	827897	6	4	4	1	0	215	1	4	0	160	39	0	0	100
fixed	5	4	4	828649	2	1	1	1	0	480	1	4	0	136	40	0	0	100
fixed	5	4	5	829789	5	3	3	1	0	527	1	4	0	152	41	0	0	100
fixed	5	4	6	831108	6	4	4	1	0	600	1	4	0	160	42	0	0	100
fixed	5	4	7	832403	3	1	1	1	0	409	1	4	0	136	43	0	0	100
fixed	5	4	8	833402	2	3	3	1	0	887	1	4	0	152	44	0	0	100
fixed	5	4	9	835218	3	2	2	1	0	545	1	4	0	144	45	0	0	100
fixed	5	4	10	836567	1	4	4	1	0	472	1	4	0	160	46	0	0	100
fixed	5	4	11	837767	5	2	2	1	0	1462	1	4	0	144	47	0	0	100
fixed	5	4	12	839804	4	3	3	1	0	568	1	4	0	152	48	0	0	100
fixed	5	5	1	841380	4	1	1	1	0	580	1	4	0	136	49	0	0	100
fixed	5	5	2	842855	1	2	2	1	0	390	1	4	0	144	50	0	0	100
fixed	5	5	3	844285	6	4	4	1	0	337	1	4	0	160	51	0	0	100
fixed	5	5	4	845530	2	1	1	1	0	613	1	4	0	136	52	0	0	100
fixed	5	5	5	847050	5	3	3	1	0	332	1	4	0	152	53	0	0	100
fixed	5	5	6	848230	6	4	4	1	0	298	1	4	0	160	54	0	0	100
fixed	5	5	7	848850	3	1	1	1	0	824	1	4	0	136	55	0	0	100
fixed	5	5	8	850283	2	3	3	1	0	555	1	4	0	152	56	0	0	100
fixed	5	5	9	851227	3	2	2	1	0	524	1	4	0	144	57	0	0	100
fixed	5	5	10	852720	1	4	4	1	0	1149	1	4	0	160	58	0	0	100
fixed	5	5	11	854616	5	2	2	1	0	836	1	4	0	144	59	0	0	100
fixed	5	5	12	856242	4	3	3	1	0	263	1	4	0	152	60	0	0	100
fixed	5	6	1	857353	4	1	1	1	0	624	1	4	0	136	61	0	0	100
fixed	5	6	2	858456	1	2	2	1	0	377	1	4	0	144	62	0	0	100
fixed	5	6	3	859447	6	4	4	1	0	351	1	4	0	160	63	0	0	100
fixed	5	6	4	860294	2	1	1	1	0	563	1	4	0	136	64	0	0	100
fixed	5	6	5	861267	5	3	3	1	0	410	1	4	0	152	65	0	0	100
fixed	5	6	6	862226	6	4	4	1	0	370	1	4	0	160	66	0	0	100
fixed	5	6	7	863615	3	1	1	1	0	623	1	4	0	136	67	0	0	100
fixed	5	6	8	865092	2	3	3	1	0	360	1	4	0	152	68	0	0	100
fixed	5	6	9	865815	3	2	2	1	0	442	1	4	0	144	69	0	0	100
fixed	5	6	10	867042	1	4	4	1	0	373	1	4	0	160	70	0	0	100
fixed	5	6	11	868457	5	2	2	1	0	674	1	4	0	144	71	0	0	100
fixed	5	6	12	870055	4	3	3	1	0	382	1	4	0	152	72	0	0	100
fixed	5	7	1	871036	4	1	1	1	0	476	1	4	0	136	73	0	0	100
fixed	5	7	2	872354	1	2	2	1	0	388	1	4	0	144	74	0	0	100
fixed	5	7	3	873433	6	4	4	1	0	303	1	4	0	160	75	0	0	100
fixed	5	7	4	874095	2	1	1	1	0	707	1	4	0	136	76	0	0	100
fixed	5	7	5	875644	5	3	3	1	0	338	1	4	0	152	77	0	0	100
fixed	5	7	6	876426	6	4	4	1	0	424	1	4	0	160	78	0	0	100
fixed	5	7	7	877138	3	1	1	1	0	674	1	4	0	136	79	0	0	100
fixed	5	7	8	878131	2	3	3	1	0	696	1	4	0	152	80	0	0	100
fixed	5	7	9	879298	3	2	2	1	0	391	1	4	0	144	81	0	0	100
fixed	5	7	10	880011	1	4	4	1	0	576	1	4	0	160	82	0	0	100
fixed	5	7	11	881094	5	2	2	1	0	506	1	4	0	144	83	0	0	100
fixed	5	7	12	882235	4	3	3	1	0	394	1	4	0	152	84	0	0	100
fixed	5	8	1	883885	4	1	1	1	0	764	1	4	0	136	85	0	0	100
fixed	5	8	2	885311	1	2	2	1	0	416	1	4	0	144	86	0	0	100
fixed	5	8	3	886169	6	4	4	1	0	436	1	4	0	160	87	0	0	100
fixed	5	8	4	887638	2	1	1	1	0	502	1	4	0	136	88	0	0	100
fixed	5	8	5	889065	5	3	3	1	0	329	1	4	0	152	89	0	0	100
fixed	5	8	6	889947	6	4	4	1	0	347	1	4	0	160	90	0	0	100
fixed	5	8	7	891079	3	1	1	1	0	515	1	4	0	136	91	0	0	100
fixed	5	8	8	892177	2	3	3	1	0	461	1	4	0	152	92	0	0	100
fixed	5	8	9	892969	3	2	2	1	0	588	1	4	0	144	93	0	0	100
fixed	5	8	10	894142	1	4	4	1	0	418	1	4	0	160	94	0	0	100
fixed	5	8	11	895074	5	2	2	1	0	619	1	4	0	144	95	0	0	100
fixed	5	8	12	896009	4	3	3	1	0	451	1	4	0	152	96	0	0	100
fixed	5	9	1	897117	4	1	1	1	0	428	1	4	0	136	97	0	0	100
fixed	5	9	2	897998	1	2	2	1	0	463	1	4	0	144	98	0	0	100
fixed	5	9	3	898767	6	4	4	1	0	574	1	4	0	160	99	0	0	100
fixed	5	9	4	900077	2	1	1	1	0	566	1	4	0	136	100	0	0	100
fixed	5	9	5	901526	5	3	3	1	0	305	1	4	0	152	101	0	0	100
fixed	5	9	6	902325	6	4	4	1	0	384	1	4	0	160	102	0	0	100
fixed	5	9	7	903456	3	1	0	0	2	0	3	4	0	136	102	0	1	99
fixed	5	9	8	906835	2	3	3	1	0	536	1	4	0	152	103	0	1	99
fixed	5	9	9	908227	3	2	2	1	0	933	1	4	0	144	104	0	1	99
fixed	5	9	10	909721	1	4	4	1	0	398	1	4	0	160	105	0	1	99
fixed	5	9	11	911097	5	2	2	1	0	316	1	4	0	144	106	0	1	99
fixed	5	9	12	911758	4	3	3	1	0	456	1	4	0	152	107	0	1	99
fixed	5	10	1	913290	4	1	1	1	0	639	1	4	0	136	108	0	1	99
fixed	5	10	2	914399	1	2	2	1	0	840	1	4	0	144	109	0	1	99
fixed	5	10	3	916103	6	4	4	1	0	320	1	4	0	160	110	0	1	99
fixed	5	10	4	917427	2	1	1	1	0	504	1	4	0	136	111	0	1	99
fixed	5	10	5	918574	5	3	3	1	0	327	1	4	0	152	112	0	1	99
fixed	5	10	6	919767	6	4	4	1	0	301	1	4	0	160	113	0	1	99
fixed	5	10	7	920511	3	1	1	1	0	685	1	4	0	136	114	0	1	99
fixed	5	10	8	922119	2	3	3	1	0	713	1	4	0	152	115	0	1	99
fixed	5	10	9	923216	3	2	2	1	0	610	1	4	0	144	116	0	1	99
fixed	5	10	10	924759	1	4	4	1	0	369	1	4	0	160	117	0	1	99
fixed	5	10	11	925998	5	2	2	1	0	533	1	4	0	144	118	0	1	99
fixed	5	10	12	927305	4	3	3	1	0	605	1	4	0	152	119	0	1	99
random	6	1	1	1038595	6	1	1	1	0	1043	1	4	0	168	1	0	0	100
random	6	1	2	1040033	4	4	4	1	0	926	1	4	0	192	2	0	0	100
random	6	1	3	1041589	2	2	2	1	0	949	1	4	0	176	3	0	0	100
random	6	1	4	1043481	3	3	3	1	0	525	1	4	0	184	4	0	0	100
random	6	1	5	1044613	5	2	2	1	0	1149	1	4	0	176	5	0	0	100
random	6	1	6	1046444	1	4	4	1	0	671	1	4	0	192	6	0	0	100
random	6	1	7	1047930	6	1	1	1	0	856	1	4	0	168	7	0	0	100
random	6	1	8	1049227	2	3	3	1	0	825	1	4	0	184	8	0	0	100
random	6	1	9	1050519	4	2	2	1	0	963	1	4	0	176	9	0	0	100
random	6	1	10	1051784	1	1	1	1	0	789	1	4	0	168	10	0	0	100
random	6	1	11	1052991	5	4	4	1	0	754	1	4	0	192	11	0	0	100
random	6	1	12	1054285	3	3	3	1	0	779	1	4	0	184	12	0	0	100
random	6	1	13	1056257	5	2	2	1	0	1167	1	4	0	176	13	0	0	100
random	6	1	14	1057945	1	4	4	1	0	736	1	4	0	192	14	0	0	100
random	6	1	15	1059519	3	1	1	1	0	709	1	4	0	168	15	0	0	100
random	6	1	16	1061186	4	3	3	1	0	775	1	4	0	184	16	0	0	100
random	6	1	17	1062446	6	4	4	1	0	977	1	4	0	192	17	0	0	100
random	6	1	18	1064153	2	1	1	1	0	633	1	4	0	168	18	0	0	100
random	6	1	19	1065649	5	3	3	1	0	762	1	4	0	184	19	0	0	100
random	6	1	20	1067113	2	2	2	1	0	548	1	4	0	176	20	0	0	100
random	6	1	21	1068340	3	3	3	1	0	800	1	4	0	184	21	0	0	100
random	6	1	22	1069698	6	1	1	1	0	894	1	4	0	168	22	0	0	100
random	6	1	23	1071276	4	2	2	1	0	1059	1	4	0	176	23	0	0	100
random	6	1	24	1073376	1	4	4	1	0	443	1	4	0	192	24	0	0	100
random	6	1	25	1074402	4	3	3	1	0	1335	1	4	0	184	25	0	0	100
random	6	1	26	1076493	2	1	1	1	0	1078	1	4	0	168	26	0	0	100
random	6	1	27	1078166	5	2	2	1	0	920	1	4	0	176	27	0	0	100
random	6	1	28	1079454	6	4	4	1	0	721	1	4	0	192	28	0	0	100
random	6	1	29	1081112	1	3	3	1	0	1099	1	4	0	184	29	0	0	100
random	6	1	30	1083081	5	2	2	1	0	840	1	4	0	176	30	0	0	100
random	6	1	31	1084858	2	1	1	1	0	732	1	4	0	168	31	0	0	100
random	6	1	32	1085960	3	3	3	1	0	1150	1	4	0	184	32	0	0	100
random	6	1	33	1087711	6	4	4	1	0	771	1	4	0	192	33	0	0	100
random	6	1	34	1089293	4	2	2	1	0	784	1	4	0	176	34	0	0	100
random	6	1	35	1090768	3	4	4	1	0	698	1	4	0	192	35	0	0	100
random	6	1	36	1091849	1	1	1	1	0	716	1	4	0	168	36	0	0	100
random	6	1	37	1093415	3	4	4	1	0	1097	1	4	0	192	37	0	0	100
random	6	1	38	1095490	5	3	3	1	0	850	1	4	0	184	38	0	0	100
random	6	1	39	1096667	6	1	1	1	0	752	1	4	0	168	39	0	0	100
random	6	1	40	1098108	1	2	2	1	0	603	1	4	0	176	40	0	0	100
random	6	1	41	1099093	2	3	3	1	0	1001	1	4	0	184	41	0	0	100
random	6	1	42	1100695	4	4	4	1	0	790	1	4	0	192	42	0	0	100
random	6	1	43	1101888	1	2	2	1	0	1139	1	4	0	176	43	0	0	100
random	6	1	44	1103974	6	3	3	1	0	738	1	4	0	184	44	0	0	100
random	6	1	45	1105326	3	1	1	1	0	897	1	4	0	168	45	0	0	100
random	6	1	46	1106906	4	4	4	1	0	870	1	4	0	192	46	0	0	100
random	6	1	47	1108291	2	2	2	1	0	876	1	4	0	176	47	0	0	100
random	6	1	48	1109969	5	1	1	1	0	844	1	4	0	168	48	0	0	100
random	6	1	49	1111660	2	3	3	1	0	1045	1	4	0	184	49	0	0	100
random	6	1	50	1113043	3	1	1	1	0	979	1	4	0	168	50	0	0	100
random	6	1	51	1114626	1	4	4	1	0	735	1	4	0	192	51	0	0	100
random	6	1	52	1115709	5	3	3	1	0	937	1	4	0	184	52	0	0	100
random	6	1	53	1117400	3	2	2	1	0	906	1	4	0	176	53	0	0	100
random	6	1	54	1118873	6	4	4	1	0	748	1	4	0	192	54	0	0	100
random	6	1	55	1120212	4	2	2	1	0	818	1	4	0	176	55	0	0	100
random	6	1	56	1121383	1	1	1	1	0	825	1	4	0	168	56	0	0	100
random	6	1	57	1122553	5	4	4	1	0	807	1	4	0	192	57	0	0	100
random	6	1	58	1123955	2	1	1	1	0	772	1	4	0	168	58	0	0	100
random	6	1	59	1125357	6	2	2	1	0	889	1	4	0	176	59	0	0	100
random	6	1	60	1126713	4	3	3	1	0	631	1	4	0	184	60	0	0	100
random	6	1	61	1128518	1	2	2	1	0	867	1	4	0	176	61	0	0	100
random	6	1	62	1129676	6	4	4	1	0	786	1	4	0	192	62	0	0	100
random	6	1	63	1131360	4	1	1	1	0	722	1	4	0	168	63	0	0	100
random	6	1	64	1133090	2	2	2	1	0	938	1	4	0	176	64	0	0	100
random	6	1	65	1134332	4	3	3	1	0	909	1	4	0	184	65	0	0	100
random	6	1	66	1135740	3	1	1	1	0	641	1	4	0	168	66	0	0	100
random	6	1	67	1137290	1	3	3	1	0	1071	1	4	0	184	67	0	0	100
random	6	1	68	1139247	5	4	4	1	0	908	1	4	0	192	68	0	0	100
random	6	1	69	1140615	2	2	2	1	0	858	1	4	0	176	69	0	0	100
random	6	1	70	1141792	3	1	1	1	0	921	1	4	0	168	70	0	0	100
random	6	1	71	1143016	5	4	4	1	0	861	1	4	0	192	71	0	0	100
random	6	1	72	1144526	6	3	3	1	0	1061	1	4	0	184	72	0	0	100
random	6	1	73	1146362	2	1	1	1	0	1047	1	4	0	168	73	0	0	100
random	6	1	74	1148089	5	3	3	1	0	862	1	4	0	184	74	0	0	100
random	6	1	75	1149929	1	4	4	1	0	688	1	4	0	192	75	0	0	100
random	6	1	76	1151417	6	2	2	1	0	865	1	4	0	176	76	0	0	100
random	6	1	77	1153283	2	1	1	1	0	770	1	4	0	168	77	0	0	100
random	6	1	78	1154856	4	4	4	1	0	687	1	4	0	192	78	0	0	100
random	6	1	79	1156216	3	2	2	1	0	694	1	4	0	176	79	0	0	100
random	6	1	80	1157267	4	3	3	1	0	714	1	4	0	184	80	0	0	100
random	6	1	81	1158870	1	4	4	1	0	726	1	4	0	192	81	0	0	100
random	6	1	82	1159920	5	1	1	1	0	857	1	4	0	168	82	0	0	100
random	6	1	83	1161221	3	2	2	1	0	1050	1	4	0	176	83	0	0	100
random	6	1	84	1162575	6	3	3	1	0	897	1	4	0	184	84	0	0	100
random	6	1	85	1164389	3	2	2	1	0	803	1	4	0	176	85	0	0	100
random	6	1	86	1166048	1	3	3	1	0	901	1	4	0	184	86	0	0	100
random	6	1	87	1167600	4	4	4	1	0	764	1	4	0	192	87	0	0	100
random	6	1	88	1168973	2	1	1	1	0	769	1	4	0	168	88	0	0	100
random	6	1	89	1170143	6	4	4	1	0	1144	1	4	0	192	89	0	0	100
random	6	1	90	1171777	3	3	3	1	0	1051	1	4	0	184	90	0	0	100
random	6	1	91	1173358	5	4	4	1	0	944	1	4	0	192	91	0	0	100
random	6	1	92	1174864	1	2	2	1	0	832	1	4	0	176	92	0	0	100
random	6	1	93	1176167	5	1	1	1	0	793	1	4	0	168	93	0	0	100
random	6	1	94	1177870	4	3	3	1	0	744	1	4	0	184	94	0	0	100
random	6	1	95	1178916	6	1	1	1	0	860	1	4	0	168	95	0	0	100
random	6	1	96	1180084	2	2	2	1	0	811	1	4	0	176	96	0	0	100
random	6	1	97	1181448	4	3	3	1	0	1113	1	4	0	184	97	0	0	100
random	6	1	98	1183482	3	2	2	1	0	787	1	4	0	176	98	0	0	100
random	6	1	99	1184829	6	3	3	1	0	882	1	4	0	184	99	0	0	100
random	6	1	100	1186290	1	4	4	1	0	724	1	4	0	192	100	0	0	100
random	6	1	101	1187821	4	1	1	1	0	795	1	4	0	168	101	0	0	100
random	6	1	102	1189340	5	2	2	1	0	1035	1	4	0	176	102	0	0	100
random	6	1	103	1191193	2	4	4	1	0	748	1	4	0	192	103	0	0	100
random	6	1	104	1192724	3	1	1	1	0	851	1	4	0	168	104	0	0	100
random	6	1	105	1194496	1	3	3	1	0	864	1	4	0	184	105	0	0	100
random	6	1	106	1195656	2	2	2	1	0	1095	1	4	0	176	106	0	0	100
random	6	1	107	1197569	5	4	4	1	0	702	1	4	0	192	107	0	0	100
random	6	1	108	1199101	6	1	1	1	0	910	1	4	0	168	108	0	0	100
random	6	1	109	1200828	5	4	4	1	0	844	1	4	0	192	109	0	0	100
random	6	1	110	1202386	6	3	3	1	0	810	1	4	0	184	110	0	0	100
random	6	1	111	1203794	2	2	2	1	0	735	1	4	0	176	111	0	0	100
random	6	1	112	1205091	3	1	1	1	0	768	1	4	0	168	112	0	0	100
random	6	1	113	1206767	1	2	2	1	0	889	1	4	0	176	113	0	0	100
random	6	1	114	1208393	2	3	3	1	0	860	1	4	0	184	114	0	0	100
random	6	1	115	1209675	3	1	1	1	0	854	1	4	0	168	115	0	0	100
random	6	1	116	1211412	4	4	4	1	0	836	1	4	0	192	116	0	0	100
random	6	1	117	1212748	6	1	1	1	0	803	1	4	0	168	117	0	0	100
random	6	1	118	1214349	5	3	3	1	0	800	1	4	0	184	118	0	0	100
random	6	1	119	1215868	1	4	4	1	0	711	1	4	0	192	119	0	0	100
random	6	1	120	1216952	4	2	2	1	0	921	1	4	0	176	120	0	0	100
fixed	7	1	1	1218854	4	1	1	1	0	904	1	4	0	200	1	0	0	100
fixed	7	1	2	1220648	1	2	2	1	0	997	1	4	0	208	2	0	0	100
fixed	7	1	3	1222669	6	4	4	1	0	543	1	4	0	224	3	0	0	100
fixed	7	1	4	1224167	2	1	1	1	0	831	1	4	0	200	4	0	0	100
fixed	7	1	5	1225421	5	3	3	1	0	1130	1	4	0	216	5	0	0	100
fixed	7	1	6	1227212	6	4	4	1	0	535	1	4	0	224	6	0	0	100
fixed	7	1	7	1228264	3	1	1	1	0	850	1	4	0	200	7	0	0	100
fixed	7	1	8	1229554	2	3	3	1	0	1428	1	4	0	216	8	0	0	100
fixed	7	1	9	1231580	3	2	2	1	0	742	1	4	0	208	9	0	0	100
fixed	7	1	10	1232726	1	4	4	1	0	645	1	4	0	224	10	0	0	100
fixed	7	1	11	1234246	5	2	2	2	0	1293	2	4	0	208	11	0	0	100
fixed	7	1	12	1236171	4	3	3	1	0	411	1	4	0	216	12	0	0	100
fixed	7	2	1	1237184	4	1	1	1	0	920	1	4	0	200	1	0	0	8
fixed	7	2	2	1239075	1	2	2	1	0	976	1	4	0	208	2	0	0	14
fixed	7	2	3	1240731	6	4	4	1	0	402	1	4	0	224	3	0	0	20
fixed	7	2	4	1241749	2	1	1	1	0	647	1	4	0	200	4	0	0	25
fixed	7	2	5	1242805	5	3	3	1	0	842	1	4	0	216	5	0	0	29
fixed	7	2	6	1244495	6	4	4	1	0	459	1	4	0	224	6	0	0	33
fixed	7	2	7	1245492	3	1	1	1	0	648	1	4	0	200	7	0	0	37
fixed	7	2	8	1246468	2	3	3	1	0	767	1	4	0	216	8	0	0	40
fixed	7	2	9	1247518	3	2	2	1	0	1067	1	4	0	208	9	0	0	43
fixed	7	2	10	1248863	1	4	4	1	0	666	1	4	0	224	10	0	0	45
fixed	7	2	11	1250115	5	2	2	1	0	556	1	4	0	208	11	0	0	48
fixed	7	2	12	1251385	4	3	3	1	0	367	1	4	0	216	12	0	0	50
fixed	7	3	1	1252973	4	1	1	1	0	723	1	4	0	200	1	0	0	4
fixed	7	3	2	1254356	1	2	2	1	0	457	1	4	0	208	2	0	0	8
fixed	7	3	3	1255315	6	4	4	1	0	536	1	4	0	224	3	0	0	11
fixed	7	3	4	1256692	2	1	1	1	0	838	1	4	0	200	4	0	0	14
fixed	7	3	5	1257922	5	3	3	1	0	554	1	4	0	216	5	0	0	17
fixed	7	3	6	1259324	6	4	4	1	0	407	1	4	0	224	6	0	0	20
fixed	7	3	7	1260495	3	1	1	1	0	1133	1	4	0	200	7	0	0	23
fixed	7	3	8	1262203	2	3	3	1	0	917	1	4	0	216	8	0	0	25
fixed	7	3	9	1263483	3	2	2	1	0	478	1	4	0	208	9	0	0	27
fixed	7	3	10	1264434	1	4	4	1	0	478	1	4	0	224	10	0	0	29
fixed	7	3	11	1265650	5	2	2	1	0	395	1	4	0	208	11	0	0	31
fixed	7	3	12	1267059	4	3	3	1	0	327	1	4	0	216	12	0	0	33
fixed	7	4	1	1268294	4	1	1	1	0	643	1	4	0	200	1	0	0	3
fixed	7	4	2	1269429	1	2	2	1	0	410	1	4	0	208	2	0	0	5
fixed	7	4	3	1270454	6	4	4	1	0	367	1	4	0	224	3	0	0	8
fixed	7	4	4	1271476	2	1	1	1	0	660	1	4	0	200	4	0	0	10
fixed	7	4	5	1272768	5	3	3	1	0	502	1	4	0	216	5	0	0	12
fixed	7	4	6	1273927	6	4	4	1	0	364	1	4	0	224	6	0	0	14
fixed	7	4	7	1274579	3	1	1	1	0	1208	1	4	0	200	7	0	0	16
fixed	7	4	8	1276822	2	3	3	1	0	690	1	4	0	216	8	0	0	18
fixed	7	4	9	1278456	3	2	2	1	0	364	1	4	0	208	9	0	0	20
fixed	7	4	10	1279699	1	4	4	1	0	304	1	4	0	224	10	0	0	22
fixed	7	4	11	1280461	5	2	2	1	0	511	1	4	0	208	11	0	0	23
fixed	7	4	12	1281293	4	3	3	1	0	580	1	4	0	216	12	0	0	25
fixed	7	5	1	1282713	4	1	1	1	0	584	1	4	0	200	1	0	0	2
fixed	7	5	2	1284288	1	2	2	1	0	389	1	4	0	208	2	0	0	4
fixed	7	5	3	1285673	6	4	4	1	0	291	1	4	0	224	3	0	0	6
fixed	7	5	4	1286819	2	1	1	1	0	427	1	4	0	200	4	0	0	8
fixed	7	5	5	1287633	5	3	3	1	0	593	1	4	0	216	5	0	0	9
fixed	7	5	6	1288605	6	4	4	1	0	591	1	4	0	224	6	0	0	11
fixed	7	5	7	1289989	3	1	1	1	0	444	1	4	0	200	7	0	0	13
fixed	7	5	8	1290842	2	3	3	1	0	1152	1	4	0	216	8	0	0	14
fixed	7	5	9	1292542	3	2	2	1	0	504	1	4	0	208	9	0	0	16
fixed	7	5	10	1293662	1	4	4	1	0	536	1	4	0	224	10	0	0	17
fixed	7	5	11	1294508	5	2	2	1	0	804	1	4	0	208	11	0	0	19
fixed	7	5	12	1295924	4	3	3	1	0	633	1	4	0	216	12	0	0	20
fixed	7	6	1	1297265	4	1	1	1	0	639	1	4	0	200	1	0	0	2
fixed	7	6	2	1298546	1	2	2	1	0	978	1	4	0	208	2	0	0	3
fixed	7	6	3	1299899	6	4	4	1	0	512	1	4	0	224	3	0	0	5
fixed	7	6	4	1301264	2	1	1	1	0	478	1	4	0	200	4	0	0	6
fixed	7	6	5	1302106	5	3	3	1	0	531	1	4	0	216	5	0	0	8
fixed	7	6	6	1303066	6	4	4	1	0	418	1	4	0	224	6	0	0	9
fixed	7	6	7	1304205	3	1	1	1	0	498	1	4	0	200	7	0	0	10
fixed	7	6	8	1305490	2	3	3	1	0	483	1	4	0	216	8	0	0	12
fixed	7	6	9	1306586	3	2	2	1	0	357	1	4	0	208	9	0	0	13
fixed	7	6	10	1307471	1	4	4	1	0	407	1	4	0	224	10	0	0	14
fixed	7	6	11	1308692	5	2	2	1	0	412	1	4	0	208	11	0	0	15
fixed	7	6	12	1310005	4	3	3	1	0	356	1	4	0	216	12	0	0	17
fixed	7	7	1	1311416	4	1	1	1	0	576	1	4	0	200	1	0	0	1
fixed	7	7	2	1312690	1	2	2	1	0	450	1	4	0	208	2	0	0	3
fixed	7	7	3	1314126	6	4	4	1	0	173	1	4	0	224	3	0	0	4
fixed	7	7	4	1314862	2	1	1	1	0	398	1	4	0	200	4	0	0	5
fixed	7	7	5	1315737	5	3	3	1	0	538	1	4	0	216	5	0	0	6
fixed	7	7	6	1316991	6	4	4	1	0	692	1	4	0	224	6	0	0	8
fixed	7	7	7	1318398	3	1	1	1	0	680	1	4	0	200	7	0	0	9
fixed	7	7	8	1319703	2	3	3	1	0	713	1	4	0	216	8	0	0	10
fixed	7	7	9	1320908	3	2	2	1	0	430	1	4	0	208	9	0	0	11
fixed	7	7	10	1321955	1	4	4	1	0	506	1	4	0	224	10	0	0	12
fixed	7	7	11	1322832	5	2	2	1	0	957	1	4	0	208	11	0	0	13
fixed	7	7	12	1324095	4	3	3	1	0	591	1	4	0	216	12	0	0	14
fixed	7	8	1	1325768	4	1	1	1	0	408	1	4	0	200	1	0	0	1
fixed	7	8	2	1326828	1	2	2	1	0	380	1	4	0	208	2	0	0	2
fixed	7	8	3	1327627	6	4	4	1	0	546	1	4	0	224	3	0	0	3
fixed	7	8	4	1328739	2	1	1	1	0	707	1	4	0	200	4	0	0	5
fixed	7	8	5	1330178	5	3	3	1	0	757	1	4	0	216	5	0	0	6
fixed	7	8	6	1331511	6	4	4	1	0	542	1	4	0	224	6	0	0	7
fixed	7	8	7	1333025	3	1	1	1	0	709	1	4	0	200	7	0	0	8
fixed	7	8	8	1334408	2	3	3	1	0	514	1	4	0	216	8	0	0	9
fixed	7	8	9	1335867	3	2	2	1	0	325	1	4	0	208	9	0	0	10
fixed	7	8	10	1336742	1	4	4	1	0	408	1	4	0	224	10	0	0	11
fixed	7	8	11	1337587	5	2	2	1	0	452	1	4	0	208	11	0	0	12
fixed	7	8	12	1338445	4	3	3	1	0	440	1	4	0	216	12	0	0	13
fixed	7	9	1	1339886	4	1	1	1	0	482	1	4	0	200	1	0	0	1
fixed	7	9	2	1340704	1	2	2	1	0	448	1	4	0	208	2	0	0	2
fixed	7	9	3	1342144	6	4	4	1	0	299	1	4	0	224	3	0	0	3
fixed	7	9	4	1343298	2	1	1	1	0	410	1	4	0	200	4	0	0	4
fixed	7	9	5	1344373	5	3	3	1	0	317	1	4	0	216	5	0	0	5
fixed	7	9	6	1345677	6	4	4	1	0	230	1	4	0	224	6	0	0	6
fixed	7	9	7	1346456	3	1	1	1	0	956	1	4	0	200	7	0	0	7
fixed	7	9	8	1347912	2	3	3	1	0	1039	1	4	0	216	8	0	0	8
fixed	7	9	9	1349555	3	2	2	1	0	449	1	4	0	208	9	0	0	9
fixed	7	9	10	1350637	1	4	4	1	0	403	1	4	0	224	10	0	0	9
fixed	7	9	11	1351465	5	2	2	1	0	448	1	4	0	208	11	0	0	10
fixed	7	9	12	1352948	4	3	3	1	0	242	1	4	0	216	12	0	0	11
fixed	7	10	1	1354138	4	1	1	1	0	567	1	4	0	200	1	0	0	1
fixed	7	10	2	1355005	1	2	2	1	0	722	1	4	0	208	2	0	0	2
fixed	7	10	3	1356437	6	4	4	1	0	310	1	4	0	224	3	0	0	3
fixed	7	10	4	1357609	2	1	1	1	0	428	1	4	0	200	4	0	0	4
fixed	7	10	5	1358905	5	3	3	1	0	397	1	4	0	216	5	0	0	4
fixed	7	10	6	1360208	6	4	4	1	0	294	1	4	0	224	6	0	0	5
fixed	7	10	7	1361314	3	1	1	1	0	463	1	4	0	200	7	0	0	6
fixed	7	10	8	1362264	2	3	3	1	0	663	1	4	0	216	8	0	0	7
fixed	7	10	9	1363625	3	2	2	1	0	1005	1	4	0	208	9	0	0	8
fixed	7	10	10	1365030	1	4	4	1	0	457	1	4	0	224	10	0	0	8
fixed	7	10	11	1366045	5	2	2	1	0	615	1	4	0	208	11	0	0	9
fixed	7	10	12	1367439	4	3	3	1	0	627	1	4	0	216	12	0	0	10
