type	block	sequ.	trial	time	Pos.	Color	Button	NumRsp	Resp_1	RT_1	R_Code	Resp_2	RT_2	Trigg.	n_hit	n_inc	n_miss	score_%

random	1	1	1	1362	6	1	1	1	0	1508	1	4	0	8	1	0	0	100
random	1	1	2	3797	4	4	4	1	0	781	1	4	0	32	2	0	0	100
random	1	1	3	5361	2	2	2	1	0	859	1	4	0	16	3	0	0	100
random	1	1	4	6629	3	3	3	1	0	509	1	4	0	24	4	0	0	100
random	1	1	5	7615	5	2	2	1	0	995	1	4	0	16	5	0	0	100
random	1	1	6	9107	1	4	4	1	0	780	1	4	0	32	6	0	0	100
random	1	1	7	10363	6	1	1	1	0	855	1	4	0	8	7	0	0	100
random	1	1	8	11892	2	3	3	1	0	1046	1	4	0	24	8	0	0	100
random	1	1	9	13748	4	2	2	1	0	928	1	4	0	16	9	0	0	100
random	1	1	10	15349	1	1	1	1	0	868	1	4	0	8	10	0	0	100
random	1	1	11	17127	5	4	4	1	0	649	1	4	0	32	11	0	0	100
random	1	1	12	18249	3	3	3	1	0	993	1	4	0	24	12	0	0	100
random	1	1	13	20092	5	2	2	1	0	1411	1	4	0	16	13	0	0	100
random	1	1	14	21864	1	4	4	1	0	760	1	4	0	32	14	0	0	100
random	1	1	15	23393	3	1	1	1	0	919	1	4	0	8	15	0	0	100
random	1	1	16	25215	4	3	3	1	0	842	1	4	0	24	16	0	0	100
random	1	1	17	26429	6	4	4	1	0	670	1	4	0	32	17	0	0	100
random	1	1	18	27629	2	1	1	1	0	931	1	4	0	8	18	0	0	100
random	1	1	19	29286	5	3	3	1	0	757	1	4	0	24	19	0	0	100
random	1	1	20	31006	2	2	2	1	0	541	1	4	0	16	20	0	0	100
random	1	1	21	31838	3	3	3	1	0	1033	1	4	0	24	21	0	0	100
random	1	1	22	33185	6	1	1	1	0	1241	1	4	0	8	22	0	0	100
random	1	1	23	34922	4	2	2	1	0	943	1	4	0	16	23	0	0	100
random	1	1	24	36558	1	4	4	1	0	610	1	4	0	32	24	0	0	100
random	1	1	25	38438	4	3	3	1	0	1266	1	4	0	24	25	0	0	100
random	1	1	26	40438	2	1	1	1	0	853	1	4	0	8	26	0	0	100
random	1	1	27	42210	5	2	2	1	0	930	1	4	0	16	27	0	0	100
random	1	1	28	43912	6	4	4	1	0	682	1	4	0	32	28	0	0	100
random	1	1	29	45054	1	3	3	1	0	1057	1	4	0	24	29	0	0	100
random	1	1	30	46626	5	2	2	1	0	919	1	4	0	16	30	0	0	100
random	1	1	31	48251	2	1	1	1	0	714	1	4	0	8	31	0	0	100
random	1	1	32	49376	3	3	3	1	0	963	1	4	0	24	32	0	0	100
random	1	1	33	51191	6	4	4	1	0	718	1	4	0	32	33	0	0	100
random	1	1	34	52418	4	2	2	1	0	970	1	4	0	16	34	0	0	100
random	1	1	35	54304	3	4	4	1	0	578	1	4	0	32	35	0	0	100
random	1	1	36	55216	1	1	1	1	0	867	1	4	0	8	36	0	0	100
random	1	1	37	57234	3	4	4	1	0	766	1	4	0	32	37	0	0	100
random	1	1	38	58528	5	3	3	1	0	1127	1	4	0	24	38	0	0	100
random	1	1	39	60362	6	1	1	1	0	929	1	4	0	8	39	0	0	100
random	1	1	40	61874	1	2	2	1	0	914	1	4	0	16	40	0	0	100
random	1	1	41	63790	2	3	3	1	0	984	1	4	0	24	41	0	0	100
random	1	1	42	65057	4	4	4	1	0	610	1	4	0	32	42	0	0	100
random	1	1	43	66005	1	2	2	1	0	770	1	4	0	16	43	0	0	100
random	1	1	44	67509	6	3	3	1	0	914	1	4	0	24	44	0	0	100
random	1	1	45	69150	3	1	1	1	0	725	1	4	0	8	45	0	0	100
random	1	1	46	70758	4	4	4	1	0	625	1	4	0	32	46	0	0	100
random	1	1	47	72196	2	2	2	1	0	900	1	4	0	16	47	0	0	100
random	1	1	48	73772	5	1	1	1	0	1058	1	4	0	8	48	0	0	100
random	1	1	49	75797	2	3	3	1	0	939	1	4	0	24	49	0	0	100
random	1	1	50	77267	3	1	1	1	0	917	1	4	0	8	50	0	0	100
random	1	1	51	78946	1	4	4	1	0	606	1	4	0	32	51	0	0	100
random	1	1	52	80406	5	3	3	2	0	1328	2	4	0	24	52	0	0	100
random	1	1	53	82041	3	2	2	1	0	923	1	4	0	16	53	0	0	100
random	1	1	54	83366	6	4	4	1	0	755	1	4	0	32	54	0	0	100
random	1	1	55	84682	4	2	2	1	0	852	1	4	0	16	55	0	0	100
random	1	1	56	86563	1	1	1	1	0	940	1	4	0	8	56	0	0	100
random	1	1	57	87831	5	4	4	1	0	710	1	4	0	32	57	0	0	100
random	1	1	58	89555	2	1	1	1	0	981	1	4	0	8	58	0	0	100
random	1	1	59	91275	6	2	2	1	0	1172	1	4	0	16	59	0	0	100
random	1	1	60	93055	4	3	3	1	0	664	1	4	0	24	60	0	0	100
random	1	1	61	94977	1	2	2	1	0	1023	1	4	0	16	61	0	0	100
random	1	1	62	96674	6	4	4	1	0	703	1	4	0	32	62	0	0	100
random	1	1	63	98189	4	1	1	1	0	975	1	4	0	8	63	0	0	100
random	1	1	64	99504	2	2	2	1	0	911	1	4	0	16	64	0	0	100
random	1	1	65	101386	4	3	3	1	0	744	1	4	0	24	65	0	0	100
random	1	1	66	102513	3	1	1	1	0	976	1	4	0	8	66	0	0	100
random	1	1	67	104332	1	3	3	1	0	891	1	4	0	24	67	0	0	100
random	1	1	68	105772	5	4	4	1	0	694	1	4	0	32	68	0	0	100
random	1	1	69	106868	2	2	2	1	0	904	1	4	0	16	69	0	0	100
random	1	1	70	108363	3	1	1	1	0	928	1	4	0	8	70	0	0	100
random	1	1	71	109935	5	4	4	1	0	686	1	4	0	32	71	0	0	100
random	1	1	72	111555	6	3	3	1	0	1089	1	4	0	24	72	0	0	100
random	1	1	73	113405	2	1	1	1	0	914	1	4	0	8	73	0	0	100
random	1	1	74	114870	5	3	3	1	0	1109	1	4	0	24	74	0	0	100
random	1	1	75	116405	1	4	4	1	0	724	1	4	0	32	75	0	0	100
random	1	1	76	117418	6	2	2	1	0	865	1	4	0	16	76	0	0	100
random	1	1	77	118930	2	1	1	1	0	897	1	4	0	8	77	0	0	100
random	1	1	78	120843	4	4	4	1	0	712	1	4	0	32	78	0	0	100
random	1	1	79	121989	3	2	2	2	0	1247	2	4	0	16	79	0	0	100
random	1	1	80	123921	4	3	3	1	0	989	1	4	0	24	80	0	0	100
random	1	1	81	125347	1	4	4	1	0	809	1	4	0	32	81	0	0	100
random	1	1	82	126600	5	1	1	1	0	916	1	4	0	8	82	0	0	100
random	1	1	83	128497	3	2	2	1	0	947	1	4	0	16	83	0	0	100
random	1	1	84	129864	6	3	3	1	0	841	1	4	0	24	84	0	0	100
random	1	1	85	131767	3	2	2	1	0	1217	1	4	0	16	85	0	0	100
random	1	1	86	133710	1	3	3	1	0	903	1	4	0	24	86	0	0	100
random	1	1	87	135535	4	4	4	1	0	642	1	4	0	32	87	0	0	100
random	1	1	88	136941	2	1	1	1	0	782	1	4	0	8	88	0	0	100
random	1	1	89	138303	6	4	4	1	0	724	1	4	0	32	89	0	0	100
random	1	1	90	139882	3	3	3	1	0	1041	1	4	0	24	90	0	0	100
random	1	1	91	141855	5	4	4	1	0	678	1	4	0	32	91	0	0	100
random	1	1	92	143551	1	2	2	2	0	2190	2	4	0	16	92	0	0	100
random	1	1	93	146663	5	1	1	1	0	850	1	4	0	8	93	0	0	100
random	1	1	94	148203	4	3	3	1	0	913	1	4	0	24	94	0	0	100
random	1	1	95	149680	6	1	1	1	0	1082	1	4	0	8	95	0	0	100
random	1	1	96	151261	2	2	2	1	0	912	1	4	0	16	96	0	0	100
random	1	1	97	152886	4	3	3	1	0	1042	1	4	0	24	97	0	0	100
random	1	1	98	154398	3	2	2	1	0	1003	1	4	0	16	98	0	0	100
random	1	1	99	155733	6	3	3	1	0	1538	1	4	0	24	99	0	0	100
random	1	1	100	158300	1	4	4	1	0	629	1	4	0	32	100	0	0	100
random	1	1	101	159920	4	1	1	1	0	872	1	4	0	8	101	0	0	100
random	1	1	102	161658	5	2	2	1	0	1199	1	4	0	16	102	0	0	100
random	1	1	103	163624	2	4	4	1	0	732	1	4	0	32	103	0	0	100
random	1	1	104	165185	3	1	1	1	0	1089	1	4	0	8	104	0	0	100
random	1	1	105	166661	1	3	3	1	0	867	1	4	0	24	105	0	0	100
random	1	1	106	168336	2	2	2	1	0	796	1	4	0	16	106	0	0	100
random	1	1	107	169907	5	4	4	1	0	538	1	4	0	32	107	0	0	100
random	1	1	108	171457	6	1	1	1	0	1120	1	4	0	8	108	0	0	100
random	1	1	109	173302	5	4	4	1	0	713	1	4	0	32	109	0	0	100
random	1	1	110	174619	6	3	3	1	0	810	1	4	0	24	110	0	0	100
random	1	1	111	175811	2	2	2	1	0	719	1	4	0	16	111	0	0	100
random	1	1	112	177193	3	1	1	1	0	965	1	4	0	8	112	0	0	100
random	1	1	113	179106	1	2	2	1	0	1172	1	4	0	16	113	0	0	100
random	1	1	114	180934	2	3	3	1	0	663	1	4	0	24	114	0	0	100
random	1	1	115	182227	3	1	1	1	0	1144	1	4	0	8	115	0	0	100
random	1	1	116	183943	4	4	4	1	0	623	1	4	0	32	116	0	0	100
random	1	1	117	185416	6	1	1	1	0	944	1	4	0	8	117	0	0	100
random	1	1	118	187365	5	3	3	1	0	894	1	4	0	24	118	0	0	100
random	1	1	119	189238	1	4	4	1	0	703	1	4	0	32	119	0	0	100
random	1	1	120	190704	4	2	2	1	0	833	1	4	0	16	120	0	0	100
fixed	2	1	1	192497	4	1	1	1	0	965	1	4	0	40	1	0	0	100
fixed	2	1	2	194030	1	2	2	1	0	1052	1	4	0	48	2	0	0	100
fixed	2	1	3	195666	6	4	4	1	0	711	1	4	0	64	3	0	0	100
fixed	2	1	4	197280	2	1	1	1	0	922	1	4	0	40	4	0	0	100
fixed	2	1	5	198632	5	3	3	1	0	809	1	4	0	56	5	0	0	100
fixed	2	1	6	200204	6	4	4	1	0	734	1	4	0	64	6	0	0	100
fixed	2	1	7	201400	3	1	1	1	0	924	1	4	0	40	7	0	0	100
fixed	2	1	8	202756	2	3	3	1	0	970	1	4	0	56	8	0	0	100
fixed	2	1	9	204133	3	2	2	1	0	920	1	4	0	48	9	0	0	100
fixed	2	1	10	205551	1	4	4	1	0	708	1	4	0	64	10	0	0	100
fixed	2	1	11	207245	5	2	2	1	0	796	1	4	0	48	11	0	0	100
fixed	2	1	12	208719	4	3	3	1	0	654	1	4	0	56	12	0	0	100
fixed	2	2	1	210661	4	1	1	1	0	1059	1	4	0	40	13	0	0	100
fixed	2	2	2	212154	1	2	2	1	0	980	1	4	0	48	14	0	0	100
fixed	2	2	3	214108	6	4	4	1	0	745	1	4	0	64	15	0	0	100
fixed	2	2	4	215810	2	1	1	1	0	793	1	4	0	40	16	0	0	100
fixed	2	2	5	217370	5	3	3	1	0	736	1	4	0	56	17	0	0	100
fixed	2	2	6	218523	6	4	4	1	0	727	1	4	0	64	18	0	0	100
fixed	2	2	7	219637	3	1	1	1	0	847	1	4	0	40	19	0	0	100
fixed	2	2	8	221387	2	3	3	1	0	949	1	4	0	56	20	0	0	100
fixed	2	2	9	222798	3	2	2	1	0	953	1	4	0	48	21	0	0	100
fixed	2	2	10	224473	1	4	4	1	0	683	1	4	0	64	22	0	0	100
fixed	2	2	11	225570	5	2	2	1	0	892	1	4	0	48	23	0	0	100
fixed	2	2	12	227067	4	3	3	1	0	940	1	4	0	56	24	0	0	100
fixed	2	3	1	228772	4	1	1	1	0	972	1	4	0	40	25	0	0	100
fixed	2	3	2	230206	1	2	2	1	0	944	1	4	0	48	26	0	0	100
fixed	2	3	3	232077	6	4	4	1	0	656	1	4	0	64	27	0	0	100
fixed	2	3	4	233713	2	1	1	1	0	1011	1	4	0	40	28	0	0	100
fixed	2	3	5	235038	5	3	3	1	0	763	1	4	0	56	29	0	0	100
fixed	2	3	6	236497	6	4	4	1	0	677	1	4	0	64	30	0	0	100
fixed	2	3	7	238101	3	1	1	1	0	897	1	4	0	40	31	0	0	100
fixed	2	3	8	239528	2	3	3	1	0	749	1	4	0	56	32	0	0	100
fixed	2	3	9	241115	3	2	2	1	0	674	1	4	0	48	33	0	0	100
fixed	2	3	10	242421	1	4	4	1	0	602	1	4	0	64	34	0	0	100
fixed	2	3	11	243958	5	2	2	1	0	897	1	4	0	48	35	0	0	100
fixed	2	3	12	245288	4	3	3	1	0	833	1	4	0	56	36	0	0	100
fixed	2	4	1	246749	4	1	1	1	0	891	1	4	0	40	37	0	0	100
fixed	2	4	2	248054	1	2	2	1	0	1036	1	4	0	48	38	0	0	100
fixed	2	4	3	249950	6	4	4	1	0	620	1	4	0	64	39	0	0	100
fixed	2	4	4	251098	2	1	1	1	0	731	1	4	0	40	40	0	0	100
fixed	2	4	5	252199	5	3	3	1	0	900	1	4	0	56	41	0	0	100
fixed	2	4	6	253859	6	4	4	1	0	742	1	4	0	64	42	0	0	100
fixed	2	4	7	254981	3	1	1	1	0	951	1	4	0	40	43	0	0	100
fixed	2	4	8	256352	2	3	3	1	0	972	1	4	0	56	44	0	0	100
fixed	2	4	9	258243	3	2	2	1	0	764	1	4	0	48	45	0	0	100
fixed	2	4	10	260041	1	4	4	1	0	680	1	4	0	64	46	0	0	100
fixed	2	4	11	261694	5	2	2	1	0	882	1	4	0	48	47	0	0	100
fixed	2	4	12	263290	4	3	3	1	0	662	1	4	0	56	48	0	0	100
fixed	2	5	1	264626	4	1	1	1	0	886	1	4	0	40	49	0	0	100
fixed	2	5	2	266482	1	2	2	1	0	959	1	4	0	48	50	0	0	100
fixed	2	5	3	267944	6	4	4	1	0	585	1	4	0	64	51	0	0	100
fixed	2	5	4	269214	2	1	1	1	0	804	1	4	0	40	52	0	0	100
fixed	2	5	5	270832	5	3	3	1	0	903	1	4	0	56	53	0	0	100
fixed	2	5	6	272639	6	4	4	1	0	763	1	4	0	64	54	0	0	100
fixed	2	5	7	274092	3	1	1	1	0	1005	1	4	0	40	55	0	0	100
fixed	2	5	8	276079	2	3	3	1	0	953	1	4	0	56	56	0	0	100
fixed	2	5	9	277356	3	2	2	1	0	730	1	4	0	48	57	0	0	100
fixed	2	5	10	278919	1	4	4	1	0	569	1	4	0	64	58	0	0	100
fixed	2	5	11	279915	5	2	2	1	0	846	1	4	0	48	59	0	0	100
fixed	2	5	12	281696	4	3	3	1	0	1147	1	4	0	56	60	0	0	100
fixed	2	6	1	283456	4	1	1	1	0	928	1	4	0	40	61	0	0	100
fixed	2	6	2	284866	1	2	2	1	0	1613	1	4	0	48	62	0	0	100
fixed	2	6	3	286910	6	4	4	1	0	710	1	4	0	64	63	0	0	100
fixed	2	6	4	288055	2	1	1	1	0	757	1	4	0	40	64	0	0	100
fixed	2	6	5	289251	5	3	3	1	0	771	1	4	0	56	65	0	0	100
fixed	2	6	6	290904	6	4	4	1	0	669	1	4	0	64	66	0	0	100
fixed	2	6	7	292402	3	1	1	1	0	869	1	4	0	40	67	0	0	100
fixed	2	6	8	294234	2	3	3	1	0	712	1	4	0	56	68	0	0	100
fixed	2	6	9	295894	3	2	2	1	0	650	1	4	0	48	69	0	0	100
fixed	2	6	10	297117	1	4	4	1	0	678	1	4	0	64	70	0	0	100
fixed	2	6	11	298708	5	2	2	1	0	898	1	4	0	48	71	0	0	100
fixed	2	6	12	300497	4	3	3	1	0	598	1	4	0	56	72	0	0	100
fixed	2	7	1	301768	4	1	1	1	0	832	1	4	0	40	73	0	0	100
fixed	2	7	2	303122	1	2	2	1	0	1071	1	4	0	48	74	0	0	100
fixed	2	7	3	304878	6	4	4	1	0	645	1	4	0	64	75	0	0	100
fixed	2	7	4	305887	2	1	1	1	0	1138	1	4	0	40	76	0	0	100
fixed	2	7	5	307968	5	3	3	1	0	786	1	4	0	56	77	0	0	100
fixed	2	7	6	309221	6	4	4	1	0	669	1	4	0	64	78	0	0	100
fixed	2	7	7	310357	3	1	1	1	0	949	1	4	0	40	79	0	0	100
fixed	2	7	8	311747	2	3	3	1	0	946	1	4	0	56	80	0	0	100
fixed	2	7	9	313191	3	2	2	1	0	605	1	4	0	48	81	0	0	100
fixed	2	7	10	314829	1	4	4	1	0	880	1	4	0	64	82	0	0	100
fixed	2	7	11	316634	5	2	2	1	0	795	1	4	0	48	83	0	0	100
fixed	2	7	12	318048	4	3	3	1	0	695	1	4	0	56	84	0	0	100
fixed	2	8	1	319294	4	1	1	1	0	882	1	4	0	40	85	0	0	100
fixed	2	8	2	320720	1	2	2	1	0	1094	1	4	0	48	86	0	0	100
fixed	2	8	3	322684	6	4	4	1	0	659	1	4	0	64	87	0	0	100
fixed	2	8	4	323674	2	1	1	1	0	825	1	4	0	40	88	0	0	100
fixed	2	8	5	324858	5	3	3	1	0	863	1	4	0	56	89	0	0	100
fixed	2	8	6	326745	6	4	4	1	0	655	1	4	0	64	90	0	0	100
fixed	2	8	7	328080	3	1	1	1	0	822	1	4	0	40	91	0	0	100
fixed	2	8	8	329422	2	3	3	1	0	805	1	4	0	56	92	0	0	100
fixed	2	8	9	331206	3	2	2	1	0	746	1	4	0	48	93	0	0	100
fixed	2	8	10	332755	1	4	4	1	0	617	1	4	0	64	94	0	0	100
fixed	2	8	11	334087	5	2	2	1	0	832	1	4	0	48	95	0	0	100
fixed	2	8	12	335360	4	3	3	1	0	898	1	4	0	56	96	0	0	100
fixed	2	9	1	336804	4	1	1	1	0	925	1	4	0	40	97	0	0	100
fixed	2	9	2	338562	1	2	2	1	0	1122	1	4	0	48	98	0	0	100
fixed	2	9	3	340382	6	4	4	1	0	701	1	4	0	64	99	0	0	100
fixed	2	9	4	341505	2	1	1	1	0	902	1	4	0	40	100	0	0	100
fixed	2	9	5	343375	5	3	3	1	0	702	1	4	0	56	101	0	0	100
fixed	2	9	6	344517	6	4	4	1	0	750	1	4	0	64	102	0	0	100
fixed	2	9	7	346165	3	1	1	1	0	848	1	4	0	40	103	0	0	100
fixed	2	9	8	348038	2	3	3	1	0	881	1	4	0	56	104	0	0	100
fixed	2	9	9	349453	3	2	2	1	0	677	1	4	0	48	105	0	0	100
fixed	2	9	10	350705	1	4	4	1	0	592	1	4	0	64	106	0	0	100
fixed	2	9	11	351774	5	2	2	1	0	787	1	4	0	48	107	0	0	100
fixed	2	9	12	353400	4	3	3	1	0	798	1	4	0	56	108	0	0	100
fixed	2	10	1	355199	4	1	1	1	0	801	1	4	0	40	109	0	0	100
fixed	2	10	2	356434	1	2	2	1	0	1925	1	4	0	48	110	0	0	100
fixed	2	10	3	358913	6	4	4	1	0	684	1	4	0	64	111	0	0	100
fixed	2	10	4	359899	2	1	1	1	0	1107	1	4	0	40	112	0	0	100
fixed	2	10	5	361924	5	3	3	1	0	901	1	4	0	56	113	0	0	100
fixed	2	10	6	363610	6	4	4	1	0	637	1	4	0	64	114	0	0	100
fixed	2	10	7	365271	3	1	1	1	0	903	1	4	0	40	115	0	0	100
fixed	2	10	8	366873	2	3	3	1	0	795	1	4	0	56	116	0	0	100
fixed	2	10	9	368266	3	2	2	1	0	864	1	4	0	48	117	0	0	100
fixed	2	10	10	369439	1	4	4	1	0	655	1	4	0	64	118	0	0	100
fixed	2	10	11	370481	5	2	2	1	0	843	1	4	0	48	119	0	0	100
fixed	2	10	12	371954	4	3	3	1	0	900	1	4	0	56	120	0	0	100
fixed	3	1	1	374293	4	1	1	1	0	537	1	4	0	72	1	0	0	100
fixed	3	1	2	375344	1	2	2	1	0	1085	1	4	0	80	2	0	0	100
fixed	3	1	3	377263	6	4	4	1	0	643	1	4	0	96	3	0	0	100
fixed	3	1	4	378793	2	1	1	1	0	810	1	4	0	72	4	0	0	100
fixed	3	1	5	380284	5	3	3	1	0	667	1	4	0	88	5	0	0	100
fixed	3	1	6	381735	6	4	4	1	0	718	1	4	0	96	6	0	0	100
fixed	3	1	7	382978	3	1	1	1	0	905	1	4	0	72	7	0	0	100
fixed	3	1	8	384757	2	3	3	1	0	814	1	4	0	88	8	0	0	100
fixed	3	1	9	386375	3	2	2	1	0	945	1	4	0	80	9	0	0	100
fixed	3	1	10	387869	1	4	4	1	0	618	1	4	0	96	10	0	0	100
fixed	3	1	11	389005	5	2	2	1	0	898	1	4	0	80	11	0	0	100
fixed	3	1	12	390312	4	3	3	1	0	899	1	4	0	88	12	0	0	100
fixed	3	2	1	392423	4	1	1	1	0	945	1	4	0	72	13	0	0	100
fixed	3	2	2	393811	1	2	2	1	0	1110	1	4	0	80	14	0	0	100
fixed	3	2	3	395256	6	4	4	1	0	769	1	4	0	96	15	0	0	100
fixed	3	2	4	396449	2	1	1	1	0	846	1	4	0	72	16	0	0	100
fixed	3	2	5	398311	5	3	3	1	0	880	1	4	0	88	17	0	0	100
fixed	3	2	6	399910	6	4	4	1	0	644	1	4	0	96	18	0	0	100
fixed	3	2	7	401140	3	1	1	1	0	920	1	4	0	72	19	0	0	100
fixed	3	2	8	402740	2	3	3	1	0	1172	1	4	0	88	20	0	0	100
fixed	3	2	9	404631	3	2	2	1	0	996	1	4	0	80	21	0	0	100
fixed	3	2	10	406599	1	4	4	1	0	689	1	4	0	96	22	0	0	100
fixed	3	2	11	408076	5	2	2	1	0	754	1	4	0	80	23	0	0	100
fixed	3	2	12	409160	4	3	3	1	0	788	1	4	0	88	24	0	0	100
fixed	3	3	1	411069	4	1	1	1	0	811	1	4	0	72	25	0	0	100
fixed	3	3	2	412801	1	2	2	1	0	850	1	4	0	80	26	0	0	100
fixed	3	3	3	414350	6	4	4	1	0	696	1	4	0	96	27	0	0	100
fixed	3	3	4	415687	2	1	1	1	0	880	1	4	0	72	28	0	0	100
fixed	3	3	5	417144	5	3	3	1	0	746	1	4	0	88	29	0	0	100
fixed	3	3	6	418646	6	4	4	1	0	690	1	4	0	96	30	0	0	100
fixed	3	3	7	420289	3	1	1	1	0	916	1	4	0	72	31	0	0	100
fixed	3	3	8	421728	2	3	3	1	0	808	1	4	0	88	32	0	0	100
fixed	3	3	9	422910	3	2	2	1	0	662	1	4	0	80	33	0	0	100
fixed	3	3	10	424204	1	4	4	1	0	687	1	4	0	96	34	0	0	100
fixed	3	3	11	425628	5	2	2	1	0	835	1	4	0	80	35	0	0	100
fixed	3	3	12	427211	4	3	3	1	0	623	1	4	0	88	36	0	0	100
fixed	3	4	1	428428	4	1	1	1	0	868	1	4	0	72	37	0	0	100
fixed	3	4	2	430319	1	2	2	1	0	924	1	4	0	80	38	0	0	100
fixed	3	4	3	431869	6	4	4	1	0	674	1	4	0	96	39	0	0	100
fixed	3	4	4	433106	2	1	1	1	0	918	1	4	0	72	40	0	0	100
fixed	3	4	5	434481	5	3	3	1	0	828	1	4	0	88	41	0	0	100
fixed	3	4	6	436081	6	4	4	1	0	752	1	4	0	96	42	0	0	100
fixed	3	4	7	437604	3	1	1	1	0	967	1	4	0	72	43	0	0	100
fixed	3	4	8	439036	2	3	3	1	0	970	1	4	0	88	44	0	0	100
fixed	3	4	9	440928	3	2	2	1	0	626	1	4	0	80	45	0	0	100
fixed	3	4	10	442579	1	4	4	1	0	668	1	4	0	96	46	0	0	100
fixed	3	4	11	443864	5	2	2	1	0	830	1	4	0	80	47	0	0	100
fixed	3	4	12	445204	4	3	3	1	0	797	1	4	0	88	48	0	0	100
fixed	3	5	1	446656	4	1	1	1	0	808	1	4	0	72	49	0	0	100
fixed	3	5	2	448238	1	2	2	1	0	1173	1	4	0	80	50	0	0	100
fixed	3	5	3	450270	6	4	4	1	0	655	1	4	0	96	51	0	0	100
fixed	3	5	4	451718	2	1	1	1	0	833	1	4	0	72	52	0	0	100
fixed	3	5	5	452999	5	3	3	1	0	716	1	4	0	88	53	0	0	100
fixed	3	5	6	454262	6	4	4	1	0	662	1	4	0	96	54	0	0	100
fixed	3	5	7	455701	3	1	1	1	0	785	1	4	0	72	55	0	0	100
fixed	3	5	8	457376	2	3	3	1	0	1026	1	4	0	88	56	0	0	100
fixed	3	5	9	459367	3	2	2	1	0	718	1	4	0	80	57	0	0	100
fixed	3	5	10	460880	1	4	4	1	0	542	1	4	0	96	58	0	0	100
fixed	3	5	11	461929	5	2	2	1	0	1089	1	4	0	80	59	0	0	100
fixed	3	5	12	463927	4	3	3	1	0	621	1	4	0	88	60	0	0	100
fixed	3	6	1	465653	4	1	1	1	0	787	1	4	0	72	61	0	0	100
fixed	3	6	2	467190	1	2	2	1	0	882	1	4	0	80	62	0	0	100
fixed	3	6	3	468630	6	4	4	1	0	693	1	4	0	96	63	0	0	100
fixed	3	6	4	470288	2	1	1	1	0	855	1	4	0	72	64	0	0	100
fixed	3	6	5	471886	5	3	3	1	0	707	1	4	0	88	65	0	0	100
fixed	3	6	6	472935	6	4	4	1	0	759	1	4	0	96	66	0	0	100
fixed	3	6	7	474410	3	1	1	1	0	1032	1	4	0	72	67	0	0	100
fixed	3	6	8	476394	2	3	3	1	0	860	1	4	0	88	68	0	0	100
fixed	3	6	9	478032	3	2	2	1	0	655	1	4	0	80	69	0	0	100
fixed	3	6	10	479169	1	4	4	1	0	663	1	4	0	96	70	0	0	100
fixed	3	6	11	480474	5	2	2	1	0	847	1	4	0	80	71	0	0	100
fixed	3	6	12	481740	4	3	3	1	0	722	1	4	0	88	72	0	0	100
fixed	3	7	1	483547	4	1	1	1	0	709	1	4	0	72	73	0	0	100
fixed	3	7	2	485124	1	2	2	2	0	1171	2	4	0	80	74	0	0	100
fixed	3	7	3	486879	6	4	4	1	0	680	1	4	0	96	75	0	0	100
fixed	3	7	4	488164	2	1	1	1	0	1186	1	4	0	72	76	0	0	100
fixed	3	7	5	490126	5	3	3	1	0	783	1	4	0	88	77	0	0	100
fixed	3	7	6	491319	6	4	4	1	0	716	1	4	0	96	78	0	0	100
fixed	3	7	7	493060	3	1	1	1	0	835	1	4	0	72	79	0	0	100
fixed	3	7	8	494488	2	3	3	1	0	878	1	4	0	88	80	0	0	100
fixed	3	7	9	495848	3	2	2	1	0	780	1	4	0	80	81	0	0	100
fixed	3	7	10	497424	1	4	4	1	0	586	1	4	0	96	82	0	0	100
fixed	3	7	11	498839	5	2	2	1	0	758	1	4	0	80	83	0	0	100
fixed	3	7	12	500112	4	3	3	1	0	664	1	4	0	88	84	0	0	100
fixed	3	8	1	501541	4	1	1	1	0	699	1	4	0	72	85	0	0	100
fixed	3	8	2	503030	1	2	2	1	0	900	1	4	0	80	86	0	0	100
fixed	3	8	3	504730	6	4	4	1	0	668	1	4	0	96	87	0	0	100
fixed	3	8	4	506165	2	1	1	1	0	800	1	4	0	72	88	0	0	100
fixed	3	8	5	507895	5	3	3	1	0	742	1	4	0	88	89	0	0	100
fixed	3	8	6	509161	6	4	4	1	0	784	1	4	0	96	90	0	0	100
fixed	3	8	7	510407	3	1	1	1	0	868	1	4	0	72	91	0	0	100
fixed	3	8	8	511766	2	3	3	1	0	978	1	4	0	88	92	0	0	100
fixed	3	8	9	513574	3	2	2	1	0	598	1	4	0	80	93	0	0	100
fixed	3	8	10	514788	1	4	4	1	0	610	1	4	0	96	94	0	0	100
fixed	3	8	11	515760	5	2	2	1	0	793	1	4	0	80	95	0	0	100
fixed	3	8	12	517543	4	3	3	1	0	742	1	4	0	88	96	0	0	100
fixed	3	9	1	519051	4	1	1	1	0	670	1	4	0	72	97	0	0	100
fixed	3	9	2	520071	1	2	2	1	0	1066	1	4	0	80	98	0	0	100
fixed	3	9	3	521798	6	4	4	1	0	713	1	4	0	96	99	0	0	100
fixed	3	9	4	523530	2	1	1	1	0	872	1	4	0	72	100	0	0	100
fixed	3	9	5	524941	5	3	3	1	0	748	1	4	0	88	101	0	0	100
fixed	3	9	6	526139	6	4	4	1	0	697	1	4	0	96	102	0	0	100
fixed	3	9	7	527167	3	1	1	1	0	1070	1	4	0	72	103	0	0	100
fixed	3	9	8	528777	2	3	3	1	0	1114	1	4	0	88	104	0	0	100
fixed	3	9	9	530786	3	2	2	1	0	861	1	4	0	80	105	0	0	100
fixed	3	9	10	532240	1	4	4	1	0	727	1	4	0	96	106	0	0	100
fixed	3	9	11	533679	5	2	2	1	0	898	1	4	0	80	107	0	0	100
fixed	3	9	12	535257	4	3	3	1	0	1031	1	4	0	88	108	0	0	100
fixed	3	10	1	537412	4	1	1	1	0	812	1	4	0	72	109	0	0	100
fixed	3	10	2	538875	1	2	2	1	0	982	1	4	0	80	110	0	0	100
fixed	3	10	3	540511	6	4	4	1	0	737	1	4	0	96	111	0	0	100
fixed	3	10	4	542237	2	1	1	1	0	792	1	4	0	72	112	0	0	100
fixed	3	10	5	544051	5	3	3	1	0	875	1	4	0	88	113	0	0	100
fixed	3	10	6	545307	6	4	4	1	0	734	1	4	0	96	114	0	0	100
fixed	3	10	7	546727	3	1	1	1	0	970	1	4	0	72	115	0	0	100
fixed	3	10	8	548674	2	3	3	2	0	1127	2	4	0	88	116	0	0	100
fixed	3	10	9	550279	3	2	2	1	0	867	1	4	0	80	117	0	0	100
fixed	3	10	10	552066	1	4	4	1	0	535	1	4	0	96	118	0	0	100
fixed	3	10	11	553233	5	2	2	1	0	998	1	4	0	80	119	0	0	100
fixed	3	10	12	554526	4	3	3	1	0	719	1	4	0	88	120	0	0	100
fixed	4	1	1	693911	4	1	1	1	0	1455	1	4	0	104	1	0	0	100
fixed	4	1	2	695809	1	2	2	1	0	879	1	4	0	112	2	0	0	100
fixed	4	1	3	697449	6	4	4	1	0	514	1	4	0	128	3	0	0	100
fixed	4	1	4	698667	2	1	1	1	0	774	1	4	0	104	4	0	0	100
fixed	4	1	5	700282	5	3	3	1	0	1018	1	4	0	120	5	0	0	100
fixed	4	1	6	701802	6	4	4	1	0	665	1	4	0	128	6	0	0	100
fixed	4	1	7	703355	3	1	1	1	0	903	1	4	0	104	7	0	0	100
fixed	4	1	8	705211	2	3	3	1	0	1041	1	4	0	120	8	0	0	100
fixed	4	1	9	706789	3	2	2	1	0	758	1	4	0	112	9	0	0	100
fixed	4	1	10	708401	1	4	4	1	0	506	1	4	0	128	10	0	0	100
fixed	4	1	11	709359	5	2	2	1	0	841	1	4	0	112	11	0	0	100
fixed	4	1	12	710748	4	3	3	1	0	815	1	4	0	120	12	0	0	100
fixed	4	2	1	712843	4	1	1	1	0	918	1	4	0	104	13	0	0	100
fixed	4	2	2	714095	1	2	2	1	0	944	1	4	0	112	14	0	0	100
fixed	4	2	3	715633	6	4	4	1	0	639	1	4	0	128	15	0	0	100
fixed	4	2	4	716821	2	1	1	1	0	853	1	4	0	104	16	0	0	100
fixed	4	2	5	718203	5	3	3	1	0	771	1	4	0	120	17	0	0	100
fixed	4	2	6	719309	6	4	4	1	0	740	1	4	0	128	18	0	0	100
fixed	4	2	7	720482	3	1	1	1	0	867	1	4	0	104	19	0	0	100
fixed	4	2	8	722173	2	3	3	1	0	1251	1	4	0	120	20	0	0	100
fixed	4	2	9	724154	3	2	2	1	0	790	1	4	0	112	21	0	0	100
fixed	4	2	10	725762	1	4	4	1	0	403	1	4	0	128	22	0	0	100
fixed	4	2	11	726542	5	2	2	1	0	817	1	4	0	112	23	0	0	100
fixed	4	2	12	728395	4	3	3	1	0	867	1	4	0	120	24	0	0	100
fixed	4	3	1	730068	4	1	1	1	0	884	1	4	0	104	25	0	0	100
fixed	4	3	2	731500	1	2	2	1	0	976	1	4	0	112	26	0	0	100
fixed	4	3	3	732796	6	4	4	1	0	649	1	4	0	128	27	0	0	100
fixed	4	3	4	734102	2	1	1	1	0	721	1	4	0	104	28	0	0	100
fixed	4	3	5	735264	5	3	3	1	0	704	1	4	0	120	29	0	0	100
fixed	4	3	6	736765	6	4	4	1	0	785	1	4	0	128	30	0	0	100
fixed	4	3	7	738020	3	1	1	1	0	915	1	4	0	104	31	0	0	100
fixed	4	3	8	739882	2	3	3	1	0	701	1	4	0	120	32	0	0	100
fixed	4	3	9	741361	3	2	2	1	0	902	1	4	0	112	33	0	0	100
fixed	4	3	10	742685	1	4	4	1	0	542	1	4	0	128	34	0	0	100
fixed	4	3	11	743869	5	2	2	1	0	867	1	4	0	112	35	0	0	100
fixed	4	3	12	745522	4	3	3	1	0	797	1	4	0	120	36	0	0	100
fixed	4	4	1	747494	4	1	1	1	0	810	1	4	0	104	37	0	0	100
fixed	4	4	2	748718	1	2	2	1	0	934	1	4	0	112	38	0	0	100
fixed	4	4	3	750136	6	4	4	1	0	770	1	4	0	128	39	0	0	100
fixed	4	4	4	751782	2	1	1	1	0	805	1	4	0	104	40	0	0	100
fixed	4	4	5	753274	5	3	3	1	0	949	1	4	0	120	41	0	0	100
fixed	4	4	6	754570	6	4	4	1	0	743	1	4	0	128	42	0	0	100
fixed	4	4	7	755795	3	1	1	1	0	931	1	4	0	104	43	0	0	100
fixed	4	4	8	757668	2	3	3	1	0	1267	1	4	0	120	44	0	0	100
fixed	4	4	9	759561	3	2	2	1	0	683	1	4	0	112	45	0	0	100
fixed	4	4	10	760874	1	4	4	1	0	539	1	4	0	128	46	0	0	100
fixed	4	4	11	762175	5	2	2	1	0	901	1	4	0	112	47	0	0	100
fixed	4	4	12	763756	4	3	3	1	0	801	1	4	0	120	48	0	0	100
fixed	4	5	1	765706	4	1	1	1	0	783	1	4	0	104	49	0	0	100
fixed	4	5	2	767511	1	2	2	1	0	914	1	4	0	112	50	0	0	100
fixed	4	5	3	769093	6	4	4	1	0	736	1	4	0	128	51	0	0	100
fixed	4	5	4	770286	2	1	1	1	0	957	1	4	0	104	52	0	0	100
fixed	4	5	5	771969	5	3	3	1	0	669	1	4	0	120	53	0	0	100
fixed	4	5	6	773512	6	4	4	1	0	636	1	4	0	128	54	0	0	100
fixed	4	5	7	775061	3	1	1	1	0	834	1	4	0	104	55	0	0	100
fixed	4	5	8	776230	2	3	3	1	0	889	1	4	0	120	56	0	0	100
fixed	4	5	9	777811	3	2	2	1	0	470	1	4	0	112	57	0	0	100
fixed	4	5	10	779075	1	4	4	1	0	864	1	4	0	128	58	0	0	100
fixed	4	5	11	780776	5	2	2	1	0	1096	1	4	0	112	59	0	0	100
fixed	4	5	12	782574	4	3	3	1	0	645	1	4	0	120	60	0	0	100
fixed	4	6	1	783950	4	1	1	1	0	794	1	4	0	104	61	0	0	100
fixed	4	6	2	785299	1	2	2	1	0	1385	1	4	0	112	62	0	0	100
fixed	4	6	3	787476	6	4	4	1	0	844	1	4	0	128	63	0	0	100
fixed	4	6	4	788713	2	1	0	0	2	0	3	4	0	104	63	0	1	98
fixed	4	6	5	791656	5	3	3	1	0	820	1	4	0	120	64	0	1	98
fixed	4	6	6	793355	6	4	4	1	0	699	1	4	0	128	65	0	1	98
fixed	4	6	7	794562	3	1	1	1	0	992	1	4	0	104	66	0	1	99
fixed	4	6	8	796402	2	3	3	1	0	947	1	4	0	120	67	0	1	99
fixed	4	6	9	797934	3	2	2	1	0	745	1	4	0	112	68	0	1	99
fixed	4	6	10	799223	1	4	4	1	0	627	1	4	0	128	69	0	1	99
fixed	4	6	11	800359	5	2	2	1	0	787	1	4	0	112	70	0	1	99
fixed	4	6	12	801851	4	3	3	1	0	796	1	4	0	120	71	0	1	99
fixed	4	7	1	803348	4	1	1	1	0	788	1	4	0	104	72	0	1	99
fixed	4	7	2	804611	1	2	2	1	0	1311	1	4	0	112	73	0	1	99
fixed	4	7	3	806686	6	4	4	1	0	671	1	4	0	128	74	0	1	99
fixed	4	7	4	807784	2	1	1	1	0	761	1	4	0	104	75	0	1	99
fixed	4	7	5	809086	5	3	3	1	0	985	1	4	0	120	76	0	1	99
fixed	4	7	6	811069	6	4	4	1	0	757	1	4	0	128	77	0	1	99
fixed	4	7	7	812524	3	1	1	1	0	1064	1	4	0	104	78	0	1	99
fixed	4	7	8	814073	2	3	3	1	0	886	1	4	0	120	79	0	1	99
fixed	4	7	9	815497	3	2	2	1	0	850	1	4	0	112	80	0	1	99
fixed	4	7	10	816820	1	4	4	1	0	674	1	4	0	128	81	0	1	99
fixed	4	7	11	817788	5	2	2	1	0	873	1	4	0	112	82	0	1	99
fixed	4	7	12	819038	4	3	3	1	0	684	1	4	0	120	83	0	1	99
fixed	4	8	1	820757	4	1	1	1	0	675	1	4	0	104	84	0	1	99
fixed	4	8	2	821734	1	2	2	1	0	938	1	4	0	112	85	0	1	99
fixed	4	8	3	823008	6	4	4	1	0	764	1	4	0	128	86	0	1	99
fixed	4	8	4	824488	2	1	1	1	0	741	1	4	0	104	87	0	1	99
fixed	4	8	5	825998	5	3	3	2	0	1165	2	4	0	120	88	0	1	99
fixed	4	8	6	828109	6	4	4	1	0	667	1	4	0	128	89	0	1	99
fixed	4	8	7	829130	3	1	1	1	0	832	1	4	0	104	90	0	1	99
fixed	4	8	8	830548	2	3	3	1	0	804	1	4	0	120	91	0	1	99
fixed	4	8	9	832345	3	2	2	1	0	680	1	4	0	112	92	0	1	99
fixed	4	8	10	833356	1	4	4	1	0	701	1	4	0	128	93	0	1	99
fixed	4	8	11	834821	5	2	2	1	0	888	1	4	0	112	94	0	1	99
fixed	4	8	12	836528	4	3	3	1	0	743	1	4	0	120	95	0	1	99
fixed	4	9	1	838451	4	1	1	1	0	749	1	4	0	104	96	0	1	99
fixed	4	9	2	839859	1	2	0	1	2	0	3	4	0	112	96	0	2	98
fixed	4	9	3	842668	6	4	4	1	0	1443	1	4	0	128	97	0	2	98
fixed	4	9	4	844660	2	1	1	1	0	847	1	4	0	104	98	0	2	98
fixed	4	9	5	845974	5	3	3	1	0	735	1	4	0	120	99	0	2	98
fixed	4	9	6	847418	6	4	4	1	0	810	1	4	0	128	100	0	2	98
fixed	4	9	7	848511	3	1	1	1	0	827	1	4	0	104	101	0	2	98
fixed	4	9	8	850360	2	3	3	1	0	862	1	4	0	120	102	0	2	98
fixed	4	9	9	851794	3	2	2	1	0	785	1	4	0	112	103	0	2	98
fixed	4	9	10	853163	1	4	4	1	0	679	1	4	0	128	104	0	2	98
fixed	4	9	11	854521	5	2	2	1	0	901	1	4	0	112	105	0	2	98
fixed	4	9	12	855952	4	3	3	1	0	761	1	4	0	120	106	0	2	98
fixed	4	10	1	857414	4	1	1	1	0	834	1	4	0	104	107	0	2	98
fixed	4	10	2	858984	1	2	2	1	0	880	1	4	0	112	108	0	2	98
fixed	4	10	3	860365	6	4	4	1	0	798	1	4	0	128	109	0	2	98
fixed	4	10	4	861835	2	1	1	1	0	759	1	4	0	104	110	0	2	98
fixed	4	10	5	863418	5	3	3	1	0	860	1	4	0	120	111	0	2	98
fixed	4	10	6	865086	6	4	4	1	0	717	1	4	0	128	112	0	2	98
fixed	4	10	7	866773	3	1	1	1	0	1006	1	4	0	104	113	0	2	98
fixed	4	10	8	868567	2	3	3	1	0	658	1	4	0	120	114	0	2	98
fixed	4	10	9	869528	3	2	2	1	0	737	1	4	0	112	115	0	2	98
fixed	4	10	10	871167	1	4	4	1	0	612	1	4	0	128	116	0	2	98
fixed	4	10	11	872242	5	2	2	1	0	919	1	4	0	112	117	0	2	98
fixed	4	10	12	873684	4	3	3	1	0	914	1	4	0	120	118	0	2	98
fixed	5	1	1	875573	4	1	1	1	0	609	1	4	0	136	1	0	0	100
fixed	5	1	2	876553	1	2	2	1	0	1024	1	4	0	144	2	0	0	100
fixed	5	1	3	877883	6	4	4	1	0	775	1	4	0	160	3	0	0	100
fixed	5	1	4	879183	2	1	1	1	0	1096	1	4	0	136	4	0	0	100
fixed	5	1	5	880815	5	3	3	1	0	964	1	4	0	152	5	0	0	100
fixed	5	1	6	882324	6	4	4	1	0	771	1	4	0	160	6	0	0	100
fixed	5	1	7	883433	3	1	1	1	0	972	1	4	0	136	7	0	0	100
fixed	5	1	8	885062	2	3	3	1	0	1023	1	4	0	152	8	0	0	100
fixed	5	1	9	886630	3	2	2	1	0	789	1	4	0	144	9	0	0	100
fixed	5	1	10	888259	1	4	4	1	0	688	1	4	0	160	10	0	0	100
fixed	5	1	11	889700	5	2	2	1	0	859	1	4	0	144	11	0	0	100
fixed	5	1	12	891466	4	3	3	1	0	728	1	4	0	152	12	0	0	100
fixed	5	2	1	893185	4	1	1	1	0	871	1	4	0	136	13	0	0	100
fixed	5	2	2	895071	1	2	2	1	0	855	1	4	0	144	14	0	0	100
fixed	5	2	3	896316	6	4	4	1	0	659	1	4	0	160	15	0	0	100
fixed	5	2	4	897464	2	1	1	1	0	842	1	4	0	136	16	0	0	100
fixed	5	2	5	898777	5	3	3	1	0	1291	1	4	0	152	17	0	0	100
fixed	5	2	6	900360	6	4	4	1	0	760	1	4	0	160	18	0	0	100
fixed	5	2	7	901444	3	1	1	1	0	978	1	4	0	136	19	0	0	100
fixed	5	2	8	903231	2	3	3	1	0	854	1	4	0	152	20	0	0	100
fixed	5	2	9	905038	3	2	2	1	0	849	1	4	0	144	21	0	0	100
fixed	5	2	10	906816	1	4	4	1	0	646	1	4	0	160	22	0	0	100
fixed	5	2	11	908372	5	2	2	1	0	980	1	4	0	144	23	0	0	100
fixed	5	2	12	910373	4	3	3	1	0	904	1	4	0	152	24	0	0	100
fixed	5	3	1	912031	4	1	1	1	0	801	1	4	0	136	25	0	0	100
fixed	5	3	2	913700	1	2	2	1	0	922	1	4	0	144	26	0	0	100
fixed	5	3	3	915623	6	4	4	1	0	617	1	4	0	160	27	0	0	100
fixed	5	3	4	916640	2	1	1	2	0	1014	2	4	0	136	28	0	0	100
fixed	5	3	5	918152	5	3	3	1	0	1006	1	4	0	152	29	0	0	100
fixed	5	3	6	919793	6	4	4	1	0	649	1	4	0	160	30	0	0	100
fixed	5	3	7	921412	3	1	1	1	0	1228	1	4	0	136	31	0	0	100
fixed	5	3	8	923401	2	3	3	1	0	768	1	4	0	152	32	0	0	100
fixed	5	3	9	924545	3	2	2	1	0	799	1	4	0	144	33	0	0	100
fixed	5	3	10	926290	1	4	4	1	0	517	1	4	0	160	34	0	0	100
fixed	5	3	11	927288	5	2	2	1	0	939	1	4	0	144	35	0	0	100
fixed	5	3	12	928617	4	3	3	1	0	819	1	4	0	152	36	0	0	100
fixed	5	4	1	930460	4	1	1	1	0	821	1	4	0	136	37	0	0	100
fixed	5	4	2	932324	1	2	2	1	0	1446	1	4	0	144	38	0	0	100
fixed	5	4	3	934315	6	4	4	1	0	658	1	4	0	160	39	0	0	100
fixed	5	4	4	935507	2	1	1	1	0	815	1	4	0	136	40	0	0	100
fixed	5	4	5	937048	5	3	3	1	0	654	1	4	0	152	41	0	0	100
fixed	5	4	6	938667	6	4	4	1	0	665	1	4	0	160	42	0	0	100
fixed	5	4	7	939816	3	1	1	1	0	936	1	4	0	136	43	0	0	100
fixed	5	4	8	941155	2	3	3	1	0	1488	1	4	0	152	44	0	0	100
fixed	5	4	9	943100	3	2	2	1	0	742	1	4	0	144	45	0	0	100
fixed	5	4	10	944320	1	4	4	1	0	642	1	4	0	160	46	0	0	100
fixed	5	4	11	945934	5	2	2	1	0	829	1	4	0	144	47	0	0	100
fixed	5	4	12	947546	4	3	3	1	0	929	1	4	0	152	48	0	0	100
fixed	5	5	1	949423	4	1	1	1	0	905	1	4	0	136	49	0	0	100
fixed	5	5	2	951360	1	2	2	1	0	799	1	4	0	144	50	0	0	100
fixed	5	5	3	952627	6	4	4	1	0	914	1	4	0	160	51	0	0	100
fixed	5	5	4	954063	2	1	1	1	0	981	1	4	0	136	52	0	0	100
fixed	5	5	5	955533	5	3	3	1	0	783	1	4	0	152	53	0	0	100
fixed	5	5	6	957023	6	4	4	1	0	903	1	4	0	160	54	0	0	100
fixed	5	5	7	958545	3	1	1	1	0	903	1	4	0	136	55	0	0	100
fixed	5	5	8	959916	2	3	3	1	0	789	1	4	0	152	56	0	0	100
fixed	5	5	9	961405	3	2	2	1	0	742	1	4	0	144	57	0	0	100
fixed	5	5	10	962501	1	4	4	1	0	808	1	4	0	160	58	0	0	100
fixed	5	5	11	964256	5	2	2	1	0	830	1	4	0	144	59	0	0	100
fixed	5	5	12	966095	4	3	3	1	0	743	1	4	0	152	60	0	0	100
fixed	5	6	1	967567	4	1	1	1	0	761	1	4	0	136	61	0	0	100
fixed	5	6	2	968664	1	2	2	1	0	939	1	4	0	144	62	0	0	100
fixed	5	6	3	970146	6	4	4	1	0	644	1	4	0	160	63	0	0	100
fixed	5	6	4	971719	2	1	1	1	0	953	1	4	0	136	64	0	0	100
fixed	5	6	5	973331	5	3	3	1	0	797	1	4	0	152	65	0	0	100
fixed	5	6	6	974783	6	4	4	1	0	975	1	4	0	160	66	0	0	100
fixed	5	6	7	976351	3	1	1	1	0	909	1	4	0	136	67	0	0	100
fixed	5	6	8	978051	2	3	3	1	0	877	1	4	0	152	68	0	0	100
fixed	5	6	9	979503	3	2	2	1	0	688	1	4	0	144	69	0	0	100
fixed	5	6	10	981039	1	4	4	1	0	510	1	4	0	160	70	0	0	100
fixed	5	6	11	981954	5	2	2	1	0	960	1	4	0	144	71	0	0	100
fixed	5	6	12	983515	4	3	3	1	0	1190	1	4	0	152	72	0	0	100
fixed	5	7	1	985428	4	1	1	1	0	772	1	4	0	136	73	0	0	100
fixed	5	7	2	987153	1	2	2	1	0	1043	1	4	0	144	74	0	0	100
fixed	5	7	3	989129	6	4	4	1	0	704	1	4	0	160	75	0	0	100
fixed	5	7	4	990724	2	1	1	1	0	956	1	4	0	136	76	0	0	100
fixed	5	7	5	992694	5	3	3	1	0	808	1	4	0	152	77	0	0	100
fixed	5	7	6	994286	6	4	4	1	0	725	1	4	0	160	78	0	0	100
fixed	5	7	7	995614	3	1	1	1	0	933	1	4	0	136	79	0	0	100
fixed	5	7	8	997186	2	3	3	2	0	1763	2	4	0	152	80	0	0	100
fixed	5	7	9	999413	3	2	2	1	0	980	1	4	0	144	81	0	0	100
fixed	5	7	10	1001300	1	4	4	1	0	572	1	4	0	160	82	0	0	100
fixed	5	7	11	1002484	5	2	2	1	0	754	1	4	0	144	83	0	0	100
fixed	5	7	12	1003842	4	3	3	1	0	793	1	4	0	152	84	0	0	100
fixed	5	8	1	1005694	4	1	1	1	0	882	1	4	0	136	85	0	0	100
fixed	5	8	2	1007197	1	2	2	1	0	914	1	4	0	144	86	0	0	100
fixed	5	8	3	1008796	6	4	4	1	0	639	1	4	0	160	87	0	0	100
fixed	5	8	4	1009777	2	1	1	1	0	869	1	4	0	136	88	0	0	100
fixed	5	8	5	1011472	5	3	3	1	0	677	1	4	0	152	89	0	0	100
fixed	5	8	6	1012587	6	4	4	1	0	750	1	4	0	160	90	0	0	100
fixed	5	8	7	1013809	3	1	1	1	0	939	1	4	0	136	91	0	0	100
fixed	5	8	8	1015342	2	3	3	1	0	898	1	4	0	152	92	0	0	100
fixed	5	8	9	1016610	3	2	2	1	0	676	1	4	0	144	93	0	0	100
fixed	5	8	10	1017736	1	4	4	1	0	860	1	4	0	160	94	0	0	100
fixed	5	8	11	1019580	5	2	2	1	0	838	1	4	0	144	95	0	0	100
fixed	5	8	12	1021334	4	3	3	1	0	716	1	4	0	152	96	0	0	100
fixed	5	9	1	1023204	4	1	1	1	0	1108	1	4	0	136	97	0	0	100
fixed	5	9	2	1024887	1	2	2	1	0	894	1	4	0	144	98	0	0	100
fixed	5	9	3	1026657	6	4	4	1	0	618	1	4	0	160	99	0	0	100
fixed	5	9	4	1027692	2	1	1	1	0	871	1	4	0	136	100	0	0	100
fixed	5	9	5	1028908	5	3	3	1	0	955	1	4	0	152	101	0	0	100
fixed	5	9	6	1030194	6	4	4	1	0	1069	1	4	0	160	102	0	0	100
fixed	5	9	7	1032231	3	1	1	1	0	926	1	4	0	136	103	0	0	100
fixed	5	9	8	1033881	2	3	3	1	0	960	1	4	0	152	104	0	0	100
fixed	5	9	9	1035235	3	2	2	1	0	671	1	4	0	144	105	0	0	100
fixed	5	9	10	1036765	1	4	4	1	0	438	1	4	0	160	106	0	0	100
fixed	5	9	11	1037568	5	2	2	1	0	884	1	4	0	144	107	0	0	100
fixed	5	9	12	1039429	4	3	3	1	0	925	1	4	0	152	108	0	0	100
fixed	5	10	1	1041198	4	1	1	1	0	946	1	4	0	136	109	0	0	100
fixed	5	10	2	1042594	1	2	2	1	0	1208	1	4	0	144	110	0	0	100
fixed	5	10	3	1044643	6	4	4	1	0	728	1	4	0	160	111	0	0	100
fixed	5	10	4	1046162	2	1	1	1	0	992	1	4	0	136	112	0	0	100
fixed	5	10	5	1047629	5	3	3	1	0	770	1	4	0	152	113	0	0	100
fixed	5	10	6	1049223	6	4	4	1	0	671	1	4	0	160	114	0	0	100
fixed	5	10	7	1050666	3	1	1	1	0	954	1	4	0	136	115	0	0	100
fixed	5	10	8	1052138	2	3	3	1	0	891	1	4	0	152	116	0	0	100
fixed	5	10	9	1053434	3	2	2	1	0	1340	1	4	0	144	117	0	0	100
fixed	5	10	10	1055283	1	4	4	1	0	838	1	4	0	160	118	0	0	100
fixed	5	10	11	1056498	5	2	2	1	0	1011	1	4	0	144	119	0	0	100
fixed	5	10	12	1057833	4	3	3	1	0	1226	1	4	0	152	120	0	0	100
random	6	1	1	1217211	6	1	1	1	0	1211	1	4	0	168	1	0	0	100
random	6	1	2	1219410	4	4	4	1	0	774	1	4	0	192	2	0	0	100
random	6	1	3	1221028	2	2	2	1	0	978	1	4	0	176	3	0	0	100
random	6	1	4	1222490	3	3	3	1	0	620	1	4	0	184	4	0	0	100
random	6	1	5	1224090	5	2	2	1	0	760	1	4	0	176	5	0	0	100
random	6	1	6	1225845	1	4	4	1	0	693	1	4	0	192	6	0	0	100
random	6	1	7	1227414	6	1	1	1	0	787	1	4	0	168	7	0	0	100
random	6	1	8	1228755	2	3	3	1	0	723	1	4	0	184	8	0	0	100
random	6	1	9	1230380	4	2	2	1	0	630	1	4	0	176	9	0	0	100
random	6	1	10	1231854	1	1	1	1	0	943	1	4	0	168	10	0	0	100
random	6	1	11	1233768	5	4	4	1	0	694	1	4	0	192	11	0	0	100
random	6	1	12	1235273	3	3	3	1	0	790	1	4	0	184	12	0	0	100
random	6	1	13	1237028	5	2	2	1	0	852	1	4	0	176	13	0	0	100
random	6	1	14	1238605	1	4	4	1	0	649	1	4	0	192	14	0	0	100
random	6	1	15	1239596	3	1	1	1	0	936	1	4	0	168	15	0	0	100
random	6	1	16	1241469	4	3	3	1	0	1112	1	4	0	184	16	0	0	100
random	6	1	17	1242898	6	4	4	1	0	803	1	4	0	192	17	0	0	100
random	6	1	18	1244734	2	1	1	1	0	726	1	4	0	168	18	0	0	100
random	6	1	19	1246500	5	3	3	1	0	835	1	4	0	184	19	0	0	100
random	6	1	20	1247881	2	2	2	2	0	1233	2	4	0	176	20	0	0	100
random	6	1	21	1249575	3	3	3	1	0	912	1	4	0	184	21	0	0	100
random	6	1	22	1251480	6	1	1	1	0	824	1	4	0	168	22	0	0	100
random	6	1	23	1252897	4	2	2	1	0	1196	1	4	0	176	23	0	0	100
random	6	1	24	1254808	1	4	4	1	0	683	1	4	0	192	24	0	0	100
random	6	1	25	1256777	4	3	3	1	0	975	1	4	0	184	25	0	0	100
random	6	1	26	1258157	2	1	1	1	0	925	1	4	0	168	26	0	0	100
random	6	1	27	1259426	5	2	2	1	0	936	1	4	0	176	27	0	0	100
random	6	1	28	1260967	6	4	4	1	0	735	1	4	0	192	28	0	0	100
random	6	1	29	1262133	1	3	3	1	0	893	1	4	0	184	29	0	0	100
random	6	1	30	1263360	5	2	2	1	0	849	1	4	0	176	30	0	0	100
random	6	1	31	1264761	2	1	1	1	0	877	1	4	0	168	31	0	0	100
random	6	1	32	1266531	3	3	3	1	0	859	1	4	0	184	32	0	0	100
random	6	1	33	1268378	6	4	4	1	0	684	1	4	0	192	33	0	0	100
random	6	1	34	1270072	4	2	2	1	0	965	1	4	0	176	34	0	0	100
random	6	1	35	1271936	3	4	4	1	0	750	1	4	0	192	35	0	0	100
random	6	1	36	1272993	1	1	1	1	0	969	1	4	0	168	36	0	0	100
random	6	1	37	1274804	3	4	4	1	0	868	1	4	0	192	37	0	0	100
random	6	1	38	1276297	5	3	3	1	0	1029	1	4	0	184	38	0	0	100
random	6	1	39	1278296	6	1	1	1	0	1016	1	4	0	168	39	0	0	100
random	6	1	40	1280034	1	2	2	1	0	998	1	4	0	176	40	0	0	100
random	6	1	41	1281411	2	3	3	1	0	772	1	4	0	184	41	0	0	100
random	6	1	42	1283143	4	4	4	1	0	827	1	4	0	192	42	0	0	100
random	6	1	43	1284599	1	2	2	1	0	957	1	4	0	176	43	0	0	100
random	6	1	44	1285927	6	3	3	1	0	853	1	4	0	184	44	0	0	100
random	6	1	45	1287419	3	1	1	1	0	926	1	4	0	168	45	0	0	100
random	6	1	46	1289224	4	4	4	1	0	721	1	4	0	192	46	0	0	100
random	6	1	47	1290286	2	2	2	1	0	1069	1	4	0	176	47	0	0	100
random	6	1	48	1292303	5	1	1	1	0	919	1	4	0	168	48	0	0	100
random	6	1	49	1294202	2	3	3	1	0	1022	1	4	0	184	49	0	0	100
random	6	1	50	1295978	3	1	1	1	0	1075	1	4	0	168	50	0	0	100
random	6	1	51	1297796	1	4	4	1	0	790	1	4	0	192	51	0	0	100
random	6	1	52	1298882	5	3	3	1	0	1008	1	4	0	184	52	0	0	100
random	6	1	53	1300480	3	2	2	1	0	2093	1	4	0	176	53	0	0	100
random	6	1	54	1303423	6	4	4	1	0	616	1	4	0	192	54	0	0	100
random	6	1	55	1305074	4	2	2	1	0	1130	1	4	0	176	55	0	0	100
random	6	1	56	1307221	1	1	1	1	0	1175	1	4	0	168	56	0	0	100
random	6	1	57	1308792	5	4	4	1	0	725	1	4	0	192	57	0	0	100
random	6	1	58	1310323	2	1	1	1	0	835	1	4	0	168	58	0	0	100
random	6	1	59	1311492	6	2	2	1	0	1041	1	4	0	176	59	0	0	100
random	6	1	60	1313324	4	3	3	1	0	725	1	4	0	184	60	0	0	100
random	6	1	61	1315036	1	2	2	1	0	876	1	4	0	176	61	0	0	100
random	6	1	62	1316843	6	4	4	1	0	1207	1	4	0	192	62	0	0	100
random	6	1	63	1318727	4	1	1	1	0	895	1	4	0	168	63	0	0	100
random	6	1	64	1320406	2	2	2	1	0	825	1	4	0	176	64	0	0	100
random	6	1	65	1322000	4	3	3	1	0	757	1	4	0	184	65	0	0	100
random	6	1	66	1323716	3	1	1	1	0	1541	1	4	0	168	66	0	0	100
random	6	1	67	1325721	1	3	3	1	0	1104	1	4	0	184	67	0	0	100
random	6	1	68	1327139	5	4	4	1	0	732	1	4	0	192	68	0	0	100
random	6	1	69	1328835	2	2	2	1	0	667	1	4	0	176	69	0	0	100
random	6	1	70	1329892	3	1	1	1	0	1031	1	4	0	168	70	0	0	100
random	6	1	71	1331626	5	4	4	1	0	741	1	4	0	192	71	0	0	100
random	6	1	72	1333079	6	3	3	1	0	976	1	4	0	184	72	0	0	100
random	6	1	73	1335269	2	1	1	1	0	971	1	4	0	168	73	0	0	100
random	6	1	74	1337102	5	3	3	1	0	870	1	4	0	184	74	0	0	100
random	6	1	75	1338884	1	4	4	1	0	730	1	4	0	192	75	0	0	100
random	6	1	76	1340415	6	2	2	1	0	777	1	4	0	176	76	0	0	100
random	6	1	77	1341596	2	1	1	1	0	959	1	4	0	168	77	0	0	100
random	6	1	78	1343205	4	4	4	1	0	651	1	4	0	192	78	0	0	100
random	6	1	79	1344859	3	2	2	1	0	869	1	4	0	176	79	0	0	100
random	6	1	80	1346634	4	3	3	1	0	690	1	4	0	184	80	0	0	100
random	6	1	81	1347726	1	4	4	1	0	692	1	4	0	192	81	0	0	100
random	6	1	82	1349365	5	1	1	1	0	822	1	4	0	168	82	0	0	100
random	6	1	83	1350869	3	2	2	1	0	911	1	4	0	176	83	0	0	100
random	6	1	84	1352144	6	3	3	1	0	880	1	4	0	184	84	0	0	100
random	6	1	85	1353898	3	2	2	1	0	974	1	4	0	176	85	0	0	100
random	6	1	86	1355614	1	3	3	1	0	910	1	4	0	184	86	0	0	100
random	6	1	87	1357137	4	4	4	1	0	845	1	4	0	192	87	0	0	100
random	6	1	88	1358335	2	1	1	1	0	1170	1	4	0	168	88	0	0	100
random	6	1	89	1360098	6	4	4	1	0	831	1	4	0	192	89	0	0	100
random	6	1	90	1361492	3	3	3	1	0	1245	1	4	0	184	90	0	0	100
random	6	1	91	1363117	5	4	4	1	0	832	1	4	0	192	91	0	0	100
random	6	1	92	1364405	1	2	2	1	0	673	1	4	0	176	92	0	0	100
random	6	1	93	1365757	5	1	1	1	0	888	1	4	0	168	93	0	0	100
random	6	1	94	1367349	4	3	3	1	0	1292	1	4	0	184	94	0	0	100
random	6	1	95	1369170	6	1	1	2	0	1327	2	4	0	168	95	0	0	100
random	6	1	96	1371275	2	2	2	1	0	1110	1	4	0	176	96	0	0	100
random	6	1	97	1373496	4	3	3	1	0	936	1	4	0	184	97	0	0	100
random	6	1	98	1375311	3	2	2	1	0	1147	1	4	0	176	98	0	0	100
random	6	1	99	1377353	6	3	3	1	0	765	1	4	0	184	99	0	0	100
random	6	1	100	1378948	1	4	4	1	0	673	1	4	0	192	100	0	0	100
random	6	1	101	1380561	4	1	1	2	0	1148	2	4	0	168	101	0	0	100
random	6	1	102	1382422	5	2	2	1	0	1102	1	4	0	176	102	0	0	100
random	6	1	103	1384266	2	4	4	1	0	704	1	4	0	192	103	0	0	100
random	6	1	104	1385750	3	1	1	1	0	921	1	4	0	168	104	0	0	100
random	6	1	105	1387642	1	3	3	1	0	833	1	4	0	184	105	0	0	100
random	6	1	106	1389082	2	2	2	1	0	884	1	4	0	176	106	0	0	100
random	6	1	107	1390948	5	4	4	1	0	725	1	4	0	192	107	0	0	100
random	6	1	108	1392022	6	1	1	1	0	895	1	4	0	168	108	0	0	100
random	6	1	109	1393612	5	4	4	1	0	908	1	4	0	192	109	0	0	100
random	6	1	110	1394979	6	3	3	1	0	874	1	4	0	184	110	0	0	100
random	6	1	111	1396667	2	2	2	1	0	842	1	4	0	176	111	0	0	100
random	6	1	112	1397961	3	1	1	1	0	988	1	4	0	168	112	0	0	100
random	6	1	113	1399653	1	2	2	1	0	860	1	4	0	176	113	0	0	100
random	6	1	114	1401399	2	3	3	1	0	634	1	4	0	184	114	0	0	100
random	6	1	115	1402599	3	1	1	1	0	927	1	4	0	168	115	0	0	100
random	6	1	116	1404536	4	4	4	1	0	774	1	4	0	192	116	0	0	100
random	6	1	117	1406054	6	1	1	1	0	1117	1	4	0	168	117	0	0	100
random	6	1	118	1407795	5	3	3	1	0	851	1	4	0	184	118	0	0	100
random	6	1	119	1409596	1	4	4	1	0	743	1	4	0	192	119	0	0	100
random	6	1	120	1410693	4	2	2	1	0	1057	1	4	0	176	120	0	0	100
fixed	7	1	1	1412640	4	1	1	1	0	806	1	4	0	200	1	0	0	100
fixed	7	1	2	1414326	1	2	2	1	0	855	1	4	0	208	2	0	0	100
fixed	7	1	3	1415603	6	4	4	1	0	1073	1	4	0	224	3	0	0	100
fixed	7	1	4	1417311	2	1	1	1	0	824	1	4	0	200	4	0	0	100
fixed	7	1	5	1418882	5	3	3	1	0	766	1	4	0	216	5	0	0	100
fixed	7	1	6	1419967	6	4	4	1	0	928	1	4	0	224	6	0	0	100
fixed	7	1	7	1421818	3	1	0	2	2	0	3	4	0	200	6	0	1	86
fixed	7	1	8	1424707	2	3	3	1	0	871	1	4	0	216	7	0	1	88
fixed	7	1	9	1426562	3	2	2	1	0	808	1	4	0	208	8	0	1	89
fixed	7	1	10	1428230	1	4	4	1	0	730	1	4	0	224	9	0	1	90
fixed	7	1	11	1429255	5	2	2	1	0	878	1	4	0	208	10	0	1	91
fixed	7	1	12	1430918	4	3	3	1	0	840	1	4	0	216	11	0	1	92
fixed	7	2	1	1432341	4	1	1	1	0	835	1	4	0	200	1	0	0	8
fixed	7	2	2	1434127	1	2	2	1	0	856	1	4	0	208	2	0	0	14
fixed	7	2	3	1435927	6	4	4	1	0	764	1	4	0	224	3	0	0	20
fixed	7	2	4	1437643	2	1	1	1	0	851	1	4	0	200	4	0	0	25
fixed	7	2	5	1439099	5	3	3	1	0	902	1	4	0	216	5	0	0	29
fixed	7	2	6	1440704	6	4	4	1	0	898	1	4	0	224	6	0	0	33
fixed	7	2	7	1442416	3	1	1	1	0	1249	1	4	0	200	7	0	0	37
fixed	7	2	8	1444178	2	3	3	1	0	846	1	4	0	216	8	0	0	40
fixed	7	2	9	1445480	3	2	2	1	0	711	1	4	0	208	9	0	0	43
fixed	7	2	10	1447050	1	4	4	1	0	741	1	4	0	224	10	0	0	45
fixed	7	2	11	1448438	5	2	2	1	0	714	1	4	0	208	11	0	0	48
fixed	7	2	12	1449461	4	3	3	1	0	999	1	4	0	216	12	0	0	50
fixed	7	3	1	1451388	4	1	1	1	0	805	1	4	0	200	1	0	0	4
fixed	7	3	2	1452862	1	2	2	1	0	886	1	4	0	208	2	0	0	8
fixed	7	3	3	1454466	6	4	4	1	0	851	1	4	0	224	3	0	0	11
fixed	7	3	4	1456210	2	1	1	1	0	1169	1	4	0	200	4	0	0	14
fixed	7	3	5	1457933	5	3	3	1	0	920	1	4	0	216	5	0	0	17
fixed	7	3	6	1459565	6	4	4	1	0	883	1	4	0	224	6	0	0	20
fixed	7	3	7	1461136	3	1	1	1	0	1176	1	4	0	200	7	0	0	23
fixed	7	3	8	1462862	2	3	3	1	0	823	1	4	0	216	8	0	0	25
fixed	7	3	9	1464096	3	2	2	1	0	747	1	4	0	208	9	0	0	27
fixed	7	3	10	1465349	1	4	4	1	0	862	1	4	0	224	10	0	0	29
fixed	7	3	11	1466573	5	2	2	1	0	889	1	4	0	208	11	0	0	31
fixed	7	3	12	1468340	4	3	3	1	0	663	1	4	0	216	12	0	0	33
fixed	7	4	1	1469682	4	1	1	1	0	990	1	4	0	200	1	0	0	3
fixed	7	4	2	1471505	1	2	2	1	0	1401	1	4	0	208	2	0	0	5
fixed	7	4	3	1473618	6	4	4	1	0	712	1	4	0	224	3	0	0	8
fixed	7	4	4	1474800	2	1	1	1	0	1261	1	4	0	200	4	0	0	10
fixed	7	4	5	1476438	5	3	3	1	0	824	1	4	0	216	5	0	0	12
fixed	7	4	6	1477809	6	4	4	1	0	1134	1	4	0	224	6	0	0	14
fixed	7	4	7	1479946	3	1	1	1	0	963	1	4	0	200	7	0	0	16
fixed	7	4	8	1481711	2	3	3	1	0	1160	1	4	0	216	8	0	0	18
fixed	7	4	9	1483510	3	2	2	1	0	1757	1	4	0	208	9	0	0	20
fixed	7	4	10	1486056	1	4	4	1	0	704	1	4	0	224	10	0	0	22
fixed	7	4	11	1487163	5	2	2	1	0	1026	1	4	0	208	11	0	0	23
fixed	7	4	12	1488555	4	3	3	1	0	895	1	4	0	216	12	0	0	25
fixed	7	5	1	1490049	4	1	1	1	0	911	1	4	0	200	1	0	0	2
fixed	7	5	2	1491361	1	2	2	1	0	896	1	4	0	208	2	0	0	4
fixed	7	5	3	1492645	6	4	4	1	0	722	1	4	0	224	3	0	0	6
fixed	7	5	4	1494385	2	1	0	1	2	0	3	4	0	200	3	0	1	6
fixed	7	5	5	1497882	5	3	3	1	0	996	1	4	0	216	4	0	1	8
fixed	7	5	6	1499773	6	4	4	1	0	699	1	4	0	224	5	0	1	9
fixed	7	5	7	1500852	3	1	1	1	0	1406	1	4	0	200	6	0	1	11
fixed	7	5	8	1503181	2	3	3	1	0	811	1	4	0	216	7	0	1	13
fixed	7	5	9	1504309	3	2	2	1	0	740	1	4	0	208	8	0	1	14
fixed	7	5	10	1505722	1	4	4	1	0	695	1	4	0	224	9	0	1	16
fixed	7	5	11	1507165	5	2	2	1	0	779	1	4	0	208	10	0	1	17
fixed	7	5	12	1508710	4	3	3	1	0	817	1	4	0	216	11	0	1	18
fixed	7	6	1	1510165	4	1	1	1	0	787	1	4	0	200	1	0	0	2
fixed	7	6	2	1511678	1	2	2	1	0	1076	1	4	0	208	2	0	0	3
fixed	7	6	3	1513739	6	4	4	1	0	644	1	4	0	224	3	0	0	5
fixed	7	6	4	1514971	2	1	1	1	0	832	1	4	0	200	4	0	0	6
fixed	7	6	5	1516813	5	3	3	1	0	810	1	4	0	216	5	0	0	8
fixed	7	6	6	1518348	6	4	4	1	0	729	1	4	0	224	6	0	0	9
fixed	7	6	7	1519492	3	1	1	1	0	912	1	4	0	200	7	0	0	10
fixed	7	6	8	1521256	2	3	3	1	0	854	1	4	0	216	8	0	0	12
fixed	7	6	9	1522597	3	2	2	1	0	1045	1	4	0	208	9	0	0	13
fixed	7	6	10	1524560	1	4	4	1	0	698	1	4	0	224	10	0	0	14
fixed	7	6	11	1526059	5	2	2	1	0	962	1	4	0	208	11	0	0	15
fixed	7	6	12	1527579	4	3	3	1	0	962	1	4	0	216	12	0	0	17
fixed	7	7	1	1529713	4	1	1	1	0	855	1	4	0	200	1	0	0	1
fixed	7	7	2	1530977	1	2	2	1	0	1026	1	4	0	208	2	0	0	3
fixed	7	7	3	1532463	6	4	4	1	0	803	1	4	0	224	3	0	0	4
fixed	7	7	4	1533570	2	1	1	1	0	1100	1	4	0	200	4	0	0	5
fixed	7	7	5	1535586	5	3	3	1	0	1055	1	4	0	216	5	0	0	6
fixed	7	7	6	1537047	6	4	4	1	0	793	1	4	0	224	6	0	0	8
fixed	7	7	7	1538718	3	1	1	1	0	914	1	4	0	200	7	0	0	9
fixed	7	7	8	1540180	2	3	3	1	0	980	1	4	0	216	8	0	0	10
fixed	7	7	9	1541711	3	2	2	1	0	723	1	4	0	208	9	0	0	11
fixed	7	7	10	1542813	1	4	4	1	0	676	1	4	0	224	10	0	0	12
fixed	7	7	11	1544234	5	2	2	1	0	720	1	4	0	208	11	0	0	13
fixed	7	7	12	1545262	4	3	3	1	0	933	1	4	0	216	12	0	0	14
fixed	7	8	1	1546738	4	1	1	1	0	1022	1	4	0	200	1	0	0	1
fixed	7	8	2	1548234	1	2	2	1	0	1127	1	4	0	208	2	0	0	2
fixed	7	8	3	1549905	6	4	4	1	0	729	1	4	0	224	3	0	0	3
fixed	7	8	4	1551573	2	1	1	1	0	986	1	4	0	200	4	0	0	5
fixed	7	8	5	1553223	5	3	3	1	0	1004	1	4	0	216	5	0	0	6
fixed	7	8	6	1554689	6	4	4	1	0	709	1	4	0	224	6	0	0	7
fixed	7	8	7	1556370	3	1	1	2	0	2055	2	4	0	200	7	0	0	8
fixed	7	8	8	1559001	2	3	3	1	0	855	1	4	0	216	8	0	0	9
fixed	7	8	9	1560188	3	2	2	1	0	693	1	4	0	208	9	0	0	10
fixed	7	8	10	1561824	1	4	4	1	0	615	1	4	0	224	10	0	0	11
fixed	7	8	11	1563261	5	2	2	1	0	970	1	4	0	208	11	0	0	12
fixed	7	8	12	1565270	4	3	3	1	0	725	1	4	0	216	12	0	0	13
fixed	7	9	1	1566804	4	1	1	1	0	1132	1	4	0	200	1	0	0	1
fixed	7	9	2	1568472	1	2	2	1	0	1022	1	4	0	208	2	0	0	2
fixed	7	9	3	1569937	6	4	4	1	0	632	1	4	0	224	3	0	0	3
fixed	7	9	4	1571169	2	1	1	1	0	836	1	4	0	200	4	0	0	4
fixed	7	9	5	1572316	5	3	3	1	0	747	1	4	0	216	5	0	0	5
fixed	7	9	6	1573633	6	4	4	1	0	660	1	4	0	224	6	0	0	6
fixed	7	9	7	1574715	3	1	1	1	0	894	1	4	0	200	7	0	0	7
fixed	7	9	8	1576378	2	3	3	2	0	1271	2	4	0	216	8	0	0	8
fixed	7	9	9	1578466	3	2	2	1	0	862	1	4	0	208	9	0	0	9
fixed	7	9	10	1579792	1	4	4	1	0	590	1	4	0	224	10	0	0	9
fixed	7	9	11	1581389	5	2	2	1	0	795	1	4	0	208	11	0	0	10
fixed	7	9	12	1583197	4	3	3	1	0	854	1	4	0	216	12	0	0	11
fixed	7	10	1	1585049	4	1	1	1	0	768	1	4	0	200	1	0	0	1
fixed	7	10	2	1586582	1	2	2	1	0	1159	1	4	0	208	2	0	0	2
fixed	7	10	3	1588447	6	4	4	1	0	808	1	4	0	224	3	0	0	3
fixed	7	10	4	1589746	2	1	1	1	0	777	1	4	0	200	4	0	0	4
fixed	7	10	5	1590890	5	3	3	1	0	953	1	4	0	216	5	0	0	4
fixed	7	10	6	1592188	6	4	4	1	0	769	1	4	0	224	6	0	0	5
fixed	7	10	7	1593914	3	1	1	1	0	944	1	4	0	200	7	0	0	6
fixed	7	10	8	1595822	2	3	3	1	0	768	1	4	0	216	8	0	0	7
fixed	7	10	9	1597614	3	2	2	1	0	899	1	4	0	208	9	0	0	8
fixed	7	10	10	1599254	1	4	4	1	0	726	1	4	0	224	10	0	0	8
fixed	7	10	11	1600419	5	2	2	1	0	981	1	4	0	208	11	0	0	9
fixed	7	10	12	1602260	4	3	3	1	0	831	1	4	0	216	12	0	0	10
