type	block	sequ.	trial	time	Pos.	Color	Button	NumRsp	Resp_1	RT_1	R_Code	Resp_2	RT_2	Trigg.	n_hit	n_inc	n_miss	score_%

random	1	1	1	4260	6	1	1	1	0	1410	1	4	0	8	1	0	0	100
random	1	1	2	6579	4	4	4	1	0	969	1	4	0	32	2	0	0	100
random	1	1	3	8120	2	2	2	1	0	1263	1	4	0	16	3	0	0	100
random	1	1	4	10042	3	3	3	1	0	1318	1	4	0	24	4	0	0	100
random	1	1	5	12256	5	2	2	1	0	1072	1	4	0	16	5	0	0	100
random	1	1	6	14220	1	4	4	1	0	973	1	4	0	32	6	0	0	100
random	1	1	7	15554	6	1	1	1	0	1020	1	4	0	8	7	0	0	100
random	1	1	8	16947	2	3	3	1	0	1049	1	4	0	24	8	0	0	100
random	1	1	9	18860	4	2	2	1	0	1057	1	4	0	16	9	0	0	100
random	1	1	10	20835	1	1	1	1	0	884	1	4	0	8	10	0	0	100
random	1	1	11	22427	5	4	4	1	0	729	1	4	0	32	11	0	0	100
random	1	1	12	24167	3	3	3	1	0	624	1	4	0	24	12	0	0	100
random	1	1	13	25647	5	2	0	1	2	0	3	4	0	16	12	0	1	92
random	1	1	14	28721	1	4	4	1	0	710	1	4	0	32	13	0	1	93
random	1	1	15	29792	3	1	1	1	0	985	1	4	0	8	14	0	1	93
random	1	1	16	31678	4	3	0	1	2	0	3	4	0	24	14	0	2	88
random	1	1	17	35139	6	4	4	1	0	919	1	4	0	32	15	0	2	88
random	1	1	18	36397	2	1	1	1	0	937	1	4	0	8	16	0	2	89
random	1	1	19	38166	5	3	3	1	0	1727	1	4	0	24	17	0	2	89
random	1	1	20	40187	2	2	2	1	0	1057	1	4	0	16	18	0	2	90
random	1	1	21	42273	3	3	3	1	0	1320	1	4	0	24	19	0	2	90
random	1	1	22	44471	6	1	1	1	0	788	1	4	0	8	20	0	2	91
random	1	1	23	46297	4	2	2	1	0	1246	1	4	0	16	21	0	2	91
random	1	1	24	48404	1	4	4	1	0	1109	1	4	0	32	22	0	2	92
random	1	1	25	50559	4	3	3	1	0	1673	1	4	0	24	23	0	2	92
random	1	1	26	52754	2	1	1	1	0	909	1	4	0	8	24	0	2	92
random	1	1	27	54578	5	2	2	1	0	1024	1	4	0	16	25	0	2	93
random	1	1	28	56297	6	4	4	1	0	695	1	4	0	32	26	0	2	93
random	1	1	29	57811	1	3	3	1	0	1886	1	4	0	24	27	0	2	93
random	1	1	30	60155	5	2	2	1	0	1555	1	4	0	16	28	0	2	93
random	1	1	31	62146	2	1	1	1	0	1143	1	4	0	8	29	0	2	94
random	1	1	32	63772	3	3	3	1	0	1138	1	4	0	24	30	0	2	94
random	1	1	33	65808	6	4	4	1	0	604	1	4	0	32	31	0	2	94
random	1	1	34	67136	4	2	2	1	0	1099	1	4	0	16	32	0	2	94
random	1	1	35	68566	3	4	4	1	0	1055	1	4	0	32	33	0	2	94
random	1	1	36	70588	1	1	1	1	0	1834	1	4	0	8	34	0	2	94
random	1	1	37	73549	3	4	4	1	0	756	1	4	0	32	35	0	2	95
random	1	1	38	74785	5	3	3	1	0	1847	1	4	0	24	36	0	2	95
random	1	1	39	77422	6	1	1	1	0	1048	1	4	0	8	37	0	2	95
random	1	1	40	79398	1	2	2	1	0	876	1	4	0	16	38	0	2	95
random	1	1	41	80944	2	3	3	1	0	1331	1	4	0	24	39	0	2	95
random	1	1	42	83103	4	4	4	1	0	807	1	4	0	32	40	0	2	95
random	1	1	43	84878	1	2	0	1	2	0	3	4	0	16	40	0	3	93
random	1	1	44	87777	6	3	0	2	2	0	3	4	0	24	40	0	4	91
random	1	1	45	91087	3	1	1	1	0	789	1	4	0	8	41	0	4	91
random	1	1	46	92401	4	4	4	1	0	677	1	4	0	32	42	0	4	91
random	1	1	47	93612	2	2	2	1	0	1234	1	4	0	16	43	0	4	91
random	1	1	48	95150	5	1	1	1	0	1177	1	4	0	8	44	0	4	92
random	1	1	49	97340	2	3	3	1	0	1340	1	4	0	24	45	0	4	92
random	1	1	50	99263	3	1	1	1	0	1019	1	4	0	8	46	0	4	92
random	1	1	51	101324	1	4	4	1	0	724	1	4	0	32	47	0	4	92
random	1	1	52	102389	5	3	3	1	0	1526	1	4	0	24	48	0	4	92
random	1	1	53	104948	3	2	2	1	0	1138	1	4	0	16	49	0	4	92
random	1	1	54	106652	6	4	4	1	0	786	1	4	0	32	50	0	4	93
random	1	1	55	108164	4	2	2	1	0	1362	1	4	0	16	51	0	4	93
random	1	1	56	110023	1	1	1	1	0	819	1	4	0	8	52	0	4	93
random	1	1	57	111752	5	4	4	1	0	634	1	4	0	32	53	0	4	93
random	1	1	58	112929	2	1	1	1	0	856	1	4	0	8	54	0	4	93
random	1	1	59	114299	6	2	2	1	0	998	1	4	0	16	55	0	4	93
random	1	1	60	115929	4	3	3	1	0	1169	1	4	0	24	56	0	4	93
random	1	1	61	118325	1	2	2	1	0	1035	1	4	0	16	57	0	4	93
random	1	1	62	119720	6	4	4	1	0	609	1	4	0	32	58	0	4	94
random	1	1	63	120666	4	1	1	1	0	688	1	4	0	8	59	0	4	94
random	1	1	64	121785	2	2	2	1	0	1169	1	4	0	16	60	0	4	94
random	1	1	65	123346	4	3	0	0	2	0	3	4	0	24	60	0	5	92
random	1	1	66	126787	3	1	1	1	0	837	1	4	0	8	61	0	5	92
random	1	1	67	128470	1	3	3	1	0	1974	1	4	0	24	62	0	5	93
random	1	1	68	131058	5	4	4	1	0	1440	1	4	0	32	63	0	5	93
random	1	1	69	132818	2	2	2	1	0	1054	1	4	0	16	64	0	5	93
random	1	1	70	134231	3	1	1	1	0	1169	1	4	0	8	65	0	5	93
random	1	1	71	136419	5	4	4	1	0	1317	1	4	0	32	66	0	5	93
random	1	1	72	138695	6	3	3	1	0	2229	1	4	0	24	67	0	5	93
random	1	1	73	142100	2	1	1	1	0	852	1	4	0	8	68	0	5	93
random	1	1	74	143640	5	3	3	1	0	963	1	4	0	24	69	0	5	93
random	1	1	75	144964	1	4	4	1	0	795	1	4	0	32	70	0	5	93
random	1	1	76	146793	6	2	2	1	0	933	1	4	0	16	71	0	5	93
random	1	1	77	148179	2	1	1	1	0	859	1	4	0	8	72	0	5	94
random	1	1	78	149619	4	4	4	1	0	542	1	4	0	32	73	0	5	94
random	1	1	79	151094	3	2	2	2	0	2055	2	4	0	16	74	0	5	94
random	1	1	80	154113	4	3	3	1	0	1391	1	4	0	24	75	0	5	94
random	1	1	81	156541	1	4	4	1	0	1313	1	4	0	32	76	0	5	94
random	1	1	82	158554	5	1	1	1	0	436	1	4	0	8	77	0	5	94
random	1	1	83	159767	3	2	2	1	0	1240	1	4	0	16	78	0	5	94
random	1	1	84	161868	6	3	3	1	0	1111	1	4	0	24	79	0	5	94
random	1	1	85	163937	3	2	2	1	0	1287	1	4	0	16	80	0	5	94
random	1	1	86	165975	1	3	3	1	0	1233	1	4	0	24	81	0	5	94
random	1	1	87	167762	4	4	4	1	0	685	1	4	0	32	82	0	5	94
random	1	1	88	169099	2	1	1	1	0	773	1	4	0	8	83	0	5	94
random	1	1	89	170720	6	4	4	1	0	1168	1	4	0	32	84	0	5	94
random	1	1	90	172843	3	3	3	1	0	1382	1	4	0	24	85	0	5	94
random	1	1	91	175032	5	4	4	1	0	673	1	4	0	32	86	0	5	95
random	1	1	92	176526	1	2	2	1	0	1578	1	4	0	16	87	0	5	95
random	1	1	93	178725	5	1	1	1	0	1005	1	4	0	8	88	0	5	95
random	1	1	94	180225	4	3	3	1	0	1277	1	4	0	24	89	0	5	95
random	1	1	95	182144	6	1	1	1	0	893	1	4	0	8	90	0	5	95
random	1	1	96	183839	2	2	2	1	0	1532	1	4	0	16	91	0	5	95
random	1	1	97	186509	4	3	3	1	0	1803	1	4	0	24	92	0	5	95
random	1	1	98	188860	3	2	2	1	0	840	1	4	0	16	93	0	5	95
random	1	1	99	190599	6	3	3	1	0	2351	1	4	0	24	94	0	5	95
random	1	1	100	193928	1	4	4	1	0	1049	1	4	0	32	95	0	5	95
random	1	1	101	195645	4	1	1	1	0	609	1	4	0	8	96	0	5	95
random	1	1	102	196631	5	2	2	1	0	1063	1	4	0	16	97	0	5	95
random	1	1	103	198325	2	4	4	1	0	615	1	4	0	32	98	0	5	95
random	1	1	104	199566	3	1	1	1	0	939	1	4	0	8	99	0	5	95
random	1	1	105	200956	1	3	3	1	0	1408	1	4	0	24	100	0	5	95
random	1	1	106	202857	2	2	2	1	0	983	1	4	0	16	101	0	5	95
random	1	1	107	204673	5	4	4	1	0	698	1	4	0	32	102	0	5	95
random	1	1	108	206171	6	1	1	1	0	874	1	4	0	8	103	0	5	95
random	1	1	109	207778	5	4	4	1	0	2006	1	4	0	32	104	0	5	95
random	1	1	110	210114	6	3	3	1	0	1820	1	4	0	24	105	0	5	95
random	1	1	111	212342	2	2	2	1	0	1149	1	4	0	16	106	0	5	95
random	1	1	112	213950	3	1	1	1	0	1761	1	4	0	8	107	0	5	96
random	1	1	113	216213	1	2	2	1	0	1169	1	4	0	16	108	0	5	96
random	1	1	114	218263	2	3	3	1	0	579	1	4	0	24	109	0	5	96
random	1	1	115	219274	3	1	0	0	2	0	3	4	0	8	109	0	6	95
random	1	1	116	222359	4	4	4	1	0	461	1	4	0	32	110	0	6	95
random	1	1	117	223596	6	1	1	1	0	593	1	4	0	8	111	0	6	95
random	1	1	118	224945	5	3	3	1	0	1288	1	4	0	24	112	0	6	95
random	1	1	119	226639	1	4	4	1	0	695	1	4	0	32	113	0	6	95
random	1	1	120	228194	4	2	2	1	0	822	1	4	0	16	114	0	6	95
fixed	2	1	1	230181	4	1	1	1	0	1225	1	4	0	40	1	0	0	100
fixed	2	1	2	232114	1	2	2	1	0	984	1	4	0	48	2	0	0	100
fixed	2	1	3	233375	6	4	4	1	0	826	1	4	0	64	3	0	0	100
fixed	2	1	4	235079	2	1	1	1	0	778	1	4	0	40	4	0	0	100
fixed	2	1	5	236629	5	3	3	1	0	1313	1	4	0	56	5	0	0	100
fixed	2	1	6	238458	6	4	4	1	0	691	1	4	0	64	6	0	0	100
fixed	2	1	7	239610	3	1	1	1	0	578	1	4	0	40	7	0	0	100
fixed	2	1	8	241068	2	3	3	1	0	1093	1	4	0	56	8	0	0	100
fixed	2	1	9	242801	3	2	2	1	0	555	1	4	0	48	9	0	0	100
fixed	2	1	10	243767	1	4	4	1	0	1250	1	4	0	64	10	0	0	100
fixed	2	1	11	245745	5	2	2	1	0	2191	1	4	0	48	11	0	0	100
fixed	2	1	12	248378	4	3	3	1	0	991	1	4	0	56	12	0	0	100
fixed	2	2	1	250299	4	1	1	1	0	973	1	4	0	40	13	0	0	100
fixed	2	2	2	251983	1	2	2	1	0	1343	1	4	0	48	14	0	0	100
fixed	2	2	3	254020	6	4	4	1	0	616	1	4	0	64	15	0	0	100
fixed	2	2	4	255110	2	1	1	1	0	1026	1	4	0	40	16	0	0	100
fixed	2	2	5	256626	5	3	3	1	0	994	1	4	0	56	17	0	0	100
fixed	2	2	6	258089	6	4	4	1	0	700	1	4	0	64	18	0	0	100
fixed	2	2	7	259524	3	1	1	1	0	1455	1	4	0	40	19	0	0	100
fixed	2	2	8	261333	2	3	3	1	0	1226	1	4	0	56	20	0	0	100
fixed	2	2	9	263043	3	2	2	1	0	514	1	4	0	48	21	0	0	100
fixed	2	2	10	263850	1	4	4	1	0	519	1	4	0	64	22	0	0	100
fixed	2	2	11	265162	5	2	2	1	0	1400	1	4	0	48	23	0	0	100
fixed	2	2	12	267541	4	3	3	1	0	1795	1	4	0	56	24	0	0	100
fixed	2	3	1	270332	4	1	1	1	0	853	1	4	0	40	25	0	0	100
fixed	2	3	2	271604	1	2	2	1	0	1847	1	4	0	48	26	0	0	100
fixed	2	3	3	274141	6	4	4	1	0	820	1	4	0	64	27	0	0	100
fixed	2	3	4	275457	2	1	1	1	0	1500	1	4	0	40	28	0	0	100
fixed	2	3	5	277535	5	3	3	1	0	1164	1	4	0	56	29	0	0	100
fixed	2	3	6	279303	6	4	4	1	0	753	1	4	0	64	30	0	0	100
fixed	2	3	7	280770	3	1	1	1	0	467	1	4	0	40	31	0	0	100
fixed	2	3	8	282250	2	3	3	1	0	1180	1	4	0	56	32	0	0	100
fixed	2	3	9	284154	3	2	2	1	0	780	1	4	0	48	33	0	0	100
fixed	2	3	10	285584	1	4	4	1	0	911	1	4	0	64	34	0	0	100
fixed	2	3	11	287008	5	2	2	1	0	1803	1	4	0	48	35	0	0	100
fixed	2	3	12	289761	4	3	3	1	0	918	1	4	0	56	36	0	0	100
fixed	2	4	1	291834	4	1	1	1	0	670	1	4	0	40	37	0	0	100
fixed	2	4	2	292922	1	2	2	1	0	888	1	4	0	48	38	0	0	100
fixed	2	4	3	294236	6	4	4	1	0	881	1	4	0	64	39	0	0	100
fixed	2	4	4	295808	2	1	1	1	0	766	1	4	0	40	40	0	0	100
fixed	2	4	5	296972	5	3	3	1	0	1549	1	4	0	56	41	0	0	100
fixed	2	4	6	299363	6	4	4	1	0	736	1	4	0	64	42	0	0	100
fixed	2	4	7	300833	3	1	1	1	0	793	1	4	0	40	43	0	0	100
fixed	2	4	8	301940	2	3	3	1	0	1010	1	4	0	56	44	0	0	100
fixed	2	4	9	303732	3	2	2	1	0	510	1	4	0	48	45	0	0	100
fixed	2	4	10	304625	1	4	0	0	2	0	3	4	0	64	45	0	1	98
fixed	2	4	11	308060	5	2	2	1	0	999	1	4	0	48	46	0	1	98
fixed	2	4	12	309495	4	3	3	1	0	946	1	4	0	56	47	0	1	98
fixed	2	5	1	311733	4	1	1	1	0	843	1	4	0	40	48	0	1	98
fixed	2	5	2	312881	1	2	2	1	0	1371	1	4	0	48	49	0	1	98
fixed	2	5	3	314981	6	4	4	1	0	682	1	4	0	64	50	0	1	98
fixed	2	5	4	316209	2	1	1	1	0	822	1	4	0	40	51	0	1	98
fixed	2	5	5	317491	5	3	3	1	0	1736	1	4	0	56	52	0	1	98
fixed	2	5	6	319661	6	4	4	1	0	804	1	4	0	64	53	0	1	98
fixed	2	5	7	321390	3	1	1	1	0	522	1	4	0	40	54	0	1	98
fixed	2	5	8	322579	2	3	3	1	0	888	1	4	0	56	55	0	1	98
fixed	2	5	9	324016	3	2	2	1	0	683	1	4	0	48	56	0	1	98
fixed	2	5	10	325160	1	4	4	1	0	747	1	4	0	64	57	0	1	98
fixed	2	5	11	326784	5	2	2	1	0	1006	1	4	0	48	58	0	1	98
fixed	2	5	12	328602	4	3	3	1	0	1217	1	4	0	56	59	0	1	98
fixed	2	6	1	331014	4	1	1	1	0	739	1	4	0	40	60	0	1	98
fixed	2	6	2	332684	1	2	2	1	0	980	1	4	0	48	61	0	1	98
fixed	2	6	3	334119	6	4	4	1	0	1047	1	4	0	64	62	0	1	98
fixed	2	6	4	335824	2	1	1	1	0	799	1	4	0	40	63	0	1	98
fixed	2	6	5	337380	5	3	3	1	0	1037	1	4	0	56	64	0	1	98
fixed	2	6	6	338927	6	4	4	1	0	692	1	4	0	64	65	0	1	98
fixed	2	6	7	340560	3	1	1	1	0	839	1	4	0	40	66	0	1	99
fixed	2	6	8	342390	2	3	3	1	0	1297	1	4	0	56	67	0	1	99
fixed	2	6	9	344498	3	2	2	1	0	976	1	4	0	48	68	0	1	99
fixed	2	6	10	346125	1	4	4	1	0	875	1	4	0	64	69	0	1	99
fixed	2	6	11	347970	5	2	2	1	0	1076	1	4	0	48	70	0	1	99
fixed	2	6	12	349448	4	3	3	1	0	918	1	4	0	56	71	0	1	99
fixed	2	7	1	351481	4	1	1	1	0	640	1	4	0	40	72	0	1	99
fixed	2	7	2	352489	1	2	2	1	0	2189	1	4	0	48	73	0	1	99
fixed	2	7	3	355117	6	4	4	1	0	878	1	4	0	64	74	0	1	99
fixed	2	7	4	356452	2	1	1	1	0	1134	1	4	0	40	75	0	1	99
fixed	2	7	5	358253	5	3	3	1	0	905	1	4	0	56	76	0	1	99
fixed	2	7	6	359617	6	4	4	1	0	815	1	4	0	64	77	0	1	99
fixed	2	7	7	361098	3	1	1	1	0	569	1	4	0	40	78	0	1	99
fixed	2	7	8	362633	2	3	3	1	0	752	1	4	0	56	79	0	1	99
fixed	2	7	9	363912	3	2	2	1	0	473	1	4	0	48	80	0	1	99
fixed	2	7	10	365430	1	4	4	1	0	841	1	4	0	64	81	0	1	99
fixed	2	7	11	367276	5	2	2	1	0	1411	1	4	0	48	82	0	1	99
fixed	2	7	12	369387	4	3	3	1	0	1306	1	4	0	56	83	0	1	99
fixed	2	8	1	371647	4	1	1	1	0	642	1	4	0	40	84	0	1	99
fixed	2	8	2	372912	1	2	2	1	0	1325	1	4	0	48	85	0	1	99
fixed	2	8	3	374707	6	4	4	1	0	976	1	4	0	64	86	0	1	99
fixed	2	8	4	376036	2	1	1	1	0	1224	1	4	0	40	87	0	1	99
fixed	2	8	5	377979	5	3	3	1	0	949	1	4	0	56	88	0	1	99
fixed	2	8	6	379875	6	4	4	1	0	686	1	4	0	64	89	0	1	99
fixed	2	8	7	380978	3	1	1	1	0	855	1	4	0	40	90	0	1	99
fixed	2	8	8	382326	2	3	3	1	0	990	1	4	0	56	91	0	1	99
fixed	2	8	9	384329	3	2	2	1	0	561	1	4	0	48	92	0	1	99
fixed	2	8	10	385666	1	4	4	1	0	672	1	4	0	64	93	0	1	99
fixed	2	8	11	387349	5	2	2	1	0	1217	1	4	0	48	94	0	1	99
fixed	2	8	12	389351	4	3	3	1	0	828	1	4	0	56	95	0	1	99
fixed	2	9	1	391262	4	1	1	1	0	739	1	4	0	40	96	0	1	99
fixed	2	9	2	392641	1	2	2	1	0	1193	1	4	0	48	97	0	1	99
fixed	2	9	3	394535	6	4	4	1	0	824	1	4	0	64	98	0	1	99
fixed	2	9	4	396009	2	1	1	1	0	834	1	4	0	40	99	0	1	99
fixed	2	9	5	397502	5	3	3	1	0	1219	1	4	0	56	100	0	1	99
fixed	2	9	6	399634	6	4	4	1	0	800	1	4	0	64	101	0	1	99
fixed	2	9	7	401327	3	1	1	1	0	713	1	4	0	40	102	0	1	99
fixed	2	9	8	402800	2	3	3	1	0	979	1	4	0	56	103	0	1	99
fixed	2	9	9	404676	3	2	2	1	0	627	1	4	0	48	104	0	1	99
fixed	2	9	10	405820	1	4	4	1	0	1403	1	4	0	64	105	0	1	99
fixed	2	9	11	407582	5	2	2	1	0	1032	1	4	0	48	106	0	1	99
fixed	2	9	12	409243	4	3	3	1	0	833	1	4	0	56	107	0	1	99
fixed	2	10	1	410910	4	1	1	1	0	827	1	4	0	40	108	0	1	99
fixed	2	10	2	412510	1	2	2	1	0	1071	1	4	0	48	109	0	1	99
fixed	2	10	3	414151	6	4	4	1	0	889	1	4	0	64	110	0	1	99
fixed	2	10	4	415694	2	1	1	1	0	864	1	4	0	40	111	0	1	99
fixed	2	10	5	417269	5	3	3	1	0	1278	1	4	0	56	112	0	1	99
fixed	2	10	6	419555	6	4	4	1	0	981	1	4	0	64	113	0	1	99
fixed	2	10	7	421000	3	1	1	1	0	551	1	4	0	40	114	0	1	99
fixed	2	10	8	422056	2	3	3	1	0	1051	1	4	0	56	115	0	1	99
fixed	2	10	9	424115	3	2	2	1	0	564	1	4	0	48	116	0	1	99
fixed	2	10	10	425389	1	4	4	1	0	838	1	4	0	64	117	0	1	99
fixed	2	10	11	426818	5	2	2	1	0	897	1	4	0	48	118	0	1	99
fixed	2	10	12	428140	4	3	3	1	0	833	1	4	0	56	119	0	1	99
fixed	3	1	1	429954	4	1	1	1	0	604	1	4	0	72	1	0	0	100
fixed	3	1	2	431008	1	2	2	1	0	1032	1	4	0	80	2	0	0	100
fixed	3	1	3	432787	6	4	4	1	0	764	1	4	0	96	3	0	0	100
fixed	3	1	4	434042	2	1	1	1	0	839	1	4	0	72	4	0	0	100
fixed	3	1	5	435716	5	3	3	1	0	969	1	4	0	88	5	0	0	100
fixed	3	1	6	437386	6	4	4	1	0	866	1	4	0	96	6	0	0	100
fixed	3	1	7	438801	3	1	1	1	0	870	1	4	0	72	7	0	0	100
fixed	3	1	8	440245	2	3	3	1	0	1008	1	4	0	88	8	0	0	100
fixed	3	1	9	442166	3	2	2	1	0	871	1	4	0	80	9	0	0	100
fixed	3	1	10	443665	1	4	4	1	0	776	1	4	0	96	10	0	0	100
fixed	3	1	11	445452	5	2	2	1	0	1404	1	4	0	80	11	0	0	100
fixed	3	1	12	447352	4	3	3	1	0	947	1	4	0	88	12	0	0	100
fixed	3	2	1	448903	4	1	1	1	0	722	1	4	0	72	13	0	0	100
fixed	3	2	2	450540	1	2	2	1	0	1156	1	4	0	80	14	0	0	100
fixed	3	2	3	452201	6	4	4	1	0	862	1	4	0	96	15	0	0	100
fixed	3	2	4	453920	2	1	1	1	0	805	1	4	0	72	16	0	0	100
fixed	3	2	5	455227	5	3	3	1	0	1150	1	4	0	88	17	0	0	100
fixed	3	2	6	457010	6	4	4	1	0	626	1	4	0	96	18	0	0	100
fixed	3	2	7	458095	3	1	1	1	0	500	1	4	0	72	19	0	0	100
fixed	3	2	8	459609	2	3	3	2	0	1277	2	4	0	88	20	0	0	100
fixed	3	2	9	461666	3	2	2	1	0	1109	1	4	0	80	21	0	0	100
fixed	3	2	10	463400	1	4	4	1	0	916	1	4	0	96	22	0	0	100
fixed	3	2	11	464653	5	2	2	1	0	1327	1	4	0	80	23	0	0	100
fixed	3	2	12	466324	4	3	3	1	0	1168	1	4	0	88	24	0	0	100
fixed	3	3	1	468334	4	1	1	1	0	715	1	4	0	72	25	0	0	100
fixed	3	3	2	469974	1	2	2	1	0	1149	1	4	0	80	26	0	0	100
fixed	3	3	3	471986	6	4	4	1	0	744	1	4	0	96	27	0	0	100
fixed	3	3	4	473562	2	1	1	1	0	829	1	4	0	72	28	0	0	100
fixed	3	3	5	475215	5	3	3	1	0	1127	1	4	0	88	29	0	0	100
fixed	3	3	6	477158	6	4	4	1	0	805	1	4	0	96	30	0	0	100
fixed	3	3	7	478910	3	1	1	1	0	675	1	4	0	72	31	0	0	100
fixed	3	3	8	480088	2	3	3	1	0	817	1	4	0	88	32	0	0	100
fixed	3	3	9	481857	3	2	2	1	0	686	1	4	0	80	33	0	0	100
fixed	3	3	10	483017	1	4	4	1	0	660	1	4	0	96	34	0	0	100
fixed	3	3	11	484392	5	2	2	1	0	954	1	4	0	80	35	0	0	100
fixed	3	3	12	485935	4	3	3	1	0	801	1	4	0	88	36	0	0	100
fixed	3	4	1	487297	4	1	1	1	0	687	1	4	0	72	37	0	0	100
fixed	3	4	2	488751	1	2	2	1	0	890	1	4	0	80	38	0	0	100
fixed	3	4	3	490176	6	4	4	1	0	798	1	4	0	96	39	0	0	100
fixed	3	4	4	491826	2	1	1	1	0	1064	1	4	0	72	40	0	0	100
fixed	3	4	5	493811	5	3	3	1	0	1235	1	4	0	88	41	0	0	100
fixed	3	4	6	495565	6	4	4	1	0	713	1	4	0	96	42	0	0	100
fixed	3	4	7	496949	3	1	1	1	0	831	1	4	0	72	43	0	0	100
fixed	3	4	8	498721	2	3	3	1	0	1140	1	4	0	88	44	0	0	100
fixed	3	4	9	500445	3	2	2	1	0	930	1	4	0	80	45	0	0	100
fixed	3	4	10	502148	1	4	4	1	0	690	1	4	0	96	46	0	0	100
fixed	3	4	11	503843	5	2	2	1	0	835	1	4	0	80	47	0	0	100
fixed	3	4	12	505402	4	3	3	1	0	1041	1	4	0	88	48	0	0	100
fixed	3	5	1	507731	4	1	1	1	0	726	1	4	0	72	49	0	0	100
fixed	3	5	2	508938	1	2	2	1	0	883	1	4	0	80	50	0	0	100
fixed	3	5	3	510170	6	4	4	1	0	959	1	4	0	96	51	0	0	100
fixed	3	5	4	512056	2	1	1	1	0	879	1	4	0	72	52	0	0	100
fixed	3	5	5	513593	5	3	3	1	0	1301	1	4	0	88	53	0	0	100
fixed	3	5	6	515607	6	4	4	1	0	793	1	4	0	96	54	0	0	100
fixed	3	5	7	517008	3	1	1	1	0	533	1	4	0	72	55	0	0	100
fixed	3	5	8	517835	2	3	3	1	0	1138	1	4	0	88	56	0	0	100
fixed	3	5	9	519836	3	2	2	1	0	702	1	4	0	80	57	0	0	100
fixed	3	5	10	521125	1	4	4	1	0	703	1	4	0	96	58	0	0	100
fixed	3	5	11	522167	5	2	2	1	0	1018	1	4	0	80	59	0	0	100
fixed	3	5	12	523528	4	3	3	1	0	921	1	4	0	88	60	0	0	100
fixed	3	6	1	525190	4	1	1	1	0	714	1	4	0	72	61	0	0	100
fixed	3	6	2	526341	1	2	0	1	2	0	3	4	0	80	61	0	1	98
fixed	3	6	3	529253	6	4	4	1	0	846	1	4	0	96	62	0	1	98
fixed	3	6	4	530977	2	1	1	1	0	774	1	4	0	72	63	0	1	98
fixed	3	6	5	532430	5	3	3	1	0	264	1	4	0	88	64	0	1	98
fixed	3	6	6	533121	6	4	0	0	2	0	3	4	0	96	64	0	2	97
fixed	3	6	7	536379	3	1	1	1	0	633	1	4	0	72	65	0	2	97
fixed	3	6	8	537775	2	3	3	1	0	1013	1	4	0	88	66	0	2	97
fixed	3	6	9	539747	3	2	2	1	0	650	1	4	0	80	67	0	2	97
fixed	3	6	10	541407	1	4	4	1	0	684	1	4	0	96	68	0	2	97
fixed	3	6	11	542822	5	2	2	1	0	864	1	4	0	80	69	0	2	97
fixed	3	6	12	544548	4	3	3	1	0	983	1	4	0	88	70	0	2	97
fixed	3	7	1	546776	4	1	1	1	0	704	1	4	0	72	71	0	2	97
fixed	3	7	2	548287	1	2	2	1	0	1016	1	4	0	80	72	0	2	97
fixed	3	7	3	549796	6	4	4	1	0	689	1	4	0	96	73	0	2	97
fixed	3	7	4	550912	2	1	1	1	0	761	1	4	0	72	74	0	2	97
fixed	3	7	5	552597	5	3	3	1	0	1738	1	4	0	88	75	0	2	97
fixed	3	7	6	555039	6	4	4	1	0	666	1	4	0	96	76	0	2	97
fixed	3	7	7	556107	3	1	1	2	0	2133	2	4	0	72	77	0	2	97
fixed	3	7	8	558828	2	3	3	1	0	1698	1	4	0	88	78	0	2	98
fixed	3	7	9	561231	3	2	2	1	0	844	1	4	0	80	79	0	2	98
fixed	3	7	10	562609	1	4	4	1	0	746	1	4	0	96	80	0	2	98
fixed	3	7	11	564300	5	2	2	1	0	986	1	4	0	80	81	0	2	98
fixed	3	7	12	566213	4	3	3	1	0	729	1	4	0	88	82	0	2	98
fixed	3	8	1	567644	4	1	1	1	0	796	1	4	0	72	83	0	2	98
fixed	3	8	2	569107	1	2	2	1	0	2151	1	4	0	80	84	0	2	98
fixed	3	8	3	571914	6	4	4	1	0	848	1	4	0	96	85	0	2	98
fixed	3	8	4	573279	2	1	1	1	0	638	1	4	0	72	86	0	2	98
fixed	3	8	5	574333	5	3	0	1	2	0	3	4	0	88	86	0	3	97
fixed	3	8	6	577218	6	4	4	1	0	1455	1	4	0	96	87	0	3	97
fixed	3	8	7	579385	3	1	1	1	0	1163	1	4	0	72	88	0	3	97
fixed	3	8	8	581155	2	3	3	1	0	1649	1	4	0	88	89	0	3	97
fixed	3	8	9	583314	3	2	2	1	0	668	1	4	0	80	90	0	3	97
fixed	3	8	10	584961	1	4	4	1	0	887	1	4	0	96	91	0	3	97
fixed	3	8	11	586334	5	2	2	1	0	1661	1	4	0	80	92	0	3	97
fixed	3	8	12	589028	4	3	3	1	0	1202	1	4	0	88	93	0	3	97
fixed	3	9	1	591085	4	1	1	1	0	867	1	4	0	72	94	0	3	97
fixed	3	9	2	592500	1	2	2	1	0	1376	1	4	0	80	95	0	3	97
fixed	3	9	3	594306	6	4	4	1	0	836	1	4	0	96	96	0	3	97
fixed	3	9	4	595519	2	1	1	1	0	1096	1	4	0	72	97	0	3	97
fixed	3	9	5	597314	5	3	3	1	0	2475	1	4	0	88	98	0	3	97
fixed	3	9	6	600403	6	4	4	1	0	1009	1	4	0	96	99	0	3	97
fixed	3	9	7	602276	3	1	1	1	0	514	1	4	0	72	100	0	3	97
fixed	3	9	8	603801	2	3	3	1	0	1641	1	4	0	88	101	0	3	97
fixed	3	9	9	606473	3	2	2	1	0	640	1	4	0	80	102	0	3	97
fixed	3	9	10	607860	1	4	4	1	0	581	1	4	0	96	103	0	3	97
fixed	3	9	11	609178	5	2	2	1	0	821	1	4	0	80	104	0	3	97
fixed	3	9	12	610897	4	3	3	1	0	1165	1	4	0	88	105	0	3	97
fixed	3	10	1	613073	4	1	1	1	0	704	1	4	0	72	106	0	3	97
fixed	3	10	2	614482	1	2	2	1	0	1461	1	4	0	80	107	0	3	97
fixed	3	10	3	616649	6	4	4	1	0	1769	1	4	0	96	108	0	3	97
fixed	3	10	4	619145	2	1	1	1	0	1127	1	4	0	72	109	0	3	97
fixed	3	10	5	620931	5	3	3	1	0	1443	1	4	0	88	110	0	3	97
fixed	3	10	6	623270	6	4	4	1	0	1313	1	4	0	96	111	0	3	97
fixed	3	10	7	625089	3	1	1	1	0	1131	1	4	0	72	112	0	3	97
fixed	3	10	8	626560	2	3	3	1	0	1085	1	4	0	88	113	0	3	97
fixed	3	10	9	628564	3	2	2	1	0	728	1	4	0	80	114	0	3	97
fixed	3	10	10	630094	1	4	4	1	0	912	1	4	0	96	115	0	3	97
fixed	3	10	11	631944	5	2	2	1	0	1113	1	4	0	80	116	0	3	97
fixed	3	10	12	633667	4	3	3	1	0	1088	1	4	0	88	117	0	3	98
fixed	4	1	1	762971	4	1	1	1	0	1131	1	4	0	104	1	0	0	100
fixed	4	1	2	764766	1	2	2	1	0	975	1	4	0	112	2	0	0	100
fixed	4	1	3	766385	6	4	4	1	0	611	1	4	0	128	3	0	0	100
fixed	4	1	4	767994	2	1	1	1	0	647	1	4	0	104	4	0	0	100
fixed	4	1	5	769035	5	3	3	1	0	818	1	4	0	120	5	0	0	100
fixed	4	1	6	770664	6	4	4	1	0	614	1	4	0	128	6	0	0	100
fixed	4	1	7	772144	3	1	1	1	0	719	1	4	0	104	7	0	0	100
fixed	4	1	8	773243	2	3	3	1	0	1361	1	4	0	120	8	0	0	100
fixed	4	1	9	775133	3	2	2	1	0	521	1	4	0	112	9	0	0	100
fixed	4	1	10	776255	1	4	4	1	0	617	1	4	0	128	10	0	0	100
fixed	4	1	11	777681	5	2	2	1	0	804	1	4	0	112	11	0	0	100
fixed	4	1	12	778851	4	3	3	1	0	635	1	4	0	120	12	0	0	100
fixed	4	2	1	780567	4	1	1	1	0	594	1	4	0	104	13	0	0	100
fixed	4	2	2	781919	1	2	2	1	0	913	1	4	0	112	14	0	0	100
fixed	4	2	3	783568	6	4	4	1	0	747	1	4	0	128	15	0	0	100
fixed	4	2	4	784950	2	1	1	1	0	617	1	4	0	104	16	0	0	100
fixed	4	2	5	786363	5	3	3	1	0	1100	1	4	0	120	17	0	0	100
fixed	4	2	6	787929	6	4	4	1	0	795	1	4	0	128	18	0	0	100
fixed	4	2	7	789747	3	1	1	1	0	653	1	4	0	104	19	0	0	100
fixed	4	2	8	791140	2	3	3	1	0	1099	1	4	0	120	20	0	0	100
fixed	4	2	9	792685	3	2	2	1	0	737	1	4	0	112	21	0	0	100
fixed	4	2	10	794312	1	4	4	1	0	748	1	4	0	128	22	0	0	100
fixed	4	2	11	796038	5	2	2	1	0	819	1	4	0	112	23	0	0	100
fixed	4	2	12	797678	4	3	3	1	0	645	1	4	0	120	24	0	0	100
fixed	4	3	1	799079	4	1	1	1	0	498	1	4	0	104	25	0	0	100
fixed	4	3	2	800338	1	2	2	1	0	893	1	4	0	112	26	0	0	100
fixed	4	3	3	801853	6	4	4	1	0	780	1	4	0	128	27	0	0	100
fixed	4	3	4	803073	2	1	1	1	0	721	1	4	0	104	28	0	0	100
fixed	4	3	5	804724	5	3	3	1	0	1075	1	4	0	120	29	0	0	100
fixed	4	3	6	806781	6	4	4	1	0	764	1	4	0	128	30	0	0	100
fixed	4	3	7	808074	3	1	1	1	0	653	1	4	0	104	31	0	0	100
fixed	4	3	8	809037	2	3	3	1	0	1060	1	4	0	120	32	0	0	100
fixed	4	3	9	810545	3	2	2	1	0	613	1	4	0	112	33	0	0	100
fixed	4	3	10	811826	1	4	4	1	0	702	1	4	0	128	34	0	0	100
fixed	4	3	11	813472	5	2	2	1	0	657	1	4	0	112	35	0	0	100
fixed	4	3	12	814746	4	3	3	1	0	907	1	4	0	120	36	0	0	100
fixed	4	4	1	816271	4	1	1	1	0	762	1	4	0	104	37	0	0	100
fixed	4	4	2	817879	1	2	2	1	0	942	1	4	0	112	38	0	0	100
fixed	4	4	3	819785	6	4	4	1	0	613	1	4	0	128	39	0	0	100
fixed	4	4	4	821359	2	1	1	1	0	979	1	4	0	104	40	0	0	100
fixed	4	4	5	823057	5	3	3	1	0	842	1	4	0	120	41	0	0	100
fixed	4	4	6	824913	6	4	4	1	0	764	1	4	0	128	42	0	0	100
fixed	4	4	7	826547	3	1	1	1	0	982	1	4	0	104	43	0	0	100
fixed	4	4	8	828170	2	3	3	1	0	690	1	4	0	120	44	0	0	100
fixed	4	4	9	829743	3	2	2	1	0	431	1	4	0	112	45	0	0	100
fixed	4	4	10	830482	1	4	4	1	0	664	1	4	0	128	46	0	0	100
fixed	4	4	11	832007	5	2	2	1	0	855	1	4	0	112	47	0	0	100
fixed	4	4	12	833531	4	3	3	1	0	743	1	4	0	120	48	0	0	100
fixed	4	5	1	835251	4	1	1	1	0	734	1	4	0	104	49	0	0	100
fixed	4	5	2	836801	1	2	2	2	0	893	2	4	0	112	50	0	0	100
fixed	4	5	3	838121	6	4	4	1	0	661	1	4	0	128	51	0	0	100
fixed	4	5	4	839490	2	1	1	1	0	787	1	4	0	104	52	0	0	100
fixed	4	5	5	840699	5	3	3	2	0	1975	2	4	0	120	53	0	0	100
fixed	4	5	6	843129	6	4	4	1	0	1328	1	4	0	128	54	0	0	100
fixed	4	5	7	844861	3	1	1	1	0	775	1	4	0	104	55	0	0	100
fixed	4	5	8	846419	2	3	3	1	0	957	1	4	0	120	56	0	0	100
fixed	4	5	9	848376	3	2	2	1	0	594	1	4	0	112	57	0	0	100
fixed	4	5	10	849890	1	4	4	1	0	1130	1	4	0	128	58	0	0	100
fixed	4	5	11	851451	5	2	0	1	2	0	3	4	0	112	58	0	1	98
fixed	4	5	12	854353	4	3	3	1	0	1237	1	4	0	120	59	0	1	98
fixed	4	6	1	856603	4	1	1	1	0	853	1	4	0	104	60	0	1	98
fixed	4	6	2	857794	1	2	2	1	0	1187	1	4	0	112	61	0	1	98
fixed	4	6	3	859416	6	4	4	1	0	1087	1	4	0	128	62	0	1	98
fixed	4	6	4	861316	2	1	1	1	0	1102	1	4	0	104	63	0	1	98
fixed	4	6	5	862737	5	3	3	1	0	2082	1	4	0	120	64	0	1	98
fixed	4	6	6	865442	6	4	4	1	0	1231	1	4	0	128	65	0	1	98
fixed	4	6	7	866987	3	1	1	1	0	1534	1	4	0	104	66	0	1	99
fixed	4	6	8	869122	2	3	3	1	0	835	1	4	0	120	67	0	1	99
fixed	4	6	9	870523	3	2	2	1	0	840	1	4	0	112	68	0	1	99
fixed	4	6	10	871853	1	4	4	1	0	1536	1	4	0	128	69	0	1	99
fixed	4	6	11	874249	5	2	2	1	0	1490	1	4	0	112	70	0	1	99
fixed	4	6	12	876204	4	3	3	1	0	1279	1	4	0	120	71	0	1	99
fixed	4	7	1	878173	4	1	1	1	0	644	1	4	0	104	72	0	1	99
fixed	4	7	2	879662	1	2	2	1	0	989	1	4	0	112	73	0	1	99
fixed	4	7	3	881325	6	4	4	1	0	759	1	4	0	128	74	0	1	99
fixed	4	7	4	882380	2	1	1	1	0	858	1	4	0	104	75	0	1	99
fixed	4	7	5	883929	5	3	3	1	0	928	1	4	0	120	76	0	1	99
fixed	4	7	6	885683	6	4	4	1	0	678	1	4	0	128	77	0	1	99
fixed	4	7	7	886670	3	1	1	1	0	684	1	4	0	104	78	0	1	99
fixed	4	7	8	888232	2	3	3	1	0	922	1	4	0	120	79	0	1	99
fixed	4	7	9	889830	3	2	2	1	0	655	1	4	0	112	80	0	1	99
fixed	4	7	10	891041	1	4	4	1	0	995	1	4	0	128	81	0	1	99
fixed	4	7	11	892475	5	2	0	1	2	0	3	4	0	112	81	0	2	98
fixed	4	7	12	895650	4	3	3	1	0	1112	1	4	0	120	82	0	2	98
fixed	4	8	1	897554	4	1	1	1	0	679	1	4	0	104	83	0	2	98
fixed	4	8	2	899226	1	2	2	1	0	968	1	4	0	112	84	0	2	98
fixed	4	8	3	900656	6	4	4	1	0	988	1	4	0	128	85	0	2	98
fixed	4	8	4	902439	2	1	1	1	0	904	1	4	0	104	86	0	2	98
fixed	4	8	5	903994	5	3	0	0	2	0	3	4	0	120	86	0	3	97
fixed	4	8	6	907495	6	4	4	1	0	778	1	4	0	128	87	0	3	97
fixed	4	8	7	909074	3	1	1	1	0	751	1	4	0	104	88	0	3	97
fixed	4	8	8	910511	2	3	3	1	0	1075	1	4	0	120	89	0	3	97
fixed	4	8	9	911935	3	2	2	2	0	1286	2	4	0	112	90	0	3	97
fixed	4	8	10	913609	1	4	4	1	0	1255	1	4	0	128	91	0	3	97
fixed	4	8	11	915885	5	2	2	1	0	943	1	4	0	112	92	0	3	97
fixed	4	8	12	917760	4	3	3	1	0	927	1	4	0	120	93	0	3	97
fixed	4	9	1	919574	4	1	1	1	0	834	1	4	0	104	94	0	3	97
fixed	4	9	2	921351	1	2	2	1	0	951	1	4	0	112	95	0	3	97
fixed	4	9	3	923174	6	4	4	1	0	1026	1	4	0	128	96	0	3	97
fixed	4	9	4	925139	2	1	1	1	0	1215	1	4	0	104	97	0	3	97
fixed	4	9	5	926849	5	3	3	1	0	1198	1	4	0	120	98	0	3	97
fixed	4	9	6	929046	6	4	4	1	0	913	1	4	0	128	99	0	3	97
fixed	4	9	7	930971	3	1	1	1	0	744	1	4	0	104	100	0	3	97
fixed	4	9	8	932138	2	3	3	1	0	1126	1	4	0	120	101	0	3	97
fixed	4	9	9	933722	3	2	2	1	0	716	1	4	0	112	102	0	3	97
fixed	4	9	10	935127	1	4	4	1	0	1079	1	4	0	128	103	0	3	97
fixed	4	9	11	936568	5	2	2	1	0	1043	1	4	0	112	104	0	3	97
fixed	4	9	12	937936	4	3	3	1	0	1153	1	4	0	120	105	0	3	97
fixed	4	10	1	940158	4	1	1	1	0	666	1	4	0	104	106	0	3	97
fixed	4	10	2	941589	1	2	2	1	0	1110	1	4	0	112	107	0	3	97
fixed	4	10	3	943719	6	4	4	1	0	564	1	4	0	128	108	0	3	97
fixed	4	10	4	944770	2	1	1	1	0	703	1	4	0	104	109	0	3	97
fixed	4	10	5	946058	5	3	3	1	0	857	1	4	0	120	110	0	3	97
fixed	4	10	6	947854	6	4	4	1	0	1549	1	4	0	128	111	0	3	97
fixed	4	10	7	950242	3	1	1	1	0	760	1	4	0	104	112	0	3	97
fixed	4	10	8	951787	2	3	3	1	0	1022	1	4	0	120	113	0	3	97
fixed	4	10	9	953401	3	2	2	1	0	706	1	4	0	112	114	0	3	97
fixed	4	10	10	954960	1	4	4	1	0	703	1	4	0	128	115	0	3	97
fixed	4	10	11	956407	5	2	2	1	0	1115	1	4	0	112	116	0	3	97
fixed	4	10	12	958484	4	3	3	1	0	754	1	4	0	120	117	0	3	98
fixed	5	1	1	960088	4	1	1	1	0	822	1	4	0	136	1	0	0	100
fixed	5	1	2	961421	1	2	2	1	0	726	1	4	0	144	2	0	0	100
fixed	5	1	3	962543	6	4	4	1	0	710	1	4	0	160	3	0	0	100
fixed	5	1	4	963598	2	1	1	1	0	746	1	4	0	136	4	0	0	100
fixed	5	1	5	965340	5	3	3	1	0	808	1	4	0	152	5	0	0	100
fixed	5	1	6	966808	6	4	4	1	0	1250	1	4	0	160	6	0	0	100
fixed	5	1	7	968411	3	1	1	1	0	774	1	4	0	136	7	0	0	100
fixed	5	1	8	969815	2	3	3	1	0	1170	1	4	0	152	8	0	0	100
fixed	5	1	9	971413	3	2	2	1	0	655	1	4	0	144	9	0	0	100
fixed	5	1	10	972379	1	4	4	1	0	846	1	4	0	160	10	0	0	100
fixed	5	1	11	973935	5	2	2	1	0	828	1	4	0	144	11	0	0	100
fixed	5	1	12	975334	4	3	3	1	0	977	1	4	0	152	12	0	0	100
fixed	5	2	1	977366	4	1	1	1	0	619	1	4	0	136	13	0	0	100
fixed	5	2	2	978801	1	2	2	1	0	822	1	4	0	144	14	0	0	100
fixed	5	2	3	980108	6	4	4	1	0	638	1	4	0	160	15	0	0	100
fixed	5	2	4	981103	2	1	1	1	0	861	1	4	0	136	16	0	0	100
fixed	5	2	5	982325	5	3	3	1	0	841	1	4	0	152	17	0	0	100
fixed	5	2	6	983888	6	4	4	1	0	1319	1	4	0	160	18	0	0	100
fixed	5	2	7	985633	3	1	1	1	0	661	1	4	0	136	19	0	0	100
fixed	5	2	8	986860	2	3	3	1	0	753	1	4	0	152	20	0	0	100
fixed	5	2	9	988504	3	2	2	1	0	731	1	4	0	144	21	0	0	100
fixed	5	2	10	990192	1	4	4	1	0	668	1	4	0	160	22	0	0	100
fixed	5	2	11	991298	5	2	2	1	0	1148	1	4	0	144	23	0	0	100
fixed	5	2	12	993361	4	3	3	1	0	1509	1	4	0	152	24	0	0	100
fixed	5	3	1	995461	4	1	1	1	0	460	1	4	0	136	25	0	0	100
fixed	5	3	2	996872	1	2	2	1	0	1193	1	4	0	144	26	0	0	100
fixed	5	3	3	998741	6	4	4	1	0	849	1	4	0	160	27	0	0	100
fixed	5	3	4	1000009	2	1	1	1	0	1276	1	4	0	136	28	0	0	100
fixed	5	3	5	1001987	5	3	3	1	0	1344	1	4	0	152	29	0	0	100
fixed	5	3	6	1004062	6	4	4	1	0	792	1	4	0	160	30	0	0	100
fixed	5	3	7	1005370	3	1	1	1	0	752	1	4	0	136	31	0	0	100
fixed	5	3	8	1006695	2	3	3	1	0	761	1	4	0	152	32	0	0	100
fixed	5	3	9	1008231	3	2	2	1	0	679	1	4	0	144	33	0	0	100
fixed	5	3	10	1009243	1	4	4	1	0	724	1	4	0	160	34	0	0	100
fixed	5	3	11	1010612	5	2	2	1	0	1026	1	4	0	144	35	0	0	100
fixed	5	3	12	1012580	4	3	3	1	0	1127	1	4	0	152	36	0	0	100
fixed	5	4	1	1014758	4	1	1	1	0	923	1	4	0	136	37	0	0	100
fixed	5	4	2	1016559	1	2	0	0	2	0	3	4	0	144	37	0	1	97
fixed	5	4	3	1019484	6	4	4	1	0	611	1	4	0	160	38	0	1	97
fixed	5	4	4	1020806	2	1	1	1	0	963	1	4	0	136	39	0	1	98
fixed	5	4	5	1022735	5	3	3	1	0	969	1	4	0	152	40	0	1	98
fixed	5	4	6	1024672	6	4	4	1	0	863	1	4	0	160	41	0	1	98
fixed	5	4	7	1026163	3	1	1	1	0	768	1	4	0	136	42	0	1	98
fixed	5	4	8	1027713	2	3	3	2	0	1366	2	4	0	152	43	0	1	98
fixed	5	4	9	1029976	3	2	2	1	0	630	1	4	0	144	44	0	1	98
fixed	5	4	10	1031365	1	4	4	1	0	763	1	4	0	160	45	0	1	98
fixed	5	4	11	1032635	5	2	2	1	0	790	1	4	0	144	46	0	1	98
fixed	5	4	12	1034052	4	3	3	1	0	914	1	4	0	152	47	0	1	98
fixed	5	5	1	1036160	4	1	1	1	0	640	1	4	0	136	48	0	1	98
fixed	5	5	2	1037636	1	2	2	1	0	1818	1	4	0	144	49	0	1	98
fixed	5	5	3	1040366	6	4	4	1	0	1055	1	4	0	160	50	0	1	98
fixed	5	5	4	1042413	2	1	1	1	0	840	1	4	0	136	51	0	1	98
fixed	5	5	5	1044073	5	3	3	1	0	1682	1	4	0	152	52	0	1	98
fixed	5	5	6	1046527	6	4	4	1	0	1026	1	4	0	160	53	0	1	98
fixed	5	5	7	1047964	3	1	1	1	0	893	1	4	0	136	54	0	1	98
fixed	5	5	8	1049344	2	3	3	1	0	818	1	4	0	152	55	0	1	98
fixed	5	5	9	1051123	3	2	2	1	0	639	1	4	0	144	56	0	1	98
fixed	5	5	10	1052140	1	4	4	1	0	620	1	4	0	160	57	0	1	98
fixed	5	5	11	1053702	5	2	2	1	0	961	1	4	0	144	58	0	1	98
fixed	5	5	12	1055079	4	3	3	1	0	975	1	4	0	152	59	0	1	98
fixed	5	6	1	1056694	4	1	1	1	0	875	1	4	0	136	60	0	1	98
fixed	5	6	2	1058250	1	2	2	1	0	1793	1	4	0	144	61	0	1	98
fixed	5	6	3	1061066	6	4	4	1	0	930	1	4	0	160	62	0	1	98
fixed	5	6	4	1062543	2	1	1	1	0	739	1	4	0	136	63	0	1	98
fixed	5	6	5	1063725	5	3	3	1	0	993	1	4	0	152	64	0	1	98
fixed	5	6	6	1065601	6	4	4	1	0	769	1	4	0	160	65	0	1	98
fixed	5	6	7	1067391	3	1	1	1	0	1006	1	4	0	136	66	0	1	99
fixed	5	6	8	1069025	2	3	3	1	0	1048	1	4	0	152	67	0	1	99
fixed	5	6	9	1070454	3	2	2	1	0	1052	1	4	0	144	68	0	1	99
fixed	5	6	10	1072111	1	4	4	1	0	710	1	4	0	160	69	0	1	99
fixed	5	6	11	1073362	5	2	2	1	0	969	1	4	0	144	70	0	1	99
fixed	5	6	12	1074918	4	3	3	1	0	879	1	4	0	152	71	0	1	99
fixed	5	7	1	1076660	4	1	1	1	0	1053	1	4	0	136	72	0	1	99
fixed	5	7	2	1078745	1	2	2	2	0	2253	2	4	0	144	73	0	1	99
fixed	5	7	3	1081828	6	4	4	1	0	1378	1	4	0	160	74	0	1	99
fixed	5	7	4	1084126	2	1	1	1	0	657	1	4	0	136	75	0	1	99
fixed	5	7	5	1085720	5	3	3	1	0	933	1	4	0	152	76	0	1	99
fixed	5	7	6	1087225	6	4	4	1	0	1086	1	4	0	160	77	0	1	99
fixed	5	7	7	1089134	3	1	1	1	0	893	1	4	0	136	78	0	1	99
fixed	5	7	8	1090698	2	3	3	1	0	826	1	4	0	152	79	0	1	99
fixed	5	7	9	1092474	3	2	0	1	2	0	3	4	0	144	79	0	2	98
fixed	5	7	10	1095558	1	4	4	1	0	877	1	4	0	160	80	0	2	98
fixed	5	7	11	1097392	5	2	2	1	0	743	1	4	0	144	81	0	2	98
fixed	5	7	12	1098657	4	3	3	1	0	826	1	4	0	152	82	0	2	98
fixed	5	8	1	1100301	4	1	1	1	0	732	1	4	0	136	83	0	2	98
fixed	5	8	2	1101457	1	2	2	1	0	1907	1	4	0	144	84	0	2	98
fixed	5	8	3	1104182	6	4	4	1	0	975	1	4	0	160	85	0	2	98
fixed	5	8	4	1105583	2	1	1	1	0	692	1	4	0	136	86	0	2	98
fixed	5	8	5	1107129	5	3	3	1	0	1187	1	4	0	152	87	0	2	98
fixed	5	8	6	1108726	6	4	4	1	0	1327	1	4	0	160	88	0	2	98
fixed	5	8	7	1110542	3	1	1	1	0	706	1	4	0	136	89	0	2	98
fixed	5	8	8	1112043	2	3	3	1	0	2011	1	4	0	152	90	0	2	98
fixed	5	8	9	1114986	3	2	2	1	0	630	1	4	0	144	91	0	2	98
fixed	5	8	10	1116515	1	4	4	1	0	885	1	4	0	160	92	0	2	98
fixed	5	8	11	1117922	5	2	2	1	0	962	1	4	0	144	93	0	2	98
fixed	5	8	12	1119362	4	3	3	1	0	700	1	4	0	152	94	0	2	98
fixed	5	9	1	1120651	4	1	1	1	0	590	1	4	0	136	95	0	2	98
fixed	5	9	2	1122201	1	2	2	1	0	1669	1	4	0	144	96	0	2	98
fixed	5	9	3	1124426	6	4	4	1	0	1878	1	4	0	160	97	0	2	98
fixed	5	9	4	1126952	2	1	1	1	0	795	1	4	0	136	98	0	2	98
fixed	5	9	5	1128757	5	3	3	1	0	2454	1	4	0	152	99	0	2	98
fixed	5	9	6	1132231	6	4	4	1	0	1795	1	4	0	160	100	0	2	98
fixed	5	9	7	1134878	3	1	1	1	0	987	1	4	0	136	101	0	2	98
fixed	5	9	8	1136348	2	3	3	1	0	1141	1	4	0	152	102	0	2	98
fixed	5	9	9	1137793	3	2	2	1	0	760	1	4	0	144	103	0	2	98
fixed	5	9	10	1139460	1	4	4	1	0	738	1	4	0	160	104	0	2	98
fixed	5	9	11	1140961	5	2	2	1	0	1714	1	4	0	144	105	0	2	98
fixed	5	9	12	1143576	4	3	3	1	0	1219	1	4	0	152	106	0	2	98
fixed	5	10	1	1146047	4	1	1	1	0	706	1	4	0	136	107	0	2	98
fixed	5	10	2	1147054	1	2	2	1	0	1224	1	4	0	144	108	0	2	98
fixed	5	10	3	1149009	6	4	4	1	0	1533	1	4	0	160	109	0	2	98
fixed	5	10	4	1150978	2	1	1	1	0	681	1	4	0	136	110	0	2	98
fixed	5	10	5	1151978	5	3	3	1	0	2367	1	4	0	152	111	0	2	98
fixed	5	10	6	1154710	6	4	4	1	0	1075	1	4	0	160	112	0	2	98
fixed	5	10	7	1156126	3	1	1	1	0	743	1	4	0	136	113	0	2	98
fixed	5	10	8	1157159	2	3	3	1	0	1315	1	4	0	152	114	0	2	98
fixed	5	10	9	1159464	3	2	2	1	0	1002	1	4	0	144	115	0	2	98
fixed	5	10	10	1160805	1	4	4	1	0	945	1	4	0	160	116	0	2	98
fixed	5	10	11	1162137	5	2	2	1	0	1057	1	4	0	144	117	0	2	98
fixed	5	10	12	1164022	4	3	3	1	0	1137	1	4	0	152	118	0	2	98
random	6	1	1	1292754	6	1	1	1	0	1180	1	4	0	168	1	0	0	100
random	6	1	2	1294329	4	4	4	1	0	770	1	4	0	192	2	0	0	100
random	6	1	3	1295758	2	2	2	1	0	877	1	4	0	176	3	0	0	100
random	6	1	4	1296996	3	3	3	1	0	633	1	4	0	184	4	0	0	100
random	6	1	5	1298566	5	2	2	1	0	735	1	4	0	176	5	0	0	100
random	6	1	6	1300259	1	4	4	1	0	806	1	4	0	192	6	0	0	100
random	6	1	7	1301829	6	1	1	1	0	708	1	4	0	168	7	0	0	100
random	6	1	8	1303531	2	3	3	1	0	1252	1	4	0	184	8	0	0	100
random	6	1	9	1305366	4	2	2	1	0	543	1	4	0	176	9	0	0	100
random	6	1	10	1306237	1	1	1	1	0	529	1	4	0	168	10	0	0	100
random	6	1	11	1307245	5	4	4	1	0	439	1	4	0	192	11	0	0	100
random	6	1	12	1308308	3	3	3	2	0	2209	2	4	0	184	12	0	0	100
random	6	1	13	1311218	5	2	2	1	0	566	1	4	0	176	13	0	0	100
random	6	1	14	1312639	1	4	4	1	0	762	1	4	0	192	14	0	0	100
random	6	1	15	1314076	3	1	1	1	0	669	1	4	0	168	15	0	0	100
random	6	1	16	1315238	4	3	3	1	0	1108	1	4	0	184	16	0	0	100
random	6	1	17	1317157	6	4	4	1	0	715	1	4	0	192	17	0	0	100
random	6	1	18	1318888	2	1	1	1	0	649	1	4	0	168	18	0	0	100
random	6	1	19	1320243	5	3	3	1	0	888	1	4	0	184	19	0	0	100
random	6	1	20	1321561	2	2	2	1	0	608	1	4	0	176	20	0	0	100
random	6	1	21	1322695	3	3	3	1	0	864	1	4	0	184	21	0	0	100
random	6	1	22	1324086	6	1	1	1	0	965	1	4	0	168	22	0	0	100
random	6	1	23	1325631	4	2	2	1	0	804	1	4	0	176	23	0	0	100
random	6	1	24	1327444	1	4	4	1	0	887	1	4	0	192	24	0	0	100
random	6	1	25	1329046	4	3	3	1	0	923	1	4	0	184	25	0	0	100
random	6	1	26	1330573	2	1	1	1	0	803	1	4	0	168	26	0	0	100
random	6	1	27	1332267	5	2	2	1	0	915	1	4	0	176	27	0	0	100
random	6	1	28	1333617	6	4	4	1	0	866	1	4	0	192	28	0	0	100
random	6	1	29	1335273	1	3	3	1	0	564	1	4	0	184	29	0	0	100
random	6	1	30	1336198	5	2	2	1	0	796	1	4	0	176	30	0	0	100
random	6	1	31	1337518	2	1	1	1	0	508	1	4	0	168	31	0	0	100
random	6	1	32	1338668	3	3	3	1	0	924	1	4	0	184	32	0	0	100
random	6	1	33	1340382	6	4	4	1	0	707	1	4	0	192	33	0	0	100
random	6	1	34	1341453	4	2	2	1	0	1398	1	4	0	176	34	0	0	100
random	6	1	35	1343685	3	4	4	1	0	767	1	4	0	192	35	0	0	100
random	6	1	36	1345041	1	1	1	1	0	742	1	4	0	168	36	0	0	100
random	6	1	37	1346538	3	4	4	1	0	838	1	4	0	192	37	0	0	100
random	6	1	38	1347702	5	3	3	1	0	1133	1	4	0	184	38	0	0	100
random	6	1	39	1349684	6	1	1	1	0	713	1	4	0	168	39	0	0	100
random	6	1	40	1351329	1	2	2	1	0	716	1	4	0	176	40	0	0	100
random	6	1	41	1352670	2	3	3	1	0	555	1	4	0	184	41	0	0	100
random	6	1	42	1354158	4	4	4	1	0	476	1	4	0	192	42	0	0	100
random	6	1	43	1355124	1	2	2	1	0	770	1	4	0	176	43	0	0	100
random	6	1	44	1356552	6	3	3	1	0	854	1	4	0	184	44	0	0	100
random	6	1	45	1357842	3	1	1	1	0	1192	1	4	0	168	45	0	0	100
random	6	1	46	1359694	4	4	4	1	0	817	1	4	0	192	46	0	0	100
random	6	1	47	1361117	2	2	2	1	0	781	1	4	0	176	47	0	0	100
random	6	1	48	1362667	5	1	1	1	0	779	1	4	0	168	48	0	0	100
random	6	1	49	1364048	2	3	3	1	0	1105	1	4	0	184	49	0	0	100
random	6	1	50	1365661	3	1	1	1	0	749	1	4	0	168	50	0	0	100
random	6	1	51	1366721	1	4	4	1	0	719	1	4	0	192	51	0	0	100
random	6	1	52	1367862	5	3	3	1	0	1135	1	4	0	184	52	0	0	100
random	6	1	53	1369786	3	2	2	1	0	550	1	4	0	176	53	0	0	100
random	6	1	54	1371336	6	4	4	1	0	836	1	4	0	192	54	0	0	100
random	6	1	55	1373099	4	2	2	1	0	738	1	4	0	176	55	0	0	100
random	6	1	56	1374383	1	1	1	1	0	891	1	4	0	168	56	0	0	100
random	6	1	57	1376205	5	4	4	1	0	782	1	4	0	192	57	0	0	100
random	6	1	58	1377733	2	1	1	1	0	781	1	4	0	168	58	0	0	100
random	6	1	59	1379305	6	2	2	1	0	699	1	4	0	176	59	0	0	100
random	6	1	60	1380963	4	3	3	1	0	972	1	4	0	184	60	0	0	100
random	6	1	61	1382543	1	2	2	1	0	1369	1	4	0	176	61	0	0	100
random	6	1	62	1384428	6	4	4	1	0	1074	1	4	0	192	62	0	0	100
random	6	1	63	1385919	4	1	1	1	0	466	1	4	0	168	63	0	0	100
random	6	1	64	1387388	2	2	2	1	0	676	1	4	0	176	64	0	0	100
random	6	1	65	1388818	4	3	3	1	0	760	1	4	0	184	65	0	0	100
random	6	1	66	1390446	3	1	1	1	0	723	1	4	0	168	66	0	0	100
random	6	1	67	1391923	1	3	3	2	0	1348	2	4	0	184	67	0	0	100
random	6	1	68	1393776	5	4	4	1	0	742	1	4	0	192	68	0	0	100
random	6	1	69	1395160	2	2	2	1	0	787	1	4	0	176	69	0	0	100
random	6	1	70	1396500	3	1	1	1	0	882	1	4	0	168	70	0	0	100
random	6	1	71	1397686	5	4	4	1	0	544	1	4	0	192	71	0	0	100
random	6	1	72	1399025	6	3	3	1	0	720	1	4	0	184	72	0	0	100
random	6	1	73	1400421	2	1	1	1	0	732	1	4	0	168	73	0	0	100
random	6	1	74	1402165	5	3	3	1	0	699	1	4	0	184	74	0	0	100
random	6	1	75	1403441	1	4	4	1	0	725	1	4	0	192	75	0	0	100
random	6	1	76	1404703	6	2	2	1	0	623	1	4	0	176	76	0	0	100
random	6	1	77	1406237	2	1	1	1	0	830	1	4	0	168	77	0	0	100
random	6	1	78	1407475	4	4	4	1	0	666	1	4	0	192	78	0	0	100
random	6	1	79	1408984	3	2	2	1	0	770	1	4	0	176	79	0	0	100
random	6	1	80	1410758	4	3	3	1	0	855	1	4	0	184	80	0	0	100
random	6	1	81	1412187	1	4	4	1	0	498	1	4	0	192	81	0	0	100
random	6	1	82	1413678	5	1	1	1	0	715	1	4	0	168	82	0	0	100
random	6	1	83	1414821	3	2	2	1	0	706	1	4	0	176	83	0	0	100
random	6	1	84	1415864	6	3	3	1	0	622	1	4	0	184	84	0	0	100
random	6	1	85	1417045	3	2	2	1	0	724	1	4	0	176	85	0	0	100
random	6	1	86	1418511	1	3	3	1	0	598	1	4	0	184	86	0	0	100
random	6	1	87	1419978	4	4	4	1	0	528	1	4	0	192	87	0	0	100
random	6	1	88	1421100	2	1	1	1	0	713	1	4	0	168	88	0	0	100
random	6	1	89	1422173	6	4	4	2	0	2147	2	4	0	192	89	0	0	100
random	6	1	90	1424863	3	3	3	1	0	1089	1	4	0	184	90	0	0	100
random	6	1	91	1426265	5	4	4	1	0	1005	1	4	0	192	91	0	0	100
random	6	1	92	1428123	1	2	2	1	0	1151	1	4	0	176	92	0	0	100
random	6	1	93	1430066	5	1	1	1	0	797	1	4	0	168	93	0	0	100
random	6	1	94	1431504	4	3	3	1	0	1224	1	4	0	184	94	0	0	100
random	6	1	95	1433689	6	1	1	1	0	779	1	4	0	168	95	0	0	100
random	6	1	96	1434760	2	2	2	2	0	1086	2	4	0	176	96	0	0	100
random	6	1	97	1436442	4	3	3	1	0	798	1	4	0	184	97	0	0	100
random	6	1	98	1437872	3	2	2	1	0	1090	1	4	0	176	98	0	0	100
random	6	1	99	1439616	6	3	3	1	0	808	1	4	0	184	99	0	0	100
random	6	1	100	1441302	1	4	4	1	0	800	1	4	0	192	100	0	0	100
random	6	1	101	1442706	4	1	1	1	0	757	1	4	0	168	101	0	0	100
random	6	1	102	1444097	5	2	2	1	0	762	1	4	0	176	102	0	0	100
random	6	1	103	1445794	2	4	4	1	0	635	1	4	0	192	103	0	0	100
random	6	1	104	1447123	3	1	1	1	0	738	1	4	0	168	104	0	0	100
random	6	1	105	1448469	1	3	3	1	0	738	1	4	0	184	105	0	0	100
random	6	1	106	1449547	2	2	2	1	0	532	1	4	0	176	106	0	0	100
random	6	1	107	1450783	5	4	4	2	0	1215	2	4	0	192	107	0	0	100
random	6	1	108	1452753	6	1	1	1	0	804	1	4	0	168	108	0	0	100
random	6	1	109	1454269	5	4	4	1	0	795	1	4	0	192	109	0	0	100
random	6	1	110	1456043	6	3	3	1	0	1208	1	4	0	184	110	0	0	100
random	6	1	111	1457944	2	2	2	1	0	536	1	4	0	176	111	0	0	100
random	6	1	112	1459307	3	1	1	1	0	590	1	4	0	168	112	0	0	100
random	6	1	113	1460215	1	2	2	1	0	1207	1	4	0	176	113	0	0	100
random	6	1	114	1462348	2	3	3	1	0	758	1	4	0	184	114	0	0	100
random	6	1	115	1464046	3	1	1	1	0	693	1	4	0	168	115	0	0	100
random	6	1	116	1465177	4	4	4	1	0	597	1	4	0	192	116	0	0	100
random	6	1	117	1466460	6	1	1	1	0	455	1	4	0	168	117	0	0	100
random	6	1	118	1467422	5	3	3	1	0	870	1	4	0	184	118	0	0	100
random	6	1	119	1468617	1	4	4	1	0	748	1	4	0	192	119	0	0	100
random	6	1	120	1470271	4	2	2	1	0	798	1	4	0	176	120	0	0	100
fixed	7	1	1	1472111	4	1	1	1	0	768	1	4	0	200	1	0	0	100
fixed	7	1	2	1473505	1	2	2	1	0	1365	1	4	0	208	2	0	0	100
fixed	7	1	3	1475190	6	4	4	1	0	973	1	4	0	224	3	0	0	100
fixed	7	1	4	1476692	2	1	1	1	0	846	1	4	0	200	4	0	0	100
fixed	7	1	5	1477874	5	3	3	1	0	1180	1	4	0	216	5	0	0	100
fixed	7	1	6	1479645	6	4	4	1	0	913	1	4	0	224	6	0	0	100
fixed	7	1	7	1481459	3	1	1	1	0	460	1	4	0	200	7	0	0	100
fixed	7	1	8	1482295	2	3	3	1	0	777	1	4	0	216	8	0	0	100
fixed	7	1	9	1483862	3	2	2	1	0	566	1	4	0	208	9	0	0	100
fixed	7	1	10	1485461	1	4	4	1	0	1138	1	4	0	224	10	0	0	100
fixed	7	1	11	1487460	5	2	2	1	0	822	1	4	0	208	11	0	0	100
fixed	7	1	12	1488934	4	3	3	1	0	760	1	4	0	216	12	0	0	100
fixed	7	2	1	1490642	4	1	1	1	0	679	1	4	0	200	1	0	0	8
fixed	7	2	2	1492256	1	2	2	1	0	899	1	4	0	208	2	0	0	14
fixed	7	2	3	1493770	6	4	4	1	0	802	1	4	0	224	3	0	0	20
fixed	7	2	4	1495151	2	1	1	1	0	976	1	4	0	200	4	0	0	25
fixed	7	2	5	1496610	5	3	3	1	0	778	1	4	0	216	5	0	0	29
fixed	7	2	6	1498168	6	4	4	1	0	848	1	4	0	224	6	0	0	33
fixed	7	2	7	1499451	3	1	1	1	0	874	1	4	0	200	7	0	0	37
fixed	7	2	8	1500731	2	3	3	1	0	835	1	4	0	216	8	0	0	40
fixed	7	2	9	1502509	3	2	2	1	0	480	1	4	0	208	9	0	0	43
fixed	7	2	10	1503496	1	4	4	1	0	959	1	4	0	224	10	0	0	45
fixed	7	2	11	1505182	5	2	2	1	0	991	1	4	0	208	11	0	0	48
fixed	7	2	12	1507048	4	3	3	1	0	960	1	4	0	216	12	0	0	50
fixed	7	3	1	1508803	4	1	1	1	0	1013	1	4	0	200	1	0	0	4
fixed	7	3	2	1510556	1	2	2	1	0	931	1	4	0	208	2	0	0	8
fixed	7	3	3	1512300	6	4	4	1	0	1082	1	4	0	224	3	0	0	11
fixed	7	3	4	1514156	2	1	1	1	0	1139	1	4	0	200	4	0	0	14
fixed	7	3	5	1515983	5	3	3	1	0	1086	1	4	0	216	5	0	0	17
fixed	7	3	6	1517516	6	4	4	1	0	933	1	4	0	224	6	0	0	20
fixed	7	3	7	1519160	3	1	1	1	0	831	1	4	0	200	7	0	0	23
fixed	7	3	8	1521005	2	3	3	1	0	1329	1	4	0	216	8	0	0	25
fixed	7	3	9	1522840	3	2	2	1	0	699	1	4	0	208	9	0	0	27
fixed	7	3	10	1524171	1	4	4	1	0	730	1	4	0	224	10	0	0	29
fixed	7	3	11	1525586	5	2	2	1	0	919	1	4	0	208	11	0	0	31
fixed	7	3	12	1527521	4	3	3	1	0	1061	1	4	0	216	12	0	0	33
fixed	7	4	1	1529370	4	1	1	1	0	614	1	4	0	200	1	0	0	3
fixed	7	4	2	1530703	1	2	2	1	0	1135	1	4	0	208	2	0	0	5
fixed	7	4	3	1532617	6	4	4	1	0	1117	1	4	0	224	3	0	0	8
fixed	7	4	4	1534698	2	1	1	1	0	1148	1	4	0	200	4	0	0	10
fixed	7	4	5	1536824	5	3	0	1	2	0	3	4	0	216	4	0	1	10
fixed	7	4	6	1540148	6	4	4	1	0	990	1	4	0	224	5	0	1	12
fixed	7	4	7	1541796	3	1	1	1	0	833	1	4	0	200	6	0	1	14
fixed	7	4	8	1543078	2	3	3	1	0	978	1	4	0	216	7	0	1	16
fixed	7	4	9	1544394	3	2	2	1	0	738	1	4	0	208	8	0	1	18
fixed	7	4	10	1546019	1	4	4	1	0	1270	1	4	0	224	9	0	1	20
fixed	7	4	11	1547637	5	2	2	1	0	985	1	4	0	208	10	0	1	21
fixed	7	4	12	1549635	4	3	3	1	0	1876	1	4	0	216	11	0	1	23
fixed	7	5	1	1552193	4	1	1	1	0	1024	1	4	0	200	1	0	0	2
fixed	7	5	2	1553579	1	2	2	1	0	1421	1	4	0	208	2	0	0	4
fixed	7	5	3	1555630	6	4	4	1	0	703	1	4	0	224	3	0	0	6
fixed	7	5	4	1557319	2	1	1	1	0	1119	1	4	0	200	4	0	0	8
fixed	7	5	5	1559028	5	3	3	1	0	1638	1	4	0	216	5	0	0	9
fixed	7	5	6	1561578	6	4	4	1	0	1011	1	4	0	224	6	0	0	11
fixed	7	5	7	1563233	3	1	1	1	0	837	1	4	0	200	7	0	0	13
fixed	7	5	8	1564951	2	3	3	1	0	1004	1	4	0	216	8	0	0	14
fixed	7	5	9	1566949	3	2	2	1	0	791	1	4	0	208	9	0	0	16
fixed	7	5	10	1568151	1	4	4	1	0	940	1	4	0	224	10	0	0	17
fixed	7	5	11	1569796	5	2	0	1	2	0	3	4	0	208	10	0	1	17
fixed	7	5	12	1573241	4	3	3	1	0	1101	1	4	0	216	11	0	1	18
fixed	7	6	1	1575400	4	1	1	1	0	641	1	4	0	200	1	0	0	2
fixed	7	6	2	1576422	1	2	2	1	0	1206	1	4	0	208	2	0	0	3
fixed	7	6	3	1578616	6	4	4	1	0	897	1	4	0	224	3	0	0	5
fixed	7	6	4	1580178	2	1	1	1	0	719	1	4	0	200	4	0	0	6
fixed	7	6	5	1581222	5	3	0	1	2	0	3	4	0	216	4	0	1	6
fixed	7	6	6	1584268	6	4	4	1	0	1066	1	4	0	224	5	0	1	8
fixed	7	6	7	1586213	3	1	1	1	0	855	1	4	0	200	6	0	1	9
fixed	7	6	8	1587676	2	3	3	1	0	721	1	4	0	216	7	0	1	10
fixed	7	6	9	1588702	3	2	2	1	0	598	1	4	0	208	8	0	1	12
fixed	7	6	10	1589785	1	4	4	1	0	640	1	4	0	224	9	0	1	13
fixed	7	6	11	1591003	5	2	2	1	0	788	1	4	0	208	10	0	1	14
fixed	7	6	12	1592484	4	3	3	1	0	926	1	4	0	216	11	0	1	15
fixed	7	7	1	1594296	4	1	1	1	0	569	1	4	0	200	1	0	0	1
fixed	7	7	2	1595640	1	2	2	1	0	792	1	4	0	208	2	0	0	3
fixed	7	7	3	1597395	6	4	4	1	0	758	1	4	0	224	3	0	0	4
fixed	7	7	4	1599190	2	1	1	1	0	873	1	4	0	200	4	0	0	5
fixed	7	7	5	1600643	5	3	3	1	0	1220	1	4	0	216	5	0	0	6
fixed	7	7	6	1602532	6	4	4	1	0	868	1	4	0	224	6	0	0	8
fixed	7	7	7	1604397	3	1	1	1	0	549	1	4	0	200	7	0	0	9
fixed	7	7	8	1605878	2	3	3	2	0	1998	2	4	0	216	8	0	0	10
fixed	7	7	9	1608744	3	2	2	1	0	645	1	4	0	208	9	0	0	11
fixed	7	7	10	1610134	1	4	4	1	0	1034	1	4	0	224	10	0	0	12
fixed	7	7	11	1611719	5	2	2	1	0	967	1	4	0	208	11	0	0	13
fixed	7	7	12	1612988	4	3	3	1	0	1161	1	4	0	216	12	0	0	14
fixed	7	8	1	1615415	4	1	1	1	0	906	1	4	0	200	1	0	0	1
fixed	7	8	2	1617005	1	2	2	1	0	847	1	4	0	208	2	0	0	2
fixed	7	8	3	1618538	6	4	4	1	0	910	1	4	0	224	3	0	0	3
fixed	7	8	4	1620055	2	1	1	1	0	838	1	4	0	200	4	0	0	5
fixed	7	8	5	1621916	5	3	3	1	0	911	1	4	0	216	5	0	0	6
fixed	7	8	6	1623377	6	4	4	1	0	913	1	4	0	224	6	0	0	7
fixed	7	8	7	1625229	3	1	1	1	0	475	1	4	0	200	7	0	0	8
fixed	7	8	8	1626290	2	3	3	1	0	733	1	4	0	216	8	0	0	9
fixed	7	8	9	1627445	3	2	2	1	0	685	1	4	0	208	9	0	0	10
fixed	7	8	10	1628821	1	4	4	1	0	747	1	4	0	224	10	0	0	11
fixed	7	8	11	1630066	5	2	2	1	0	1141	1	4	0	208	11	0	0	12
fixed	7	8	12	1631610	4	3	3	1	0	860	1	4	0	216	12	0	0	13
fixed	7	9	1	1633743	4	1	1	1	0	490	1	4	0	200	1	0	0	1
fixed	7	9	2	1634886	1	2	2	1	0	754	1	4	0	208	2	0	0	2
fixed	7	9	3	1636658	6	4	4	1	0	823	1	4	0	224	3	0	0	3
fixed	7	9	4	1637810	2	1	1	1	0	734	1	4	0	200	4	0	0	4
fixed	7	9	5	1639308	5	3	3	2	0	1582	2	4	0	216	5	0	0	5
fixed	7	9	6	1641508	6	4	4	1	0	841	1	4	0	224	6	0	0	6
fixed	7	9	7	1643202	3	1	1	1	0	657	1	4	0	200	7	0	0	7
fixed	7	9	8	1644165	2	3	3	1	0	1345	1	4	0	216	8	0	0	8
fixed	7	9	9	1645966	3	2	2	1	0	612	1	4	0	208	9	0	0	9
fixed	7	9	10	1647336	1	4	0	1	2	0	3	4	0	224	9	0	1	8
fixed	7	9	11	1650619	5	2	2	1	0	903	1	4	0	208	10	0	1	9
fixed	7	9	12	1652197	4	3	3	1	0	1013	1	4	0	216	11	0	1	10
fixed	7	10	1	1654310	4	1	1	1	0	651	1	4	0	200	1	0	0	1
fixed	7	10	2	1655318	1	2	2	1	0	936	1	4	0	208	2	0	0	2
fixed	7	10	3	1657031	6	4	4	1	0	735	1	4	0	224	3	0	0	3
fixed	7	10	4	1658325	2	1	1	1	0	769	1	4	0	200	4	0	0	4
fixed	7	10	5	1659870	5	3	3	2	0	1488	2	4	0	216	5	0	0	4
fixed	7	10	6	1661739	6	4	4	1	0	864	1	4	0	224	6	0	0	5
fixed	7	10	7	1663057	3	1	1	1	0	897	1	4	0	200	7	0	0	6
fixed	7	10	8	1664729	2	3	3	1	0	962	1	4	0	216	8	0	0	7
fixed	7	10	9	1666443	3	2	2	1	0	1049	1	4	0	208	9	0	0	8
fixed	7	10	10	1668086	1	4	4	1	0	1172	1	4	0	224	10	0	0	8
fixed	7	10	11	1669785	5	2	2	1	0	1355	1	4	0	208	11	0	0	9
fixed	7	10	12	1671533	4	3	3	1	0	905	1	4	0	216	12	0	0	10
