type	block	sequ.	trial	time	Pos.	Color	Button	NumRsp	Resp_1	RT_1	R_Code	Resp_2	RT_2	Trigg.	n_hit	n_inc	n_miss	score_%

random	1	1	1	2408	6	1	1	1	0	591	1	4	0	8	1	0	0	100
random	1	1	2	3318	4	4	4	1	0	641	1	4	0	32	2	0	0	100
random	1	1	3	4336	2	2	2	1	0	853	1	4	0	16	3	0	0	100
random	1	1	4	5786	3	3	3	1	0	816	1	4	0	24	4	0	0	100
random	1	1	5	7033	5	2	2	1	0	811	1	4	0	16	5	0	0	100
random	1	1	6	8708	1	4	4	1	0	676	1	4	0	32	6	0	0	100
random	1	1	7	10060	6	1	1	1	0	555	1	4	0	8	7	0	0	100
random	1	1	8	10955	2	3	3	1	0	1069	1	4	0	24	8	0	0	100
random	1	1	9	12359	4	2	2	1	0	498	1	4	0	16	9	0	0	100
random	1	1	10	13356	1	1	1	1	0	503	1	4	0	8	10	0	0	100
random	1	1	11	14183	5	4	4	1	0	437	1	4	0	32	11	0	0	100
random	1	1	12	15647	3	3	3	1	0	910	1	4	0	24	12	0	0	100
random	1	1	13	17680	5	2	2	1	0	536	1	4	0	16	13	0	0	100
random	1	1	14	18968	1	4	4	1	0	537	1	4	0	32	14	0	0	100
random	1	1	15	19949	3	1	1	1	0	456	1	4	0	8	15	0	0	100
random	1	1	16	21079	4	3	3	1	0	904	1	4	0	24	16	0	0	100
random	1	1	17	22802	6	4	4	1	0	615	1	4	0	32	17	0	0	100
random	1	1	18	24323	2	1	1	1	0	407	1	4	0	8	18	0	0	100
random	1	1	19	25073	5	3	3	1	0	751	1	4	0	24	19	0	0	100
random	1	1	20	26774	2	2	2	1	0	727	1	4	0	16	20	0	0	100
random	1	1	21	27837	3	3	3	1	0	730	1	4	0	24	21	0	0	100
random	1	1	22	29295	6	1	1	1	0	564	1	4	0	8	22	0	0	100
random	1	1	23	30650	4	2	2	1	0	747	1	4	0	16	23	0	0	100
random	1	1	24	32381	1	4	4	1	0	705	1	4	0	32	24	0	0	100
random	1	1	25	33720	4	3	3	1	0	881	1	4	0	24	25	0	0	100
random	1	1	26	35387	2	1	1	1	0	1219	1	4	0	8	26	0	0	100
random	1	1	27	37142	5	2	2	1	0	800	1	4	0	16	27	0	0	100
random	1	1	28	38472	6	4	4	1	0	640	1	4	0	32	28	0	0	100
random	1	1	29	40108	1	3	3	1	0	442	1	4	0	24	29	0	0	100
random	1	1	30	41339	5	2	2	1	0	630	1	4	0	16	30	0	0	100
random	1	1	31	42663	2	1	1	1	0	950	1	4	0	8	31	0	0	100
random	1	1	32	43918	3	3	3	1	0	1097	1	4	0	24	32	0	0	100
random	1	1	33	45935	6	4	4	1	0	627	1	4	0	32	33	0	0	100
random	1	1	34	47190	4	2	0	1	2	0	3	4	0	16	33	0	1	97
random	1	1	35	50446	3	4	4	2	0	1220	2	4	0	32	34	0	1	97
random	1	1	36	52092	1	1	1	1	0	519	1	4	0	8	35	0	1	97
random	1	1	37	53251	3	4	4	1	0	901	1	4	0	32	36	0	1	97
random	1	1	38	55012	5	3	3	1	0	1115	1	4	0	24	37	0	1	97
random	1	1	39	56624	6	1	1	1	0	766	1	4	0	8	38	0	1	97
random	1	1	40	57737	1	2	2	1	0	528	1	4	0	16	39	0	1	98
random	1	1	41	59177	2	3	3	1	0	515	1	4	0	24	40	0	1	98
random	1	1	42	60053	4	4	4	1	0	509	1	4	0	32	41	0	1	98
random	1	1	43	61326	1	2	2	1	0	752	1	4	0	16	42	0	1	98
random	1	1	44	62623	6	3	3	1	0	504	1	4	0	24	43	0	1	98
random	1	1	45	63469	3	1	1	1	0	637	1	4	0	8	44	0	1	98
random	1	1	46	64946	4	4	4	1	0	614	1	4	0	32	45	0	1	98
random	1	1	47	66454	2	2	2	1	0	1126	1	4	0	16	46	0	1	98
random	1	1	48	68453	5	1	1	1	0	786	1	4	0	8	47	0	1	98
random	1	1	49	70527	2	3	3	1	0	874	1	4	0	24	48	0	1	98
random	1	1	50	72194	3	1	1	1	0	700	1	4	0	8	49	0	1	98
random	1	1	51	73298	1	4	4	1	0	860	1	4	0	32	50	0	1	98
random	1	1	52	75003	5	3	3	1	0	980	1	4	0	24	51	0	1	98
random	1	1	53	76476	3	2	2	1	0	622	1	4	0	16	52	0	1	98
random	1	1	54	77525	6	4	4	1	0	737	1	4	0	32	53	0	1	98
random	1	1	55	79210	4	2	2	1	0	706	1	4	0	16	54	0	1	98
random	1	1	56	80402	1	1	1	1	0	727	1	4	0	8	55	0	1	98
random	1	1	57	81577	5	4	4	1	0	878	1	4	0	32	56	0	1	98
random	1	1	58	83090	2	1	1	1	0	734	1	4	0	8	57	0	1	98
random	1	1	59	84849	6	2	2	1	0	707	1	4	0	16	58	0	1	98
random	1	1	60	85866	4	3	3	1	0	656	1	4	0	24	59	0	1	98
random	1	1	61	87301	1	2	2	1	0	691	1	4	0	16	60	0	1	98
random	1	1	62	88719	6	4	4	1	0	895	1	4	0	32	61	0	1	98
random	1	1	63	90150	4	1	1	1	0	843	1	4	0	8	62	0	1	98
random	1	1	64	91723	2	2	2	1	0	1472	1	4	0	16	63	0	1	98
random	1	1	65	93837	4	3	3	1	0	582	1	4	0	24	64	0	1	98
random	1	1	66	94708	3	1	1	1	0	618	1	4	0	8	65	0	1	98
random	1	1	67	95935	1	3	3	1	0	806	1	4	0	24	66	0	1	99
random	1	1	68	97367	5	4	4	1	0	745	1	4	0	32	67	0	1	99
random	1	1	69	98893	2	2	2	1	0	737	1	4	0	16	68	0	1	99
random	1	1	70	100392	3	1	1	1	0	793	1	4	0	8	69	0	1	99
random	1	1	71	101713	5	4	4	1	0	697	1	4	0	32	70	0	1	99
random	1	1	72	103043	6	3	3	1	0	1353	1	4	0	24	71	0	1	99
random	1	1	73	105095	2	1	1	1	0	650	1	4	0	8	72	0	1	99
random	1	1	74	106170	5	3	3	1	0	892	1	4	0	24	73	0	1	99
random	1	1	75	107598	1	4	4	1	0	752	1	4	0	32	74	0	1	99
random	1	1	76	109052	6	2	2	2	0	1394	2	4	0	16	75	0	1	99
random	1	1	77	111346	2	1	1	1	0	705	1	4	0	8	76	0	1	99
random	1	1	78	112921	4	4	4	1	0	814	1	4	0	32	77	0	1	99
random	1	1	79	114187	3	2	2	1	0	713	1	4	0	16	78	0	1	99
random	1	1	80	115337	4	3	3	1	0	664	1	4	0	24	79	0	1	99
random	1	1	81	116636	1	4	4	1	0	873	1	4	0	32	80	0	1	99
random	1	1	82	117870	5	1	1	1	0	485	1	4	0	8	81	0	1	99
random	1	1	83	119193	3	2	2	1	0	773	1	4	0	16	82	0	1	99
random	1	1	84	120971	6	3	3	1	0	537	1	4	0	24	83	0	1	99
random	1	1	85	122371	3	2	2	1	0	662	1	4	0	16	84	0	1	99
random	1	1	86	123827	1	3	3	1	0	776	1	4	0	24	85	0	1	99
random	1	1	87	125268	4	4	4	1	0	915	1	4	0	32	86	0	1	99
random	1	1	88	126509	2	1	1	1	0	623	1	4	0	8	87	0	1	99
random	1	1	89	127640	6	4	4	1	0	967	1	4	0	32	88	0	1	99
random	1	1	90	129355	3	3	3	1	0	918	1	4	0	24	89	0	1	99
random	1	1	91	131213	5	4	4	1	0	856	1	4	0	32	90	0	1	99
random	1	1	92	132853	1	2	2	1	0	890	1	4	0	16	91	0	1	99
random	1	1	93	134052	5	1	1	1	0	567	1	4	0	8	92	0	1	99
random	1	1	94	135064	4	3	3	1	0	941	1	4	0	24	93	0	1	99
random	1	1	95	136803	6	1	1	1	0	730	1	4	0	8	94	0	1	99
random	1	1	96	138285	2	2	2	1	0	692	1	4	0	16	95	0	1	99
random	1	1	97	140231	4	3	3	1	0	1353	1	4	0	24	96	0	1	99
random	1	1	98	142611	3	2	2	1	0	629	1	4	0	16	97	0	1	99
random	1	1	99	144212	6	3	3	1	0	785	1	4	0	24	98	0	1	99
random	1	1	100	145366	1	4	4	1	0	720	1	4	0	32	99	0	1	99
random	1	1	101	146409	4	1	1	1	0	708	1	4	0	8	100	0	1	99
random	1	1	102	147459	5	2	2	1	0	664	1	4	0	16	101	0	1	99
random	1	1	103	148508	2	4	4	1	0	611	1	4	0	32	102	0	1	99
random	1	1	104	150009	3	1	1	1	0	675	1	4	0	8	103	0	1	99
random	1	1	105	151627	1	3	3	1	0	751	1	4	0	24	104	0	1	99
random	1	1	106	153229	2	2	2	1	0	611	1	4	0	16	105	0	1	99
random	1	1	107	154429	5	4	4	1	0	705	1	4	0	32	106	0	1	99
random	1	1	108	155573	6	1	1	1	0	640	1	4	0	8	107	0	1	99
random	1	1	109	157006	5	4	4	1	0	747	1	4	0	32	108	0	1	99
random	1	1	110	158300	6	3	3	1	0	1244	1	4	0	24	109	0	1	99
random	1	1	111	159864	2	2	2	1	0	474	1	4	0	16	110	0	1	99
random	1	1	112	160918	3	1	1	1	0	589	1	4	0	8	111	0	1	99
random	1	1	113	161824	1	2	2	1	0	1047	1	4	0	16	112	0	1	99
random	1	1	114	163254	2	3	3	1	0	618	1	4	0	24	113	0	1	99
random	1	1	115	164248	3	1	1	1	0	768	1	4	0	8	114	0	1	99
random	1	1	116	165823	4	4	4	1	0	654	1	4	0	32	115	0	1	99
random	1	1	117	166825	6	1	1	1	0	700	1	4	0	8	116	0	1	99
random	1	1	118	168229	5	3	3	1	0	712	1	4	0	24	117	0	1	99
random	1	1	119	169242	1	4	4	1	0	829	1	4	0	32	118	0	1	99
random	1	1	120	170803	4	2	2	1	0	771	1	4	0	16	119	0	1	99
fixed	2	1	1	172993	4	1	1	1	0	470	1	4	0	40	1	0	0	100
fixed	2	1	2	174334	1	2	2	1	0	973	1	4	0	48	2	0	0	100
fixed	2	1	3	176100	6	4	4	1	0	715	1	4	0	64	3	0	0	100
fixed	2	1	4	177516	2	1	1	1	0	727	1	4	0	40	4	0	0	100
fixed	2	1	5	178823	5	3	3	1	0	1519	1	4	0	56	5	0	0	100
fixed	2	1	6	180959	6	4	4	1	0	893	1	4	0	64	6	0	0	100
fixed	2	1	7	182325	3	1	1	1	0	755	1	4	0	40	7	0	0	100
fixed	2	1	8	183894	2	3	3	1	0	1328	1	4	0	56	8	0	0	100
fixed	2	1	9	185775	3	2	2	1	0	720	1	4	0	48	9	0	0	100
fixed	2	1	10	187142	1	4	4	1	0	871	1	4	0	64	10	0	0	100
fixed	2	1	11	188897	5	2	2	1	0	1157	1	4	0	48	11	0	0	100
fixed	2	1	12	190877	4	3	3	1	0	760	1	4	0	56	12	0	0	100
fixed	2	2	1	192627	4	1	1	1	0	622	1	4	0	40	13	0	0	100
fixed	2	2	2	193578	1	2	2	1	0	1246	1	4	0	48	14	0	0	100
fixed	2	2	3	195122	6	4	4	1	0	1773	1	4	0	64	15	0	0	100
fixed	2	2	4	197261	2	1	1	1	0	682	1	4	0	40	16	0	0	100
fixed	2	2	5	198407	5	3	0	1	2	0	3	4	0	56	16	0	1	94
fixed	2	2	6	201229	6	4	4	2	0	1554	2	4	0	64	17	0	1	94
fixed	2	2	7	203646	3	1	1	1	0	636	1	4	0	40	18	0	1	95
fixed	2	2	8	205010	2	3	3	1	0	1122	1	4	0	56	19	0	1	95
fixed	2	2	9	206518	3	2	2	1	0	474	1	4	0	48	20	0	1	95
fixed	2	2	10	207738	1	4	4	1	0	623	1	4	0	64	21	0	1	95
fixed	2	2	11	209176	5	2	2	1	0	1018	1	4	0	48	22	0	1	96
fixed	2	2	12	210619	4	3	3	1	0	852	1	4	0	56	23	0	1	96
fixed	2	3	1	212308	4	1	1	1	0	469	1	4	0	40	24	0	1	96
fixed	2	3	2	213406	1	2	2	1	0	991	1	4	0	48	25	0	1	96
fixed	2	3	3	215111	6	4	4	1	0	1398	1	4	0	64	26	0	1	96
fixed	2	3	4	216902	2	1	1	1	0	762	1	4	0	40	27	0	1	96
fixed	2	3	5	218548	5	3	3	1	0	1141	1	4	0	56	28	0	1	97
fixed	2	3	6	220209	6	4	4	1	0	750	1	4	0	64	29	0	1	97
fixed	2	3	7	221952	3	1	1	1	0	804	1	4	0	40	30	0	1	97
fixed	2	3	8	223458	2	3	3	1	0	749	1	4	0	56	31	0	1	97
fixed	2	3	9	224723	3	2	2	1	0	895	1	4	0	48	32	0	1	97
fixed	2	3	10	226232	1	4	4	1	0	751	1	4	0	64	33	0	1	97
fixed	2	3	11	227895	5	2	2	1	0	832	1	4	0	48	34	0	1	97
fixed	2	3	12	229724	4	3	3	1	0	819	1	4	0	56	35	0	1	97
fixed	2	4	1	231506	4	1	1	1	0	712	1	4	0	40	36	0	1	97
fixed	2	4	2	232790	1	2	2	1	0	1057	1	4	0	48	37	0	1	97
fixed	2	4	3	234662	6	4	4	1	0	1226	1	4	0	64	38	0	1	97
fixed	2	4	4	236410	2	1	0	0	2	0	3	4	0	40	38	0	2	95
fixed	2	4	5	239448	5	3	3	2	0	879	2	4	0	56	39	0	2	95
fixed	2	4	6	241066	6	4	4	1	0	891	1	4	0	64	40	0	2	95
fixed	2	4	7	242249	3	1	1	1	0	704	1	4	0	40	41	0	2	95
fixed	2	4	8	243429	2	3	3	1	0	735	1	4	0	56	42	0	2	95
fixed	2	4	9	244478	3	2	2	1	0	690	1	4	0	48	43	0	2	96
fixed	2	4	10	245818	1	4	4	1	0	602	1	4	0	64	44	0	2	96
fixed	2	4	11	247423	5	2	2	1	0	758	1	4	0	48	45	0	2	96
fixed	2	4	12	249022	4	3	3	1	0	522	1	4	0	56	46	0	2	96
fixed	2	5	1	250101	4	1	1	1	0	564	1	4	0	40	47	0	2	96
fixed	2	5	2	251448	1	2	2	1	0	883	1	4	0	48	48	0	2	96
fixed	2	5	3	253185	6	4	4	2	0	2226	2	4	0	64	49	0	2	96
fixed	2	5	4	256067	2	1	1	1	0	663	1	4	0	40	50	0	2	96
fixed	2	5	5	257219	5	3	3	1	0	702	1	4	0	56	51	0	2	96
fixed	2	5	6	258942	6	4	4	1	0	982	1	4	0	64	52	0	2	96
fixed	2	5	7	260665	3	1	1	1	0	733	1	4	0	40	53	0	2	96
fixed	2	5	8	262210	2	3	3	1	0	1108	1	4	0	56	54	0	2	96
fixed	2	5	9	263628	3	2	2	1	0	935	1	4	0	48	55	0	2	96
fixed	2	5	10	265067	1	4	4	1	0	931	1	4	0	64	56	0	2	97
fixed	2	5	11	266366	5	2	2	1	0	891	1	4	0	48	57	0	2	97
fixed	2	5	12	268274	4	3	3	1	0	891	1	4	0	56	58	0	2	97
fixed	2	6	1	269966	4	1	1	1	0	643	1	4	0	40	59	0	2	97
fixed	2	6	2	270902	1	2	2	1	0	963	1	4	0	48	60	0	2	97
fixed	2	6	3	272886	6	4	4	1	0	1135	1	4	0	64	61	0	2	97
fixed	2	6	4	274977	2	1	1	1	0	678	1	4	0	40	62	0	2	97
fixed	2	6	5	276509	5	3	3	1	0	1238	1	4	0	56	63	0	2	97
fixed	2	6	6	278454	6	4	4	1	0	1187	1	4	0	64	64	0	2	97
fixed	2	6	7	280370	3	1	1	1	0	650	1	4	0	40	65	0	2	97
fixed	2	6	8	281615	2	3	3	1	0	717	1	4	0	56	66	0	2	97
fixed	2	6	9	283259	3	2	2	1	0	1120	1	4	0	48	67	0	2	97
fixed	2	6	10	284804	1	4	4	1	0	822	1	4	0	64	68	0	2	97
fixed	2	6	11	286413	5	2	2	2	0	946	2	4	0	48	69	0	2	97
fixed	2	6	12	287868	4	3	3	1	0	853	1	4	0	56	70	0	2	97
fixed	2	7	1	289297	4	1	1	1	0	624	1	4	0	40	71	0	2	97
fixed	2	7	2	290247	1	2	2	1	0	1015	1	4	0	48	72	0	2	97
fixed	2	7	3	292039	6	4	4	1	0	796	1	4	0	64	73	0	2	97
fixed	2	7	4	293807	2	1	1	1	0	769	1	4	0	40	74	0	2	97
fixed	2	7	5	295243	5	3	3	1	0	1084	1	4	0	56	75	0	2	97
fixed	2	7	6	297301	6	4	4	1	0	1093	1	4	0	64	76	0	2	97
fixed	2	7	7	298853	3	1	1	1	0	715	1	4	0	40	77	0	2	97
fixed	2	7	8	299972	2	3	3	1	0	900	1	4	0	56	78	0	2	98
fixed	2	7	9	301188	3	2	2	1	0	761	1	4	0	48	79	0	2	98
fixed	2	7	10	302682	1	4	4	1	0	785	1	4	0	64	80	0	2	98
fixed	2	7	11	304107	5	2	2	1	0	821	1	4	0	48	81	0	2	98
fixed	2	7	12	305575	4	3	3	1	0	935	1	4	0	56	82	0	2	98
fixed	2	8	1	307275	4	1	1	1	0	606	1	4	0	40	83	0	2	98
fixed	2	8	2	308243	1	2	2	1	0	1389	1	4	0	48	84	0	2	98
fixed	2	8	3	309944	6	4	4	1	0	870	1	4	0	64	85	0	2	98
fixed	2	8	4	311233	2	1	1	1	0	1479	1	4	0	40	86	0	2	98
fixed	2	8	5	313448	5	3	3	1	0	841	1	4	0	56	87	0	2	98
fixed	2	8	6	314627	6	4	4	1	0	895	1	4	0	64	88	0	2	98
fixed	2	8	7	315909	3	1	1	1	0	737	1	4	0	40	89	0	2	98
fixed	2	8	8	317542	2	3	3	1	0	796	1	4	0	56	90	0	2	98
fixed	2	8	9	318830	3	2	2	1	0	749	1	4	0	48	91	0	2	98
fixed	2	8	10	320123	1	4	4	1	0	950	1	4	0	64	92	0	2	98
fixed	2	8	11	322049	5	2	2	1	0	1125	1	4	0	48	93	0	2	98
fixed	2	8	12	324113	4	3	3	1	0	877	1	4	0	56	94	0	2	98
fixed	2	9	1	326121	4	1	1	1	0	648	1	4	0	40	95	0	2	98
fixed	2	9	2	327273	1	2	2	1	0	1319	1	4	0	48	96	0	2	98
fixed	2	9	3	329378	6	4	4	1	0	902	1	4	0	64	97	0	2	98
fixed	2	9	4	330726	2	1	1	1	0	853	1	4	0	40	98	0	2	98
fixed	2	9	5	331946	5	3	3	1	0	1130	1	4	0	56	99	0	2	98
fixed	2	9	6	333764	6	4	4	1	0	1181	1	4	0	64	100	0	2	98
fixed	2	9	7	335499	3	1	1	1	0	627	1	4	0	40	101	0	2	98
fixed	2	9	8	336818	2	3	3	1	0	1387	1	4	0	56	102	0	2	98
fixed	2	9	9	339119	3	2	2	1	0	978	1	4	0	48	103	0	2	98
fixed	2	9	10	341034	1	4	4	1	0	913	1	4	0	64	104	0	2	98
fixed	2	9	11	342726	5	2	2	1	0	1097	1	4	0	48	105	0	2	98
fixed	2	9	12	344404	4	3	3	1	0	954	1	4	0	56	106	0	2	98
fixed	2	10	1	345953	4	1	1	1	0	776	1	4	0	40	107	0	2	98
fixed	2	10	2	347504	1	2	2	1	0	958	1	4	0	48	108	0	2	98
fixed	2	10	3	348780	6	4	4	1	0	841	1	4	0	64	109	0	2	98
fixed	2	10	4	350028	2	1	1	1	0	1355	1	4	0	40	110	0	2	98
fixed	2	10	5	352171	5	3	3	1	0	1201	1	4	0	56	111	0	2	98
fixed	2	10	6	354272	6	4	4	1	0	808	1	4	0	64	112	0	2	98
fixed	2	10	7	355810	3	1	1	1	0	1015	1	4	0	40	113	0	2	98
fixed	2	10	8	357427	2	3	3	1	0	1027	1	4	0	56	114	0	2	98
fixed	2	10	9	358952	3	2	2	1	0	818	1	4	0	48	115	0	2	98
fixed	2	10	10	360530	1	4	4	1	0	999	1	4	0	64	116	0	2	98
fixed	2	10	11	361969	5	2	2	1	0	1314	1	4	0	48	117	0	2	98
fixed	2	10	12	363894	4	3	3	1	0	816	1	4	0	56	118	0	2	98
fixed	3	1	1	365799	4	1	1	1	0	543	1	4	0	72	1	0	0	100
fixed	3	1	2	366871	1	2	2	1	0	1050	1	4	0	80	2	0	0	100
fixed	3	1	3	368577	6	4	4	1	0	1322	1	4	0	96	3	0	0	100
fixed	3	1	4	370630	2	1	1	1	0	875	1	4	0	72	4	0	0	100
fixed	3	1	5	372327	5	3	3	1	0	1059	1	4	0	88	5	0	0	100
fixed	3	1	6	373879	6	4	4	1	0	858	1	4	0	96	6	0	0	100
fixed	3	1	7	375252	3	1	1	1	0	864	1	4	0	72	7	0	0	100
fixed	3	1	8	376512	2	3	3	2	0	1258	2	4	0	88	8	0	0	100
fixed	3	1	9	378675	3	2	2	1	0	703	1	4	0	80	9	0	0	100
fixed	3	1	10	379850	1	4	4	1	0	1092	1	4	0	96	10	0	0	100
fixed	3	1	11	381714	5	2	2	1	0	1070	1	4	0	80	11	0	0	100
fixed	3	1	12	383759	4	3	3	2	0	1799	2	4	0	88	12	0	0	100
fixed	3	2	1	386820	4	1	1	1	0	765	1	4	0	72	13	0	0	100
fixed	3	2	2	388358	1	2	2	1	0	1020	1	4	0	80	14	0	0	100
fixed	3	2	3	389982	6	4	4	1	0	775	1	4	0	96	15	0	0	100
fixed	3	2	4	391440	2	1	1	1	0	962	1	4	0	72	16	0	0	100
fixed	3	2	5	393358	5	3	3	1	0	937	1	4	0	88	17	0	0	100
fixed	3	2	6	395315	6	4	4	1	0	830	1	4	0	96	18	0	0	100
fixed	3	2	7	396805	3	1	1	1	0	631	1	4	0	72	19	0	0	100
fixed	3	2	8	397953	2	3	3	2	0	1134	2	4	0	88	20	0	0	100
fixed	3	2	9	399734	3	2	2	1	0	602	1	4	0	80	21	0	0	100
fixed	3	2	10	400834	1	4	4	1	0	852	1	4	0	96	22	0	0	100
fixed	3	2	11	402702	5	2	2	1	0	1077	1	4	0	80	23	0	0	100
fixed	3	2	12	404769	4	3	3	2	0	1517	2	4	0	88	24	0	0	100
fixed	3	3	1	407003	4	1	1	1	0	758	1	4	0	72	25	0	0	100
fixed	3	3	2	408583	1	2	2	1	0	1404	1	4	0	80	26	0	0	100
fixed	3	3	3	410308	6	4	4	1	0	1002	1	4	0	96	27	0	0	100
fixed	3	3	4	412249	2	1	1	1	0	896	1	4	0	72	28	0	0	100
fixed	3	3	5	413490	5	3	3	1	0	892	1	4	0	88	29	0	0	100
fixed	3	3	6	414825	6	4	4	1	0	907	1	4	0	96	30	0	0	100
fixed	3	3	7	416668	3	1	1	1	0	917	1	4	0	72	31	0	0	100
fixed	3	3	8	418607	2	3	3	1	0	875	1	4	0	88	32	0	0	100
fixed	3	3	9	420044	3	2	2	1	0	694	1	4	0	80	33	0	0	100
fixed	3	3	10	421175	1	4	4	1	0	606	1	4	0	96	34	0	0	100
fixed	3	3	11	422777	5	2	2	1	0	994	1	4	0	80	35	0	0	100
fixed	3	3	12	424668	4	3	3	1	0	922	1	4	0	88	36	0	0	100
fixed	3	4	1	426266	4	1	1	1	0	758	1	4	0	72	37	0	0	100
fixed	3	4	2	427693	1	2	0	1	2	0	3	4	0	80	37	0	1	97
fixed	3	4	3	431033	6	4	4	1	0	845	1	4	0	96	38	0	1	97
fixed	3	4	4	432341	2	1	1	1	0	694	1	4	0	72	39	0	1	98
fixed	3	4	5	433798	5	3	3	2	0	1272	2	4	0	88	40	0	1	98
fixed	3	4	6	435651	6	4	4	1	0	897	1	4	0	96	41	0	1	98
fixed	3	4	7	437120	3	1	1	1	0	859	1	4	0	72	42	0	1	98
fixed	3	4	8	438723	2	3	3	1	0	703	1	4	0	88	43	0	1	98
fixed	3	4	9	440427	3	2	2	1	0	631	1	4	0	80	44	0	1	98
fixed	3	4	10	441739	1	4	4	1	0	719	1	4	0	96	45	0	1	98
fixed	3	4	11	443265	5	2	2	1	0	975	1	4	0	80	46	0	1	98
fixed	3	4	12	444612	4	3	3	1	0	997	1	4	0	88	47	0	1	98
fixed	3	5	1	446199	4	1	1	1	0	514	1	4	0	72	48	0	1	98
fixed	3	5	2	447319	1	2	2	1	0	1547	1	4	0	80	49	0	1	98
fixed	3	5	3	449775	6	4	4	1	0	883	1	4	0	96	50	0	1	98
fixed	3	5	4	451225	2	1	1	1	0	1285	1	4	0	72	51	0	1	98
fixed	3	5	5	453132	5	3	3	2	0	1573	2	4	0	88	52	0	1	98
fixed	3	5	6	455457	6	4	4	1	0	930	1	4	0	96	53	0	1	98
fixed	3	5	7	457364	3	1	1	1	0	842	1	4	0	72	54	0	1	98
fixed	3	5	8	458576	2	3	3	1	0	894	1	4	0	88	55	0	1	98
fixed	3	5	9	460284	3	2	2	1	0	750	1	4	0	80	56	0	1	98
fixed	3	5	10	461855	1	4	4	1	0	835	1	4	0	96	57	0	1	98
fixed	3	5	11	463113	5	2	2	1	0	862	1	4	0	80	58	0	1	98
fixed	3	5	12	464734	4	3	3	1	0	745	1	4	0	88	59	0	1	98
fixed	3	6	1	466532	4	1	1	1	0	533	1	4	0	72	60	0	1	98
fixed	3	6	2	467529	1	2	2	1	0	1219	1	4	0	80	61	0	1	98
fixed	3	6	3	469709	6	4	4	1	0	871	1	4	0	96	62	0	1	98
fixed	3	6	4	471041	2	1	1	1	0	1022	1	4	0	72	63	0	1	98
fixed	3	6	5	473112	5	3	3	1	0	990	1	4	0	88	64	0	1	98
fixed	3	6	6	474866	6	4	4	1	0	836	1	4	0	96	65	0	1	98
fixed	3	6	7	476017	3	1	1	1	0	828	1	4	0	72	66	0	1	99
fixed	3	6	8	477602	2	3	3	1	0	1153	1	4	0	88	67	0	1	99
fixed	3	6	9	479316	3	2	2	1	0	680	1	4	0	80	68	0	1	99
fixed	3	6	10	480393	1	4	4	1	0	642	1	4	0	96	69	0	1	99
fixed	3	6	11	481401	5	2	2	1	0	767	1	4	0	80	70	0	1	99
fixed	3	6	12	482532	4	3	3	2	0	1208	2	4	0	88	71	0	1	99
fixed	3	7	1	484843	4	1	1	1	0	757	1	4	0	72	72	0	1	99
fixed	3	7	2	486564	1	2	2	3	0	2069	2	4	0	80	73	0	1	99
fixed	3	7	3	489182	6	4	4	1	0	678	1	4	0	96	74	0	1	99
fixed	3	7	4	490442	2	1	1	1	0	760	1	4	0	72	75	0	1	99
fixed	3	7	5	491883	5	3	3	1	0	868	1	4	0	88	76	0	1	99
fixed	3	7	6	493607	6	4	4	1	0	723	1	4	0	96	77	0	1	99
fixed	3	7	7	495048	3	1	1	1	0	630	1	4	0	72	78	0	1	99
fixed	3	7	8	496463	2	3	3	1	0	794	1	4	0	88	79	0	1	99
fixed	3	7	9	498232	3	2	2	1	0	663	1	4	0	80	80	0	1	99
fixed	3	7	10	499356	1	4	4	1	0	631	1	4	0	96	81	0	1	99
fixed	3	7	11	500749	5	2	2	1	0	1356	1	4	0	80	82	0	1	99
fixed	3	7	12	502852	4	3	3	1	0	803	1	4	0	88	83	0	1	99
fixed	3	8	1	504391	4	1	1	1	0	593	1	4	0	72	84	0	1	99
fixed	3	8	2	505462	1	2	2	1	0	1020	1	4	0	80	85	0	1	99
fixed	3	8	3	507411	6	4	4	1	0	658	1	4	0	96	86	0	1	99
fixed	3	8	4	508791	2	1	1	1	0	815	1	4	0	72	87	0	1	99
fixed	3	8	5	510342	5	3	3	3	0	1446	2	4	0	88	88	0	1	99
fixed	3	8	6	512144	6	4	4	1	0	897	1	4	0	96	89	0	1	99
fixed	3	8	7	513480	3	1	1	1	0	793	1	4	0	72	90	0	1	99
fixed	3	8	8	514976	2	3	3	1	0	1202	1	4	0	88	91	0	1	99
fixed	3	8	9	516958	3	2	2	1	0	805	1	4	0	80	92	0	1	99
fixed	3	8	10	518456	1	4	4	1	0	854	1	4	0	96	93	0	1	99
fixed	3	8	11	520277	5	2	2	1	0	769	1	4	0	80	94	0	1	99
fixed	3	8	12	521894	4	3	3	1	0	1093	1	4	0	88	95	0	1	99
fixed	3	9	1	523689	4	1	1	1	0	1104	1	4	0	72	96	0	1	99
fixed	3	9	2	525685	1	2	2	1	0	852	1	4	0	80	97	0	1	99
fixed	3	9	3	527505	6	4	4	1	0	687	1	4	0	96	98	0	1	99
fixed	3	9	4	528709	2	1	1	1	0	1124	1	4	0	72	99	0	1	99
fixed	3	9	5	530137	5	3	3	1	0	1087	1	4	0	88	100	0	1	99
fixed	3	9	6	531848	6	4	4	1	0	807	1	4	0	96	101	0	1	99
fixed	3	9	7	532992	3	1	1	1	0	606	1	4	0	72	102	0	1	99
fixed	3	9	8	534437	2	3	3	1	0	1193	1	4	0	88	103	0	1	99
fixed	3	9	9	536055	3	2	2	1	0	956	1	4	0	80	104	0	1	99
fixed	3	9	10	537633	1	4	4	1	0	706	1	4	0	96	105	0	1	99
fixed	3	9	11	538875	5	2	2	1	0	925	1	4	0	80	106	0	1	99
fixed	3	9	12	540453	4	3	3	1	0	1162	1	4	0	88	107	0	1	99
fixed	3	10	1	542451	4	1	1	1	0	653	1	4	0	72	108	0	1	99
fixed	3	10	2	543799	1	2	2	1	0	845	1	4	0	80	109	0	1	99
fixed	3	10	3	545202	6	4	4	1	0	881	1	4	0	96	110	0	1	99
fixed	3	10	4	546524	2	1	1	1	0	945	1	4	0	72	111	0	1	99
fixed	3	10	5	548083	5	3	3	1	0	847	1	4	0	88	112	0	1	99
fixed	3	10	6	549658	6	4	4	1	0	876	1	4	0	96	113	0	1	99
fixed	3	10	7	551154	3	1	1	1	0	1045	1	4	0	72	114	0	1	99
fixed	3	10	8	553101	2	3	3	1	0	1019	1	4	0	88	115	0	1	99
fixed	3	10	9	555107	3	2	2	1	0	766	1	4	0	80	116	0	1	99
fixed	3	10	10	556865	1	4	4	1	0	899	1	4	0	96	117	0	1	99
fixed	3	10	11	558666	5	2	2	1	0	1015	1	4	0	80	118	0	1	99
fixed	3	10	12	560642	4	3	3	1	0	804	1	4	0	88	119	0	1	99
fixed	4	1	1	697446	4	1	1	1	0	1001	1	4	0	104	1	0	0	100
fixed	4	1	2	698850	1	2	2	1	0	1117	1	4	0	112	2	0	0	100
fixed	4	1	3	700275	6	4	4	1	0	793	1	4	0	128	3	0	0	100
fixed	4	1	4	701511	2	1	1	1	0	725	1	4	0	104	4	0	0	100
fixed	4	1	5	703166	5	3	3	1	0	871	1	4	0	120	5	0	0	100
fixed	4	1	6	705024	6	4	4	1	0	680	1	4	0	128	6	0	0	100
fixed	4	1	7	706498	3	1	1	1	0	938	1	4	0	104	7	0	0	100
fixed	4	1	8	708437	2	3	3	1	0	1096	1	4	0	120	8	0	0	100
fixed	4	1	9	710400	3	2	2	1	0	484	1	4	0	112	9	0	0	100
fixed	4	1	10	711199	1	4	4	1	0	602	1	4	0	128	10	0	0	100
fixed	4	1	11	712566	5	2	2	1	0	768	1	4	0	112	11	0	0	100
fixed	4	1	12	713801	4	3	3	1	0	941	1	4	0	120	12	0	0	100
fixed	4	2	1	715894	4	1	1	1	0	515	1	4	0	104	13	0	0	100
fixed	4	2	2	717045	1	2	2	2	0	2051	2	4	0	112	14	0	0	100
fixed	4	2	3	720032	6	4	4	1	0	669	1	4	0	128	15	0	0	100
fixed	4	2	4	721073	2	1	1	1	0	816	1	4	0	104	16	0	0	100
fixed	4	2	5	722444	5	3	3	1	0	1302	1	4	0	120	17	0	0	100
fixed	4	2	6	724380	6	4	4	1	0	676	1	4	0	128	18	0	0	100
fixed	4	2	7	726049	3	1	1	1	0	845	1	4	0	104	19	0	0	100
fixed	4	2	8	727530	2	3	3	1	0	743	1	4	0	120	20	0	0	100
fixed	4	2	9	728776	3	2	2	1	0	650	1	4	0	112	21	0	0	100
fixed	4	2	10	730368	1	4	4	1	0	631	1	4	0	128	22	0	0	100
fixed	4	2	11	731512	5	2	2	1	0	702	1	4	0	112	23	0	0	100
fixed	4	2	12	732912	4	3	3	1	0	891	1	4	0	120	24	0	0	100
fixed	4	3	1	734406	4	1	1	1	0	755	1	4	0	104	25	0	0	100
fixed	4	3	2	736037	1	2	2	1	0	719	1	4	0	112	26	0	0	100
fixed	4	3	3	737404	6	4	4	1	0	733	1	4	0	128	27	0	0	100
fixed	4	3	4	739130	2	1	1	1	0	748	1	4	0	104	28	0	0	100
fixed	4	3	5	740281	5	3	3	1	0	971	1	4	0	120	29	0	0	100
fixed	4	3	6	742011	6	4	4	1	0	777	1	4	0	128	30	0	0	100
fixed	4	3	7	743534	3	1	1	1	0	769	1	4	0	104	31	0	0	100
fixed	4	3	8	744742	2	3	3	1	0	1414	1	4	0	120	32	0	0	100
fixed	4	3	9	746521	3	2	2	1	0	690	1	4	0	112	33	0	0	100
fixed	4	3	10	747538	1	4	4	1	0	679	1	4	0	128	34	0	0	100
fixed	4	3	11	748807	5	2	2	1	0	1065	1	4	0	112	35	0	0	100
fixed	4	3	12	750463	4	3	3	1	0	795	1	4	0	120	36	0	0	100
fixed	4	4	1	752517	4	1	1	1	0	628	1	4	0	104	37	0	0	100
fixed	4	4	2	754111	1	2	2	1	0	1209	1	4	0	112	38	0	0	100
fixed	4	4	3	756248	6	4	4	1	0	774	1	4	0	128	39	0	0	100
fixed	4	4	4	757751	2	1	1	1	0	839	1	4	0	104	40	0	0	100
fixed	4	4	5	758960	5	3	3	1	0	1188	1	4	0	120	41	0	0	100
fixed	4	4	6	761017	6	4	4	1	0	773	1	4	0	128	42	0	0	100
fixed	4	4	7	762322	3	1	1	1	0	797	1	4	0	104	43	0	0	100
fixed	4	4	8	763765	2	3	3	1	0	1600	1	4	0	120	44	0	0	100
fixed	4	4	9	766268	3	2	0	0	2	0	3	4	0	112	44	0	1	98
fixed	4	4	10	769192	1	4	4	1	0	706	1	4	0	128	45	0	1	98
fixed	4	4	11	770206	5	2	2	1	0	927	1	4	0	112	46	0	1	98
fixed	4	4	12	771678	4	3	3	1	0	1105	1	4	0	120	47	0	1	98
fixed	4	5	1	773518	4	1	1	1	0	659	1	4	0	104	48	0	1	98
fixed	4	5	2	774671	1	2	2	1	0	818	1	4	0	112	49	0	1	98
fixed	4	5	3	776462	6	4	4	1	0	702	1	4	0	128	50	0	1	98
fixed	4	5	4	777600	2	1	1	1	0	854	1	4	0	104	51	0	1	98
fixed	4	5	5	778872	5	3	3	1	0	944	1	4	0	120	52	0	1	98
fixed	4	5	6	780623	6	4	4	1	0	1158	1	4	0	128	53	0	1	98
fixed	4	5	7	782665	3	1	1	1	0	488	1	4	0	104	54	0	1	98
fixed	4	5	8	783569	2	3	3	1	0	1393	1	4	0	120	55	0	1	98
fixed	4	5	9	785320	3	2	2	1	0	663	1	4	0	112	56	0	1	98
fixed	4	5	10	786936	1	4	4	1	0	699	1	4	0	128	57	0	1	98
fixed	4	5	11	788589	5	2	2	1	0	764	1	4	0	112	58	0	1	98
fixed	4	5	12	790213	4	3	3	1	0	1032	1	4	0	120	59	0	1	98
fixed	4	6	1	792264	4	1	1	1	0	825	1	4	0	104	60	0	1	98
fixed	4	6	2	794030	1	2	2	1	0	1110	1	4	0	112	61	0	1	98
fixed	4	6	3	795613	6	4	4	1	0	1003	1	4	0	128	62	0	1	98
fixed	4	6	4	797043	2	1	1	1	0	822	1	4	0	104	63	0	1	98
fixed	4	6	5	798466	5	3	3	1	0	1114	1	4	0	120	64	0	1	98
fixed	4	6	6	800228	6	4	4	1	0	703	1	4	0	128	65	0	1	98
fixed	4	6	7	801718	3	1	1	1	0	744	1	4	0	104	66	0	1	99
fixed	4	6	8	803283	2	3	3	1	0	1022	1	4	0	120	67	0	1	99
fixed	4	6	9	805232	3	2	2	1	0	772	1	4	0	112	68	0	1	99
fixed	4	6	10	806377	1	4	4	1	0	723	1	4	0	128	69	0	1	99
fixed	4	6	11	807477	5	2	2	1	0	893	1	4	0	112	70	0	1	99
fixed	4	6	12	808971	4	3	3	1	0	845	1	4	0	120	71	0	1	99
fixed	4	7	1	810559	4	1	1	1	0	738	1	4	0	104	72	0	1	99
fixed	4	7	2	811982	1	2	2	1	0	710	1	4	0	112	73	0	1	99
fixed	4	7	3	813220	6	4	4	1	0	729	1	4	0	128	74	0	1	99
fixed	4	7	4	814557	2	1	1	1	0	889	1	4	0	104	75	0	1	99
fixed	4	7	5	816264	5	3	3	1	0	952	1	4	0	120	76	0	1	99
fixed	4	7	6	818205	6	4	4	1	0	927	1	4	0	128	77	0	1	99
fixed	4	7	7	819694	3	1	1	1	0	863	1	4	0	104	78	0	1	99
fixed	4	7	8	821095	2	3	3	1	0	1220	1	4	0	120	79	0	1	99
fixed	4	7	9	823261	3	2	2	1	0	720	1	4	0	112	80	0	1	99
fixed	4	7	10	824472	1	4	4	1	0	725	1	4	0	128	81	0	1	99
fixed	4	7	11	825617	5	2	2	1	0	612	1	4	0	112	82	0	1	99
fixed	4	7	12	826967	4	3	3	1	0	1003	1	4	0	120	83	0	1	99
fixed	4	8	1	828787	4	1	1	1	0	574	1	4	0	104	84	0	1	99
fixed	4	8	2	829949	1	2	2	1	0	1269	1	4	0	112	85	0	1	99
fixed	4	8	3	832231	6	4	4	1	0	692	1	4	0	128	86	0	1	99
fixed	4	8	4	833928	2	1	1	1	0	1317	1	4	0	104	87	0	1	99
fixed	4	8	5	835742	5	3	3	1	0	847	1	4	0	120	88	0	1	99
fixed	4	8	6	837597	6	4	4	1	0	721	1	4	0	128	89	0	1	99
fixed	4	8	7	838754	3	1	1	1	0	792	1	4	0	104	90	0	1	99
fixed	4	8	8	839946	2	3	3	1	0	1013	1	4	0	120	91	0	1	99
fixed	4	8	9	841293	3	2	2	1	0	868	1	4	0	112	92	0	1	99
fixed	4	8	10	842622	1	4	4	1	0	1076	1	4	0	128	93	0	1	99
fixed	4	8	11	844184	5	2	2	1	0	874	1	4	0	112	94	0	1	99
fixed	4	8	12	846030	4	3	3	1	0	771	1	4	0	120	95	0	1	99
fixed	4	9	1	848051	4	1	1	1	0	966	1	4	0	104	96	0	1	99
fixed	4	9	2	849346	1	2	2	1	0	767	1	4	0	112	97	0	1	99
fixed	4	9	3	850572	6	4	4	1	0	731	1	4	0	128	98	0	1	99
fixed	4	9	4	851848	2	1	1	2	0	805	2	4	0	104	99	0	1	99
fixed	4	9	5	853575	5	3	3	1	0	820	1	4	0	120	100	0	1	99
fixed	4	9	6	855210	6	4	4	1	0	799	1	4	0	128	101	0	1	99
fixed	4	9	7	856408	3	1	1	1	0	764	1	4	0	104	102	0	1	99
fixed	4	9	8	858041	2	3	3	1	0	1231	1	4	0	120	103	0	1	99
fixed	4	9	9	860202	3	2	2	1	0	571	1	4	0	112	104	0	1	99
fixed	4	9	10	861093	1	4	4	1	0	822	1	4	0	128	105	0	1	99
fixed	4	9	11	862854	5	2	2	1	0	827	1	4	0	112	106	0	1	99
fixed	4	9	12	864591	4	3	3	1	0	1337	1	4	0	120	107	0	1	99
fixed	4	10	1	866981	4	1	1	1	0	748	1	4	0	104	108	0	1	99
fixed	4	10	2	868292	1	2	2	1	0	1221	1	4	0	112	109	0	1	99
fixed	4	10	3	870097	6	4	4	1	0	1280	1	4	0	128	110	0	1	99
fixed	4	10	4	872373	2	1	1	1	0	960	1	4	0	104	111	0	1	99
fixed	4	10	5	874069	5	3	3	1	0	960	1	4	0	120	112	0	1	99
fixed	4	10	6	875806	6	4	4	1	0	822	1	4	0	128	113	0	1	99
fixed	4	10	7	877278	3	1	1	1	0	728	1	4	0	104	114	0	1	99
fixed	4	10	8	878976	2	3	3	1	0	1544	1	4	0	120	115	0	1	99
fixed	4	10	9	880893	3	2	2	1	0	679	1	4	0	112	116	0	1	99
fixed	4	10	10	882407	1	4	4	1	0	959	1	4	0	128	117	0	1	99
fixed	4	10	11	884169	5	2	2	1	0	1253	1	4	0	112	118	0	1	99
fixed	4	10	12	886210	4	3	3	1	0	702	1	4	0	120	119	0	1	99
fixed	5	1	1	888364	4	1	1	1	0	522	1	4	0	136	1	0	0	100
fixed	5	1	2	889369	1	2	2	1	0	1016	1	4	0	144	2	0	0	100
fixed	5	1	3	890969	6	4	4	1	0	1061	1	4	0	160	3	0	0	100
fixed	5	1	4	892545	2	1	1	1	0	801	1	4	0	136	4	0	0	100
fixed	5	1	5	893720	5	3	3	1	0	1088	1	4	0	152	5	0	0	100
fixed	5	1	6	895679	6	4	4	1	0	869	1	4	0	160	6	0	0	100
fixed	5	1	7	897521	3	1	1	1	0	1063	1	4	0	136	7	0	0	100
fixed	5	1	8	899144	2	3	3	1	0	1042	1	4	0	152	8	0	0	100
fixed	5	1	9	901101	3	2	2	1	0	783	1	4	0	144	9	0	0	100
fixed	5	1	10	902483	1	4	4	1	0	772	1	4	0	160	10	0	0	100
fixed	5	1	11	903790	5	2	2	1	0	701	1	4	0	144	11	0	0	100
fixed	5	1	12	905153	4	3	3	1	0	852	1	4	0	152	12	0	0	100
fixed	5	2	1	907280	4	1	1	1	0	825	1	4	0	136	13	0	0	100
fixed	5	2	2	908639	1	2	2	1	0	808	1	4	0	144	14	0	0	100
fixed	5	2	3	909855	6	4	4	1	0	740	1	4	0	160	15	0	0	100
fixed	5	2	4	911189	2	1	1	1	0	724	1	4	0	136	16	0	0	100
fixed	5	2	5	912606	5	3	3	1	0	744	1	4	0	152	17	0	0	100
fixed	5	2	6	914372	6	4	4	1	0	957	1	4	0	160	18	0	0	100
fixed	5	2	7	916280	3	1	1	1	0	741	1	4	0	136	19	0	0	100
fixed	5	2	8	917609	2	3	3	1	0	1236	1	4	0	152	20	0	0	100
fixed	5	2	9	919643	3	2	2	1	0	598	1	4	0	144	21	0	0	100
fixed	5	2	10	920923	1	4	4	1	0	912	1	4	0	160	22	0	0	100
fixed	5	2	11	922789	5	2	2	1	0	665	1	4	0	144	23	0	0	100
fixed	5	2	12	924225	4	3	3	1	0	964	1	4	0	152	24	0	0	100
fixed	5	3	1	926477	4	1	1	1	0	684	1	4	0	136	25	0	0	100
fixed	5	3	2	927730	1	2	2	1	0	879	1	4	0	144	26	0	0	100
fixed	5	3	3	929189	6	4	4	1	0	1185	1	4	0	160	27	0	0	100
fixed	5	3	4	931210	2	1	1	1	0	940	1	4	0	136	28	0	0	100
fixed	5	3	5	932766	5	3	3	1	0	1074	1	4	0	152	29	0	0	100
fixed	5	3	6	934297	6	4	4	1	0	849	1	4	0	160	30	0	0	100
fixed	5	3	7	935920	3	1	1	1	0	828	1	4	0	136	31	0	0	100
fixed	5	3	8	937556	2	3	3	1	0	687	1	4	0	152	32	0	0	100
fixed	5	3	9	938850	3	2	2	1	0	841	1	4	0	144	33	0	0	100
fixed	5	3	10	940256	1	4	0	1	2	0	3	4	0	160	33	0	1	97
fixed	5	3	11	943537	5	2	2	1	0	866	1	4	0	144	34	0	1	97
fixed	5	3	12	945052	4	3	3	1	0	938	1	4	0	152	35	0	1	97
fixed	5	4	1	947010	4	1	1	1	0	599	1	4	0	136	36	0	1	97
fixed	5	4	2	948241	1	2	2	1	0	955	1	4	0	144	37	0	1	97
fixed	5	4	3	950202	6	4	4	1	0	1151	1	4	0	160	38	0	1	97
fixed	5	4	4	951979	2	1	1	1	0	772	1	4	0	136	39	0	1	98
fixed	5	4	5	953163	5	3	3	1	0	810	1	4	0	152	40	0	1	98
fixed	5	4	6	954960	6	4	4	1	0	1030	1	4	0	160	41	0	1	98
fixed	5	4	7	956885	3	1	1	1	0	1172	1	4	0	136	42	0	1	98
fixed	5	4	8	958698	2	3	3	1	0	1216	1	4	0	152	43	0	1	98
fixed	5	4	9	960491	3	2	0	1	2	0	3	4	0	144	43	0	2	96
fixed	5	4	10	964023	1	4	4	1	0	862	1	4	0	160	44	0	2	96
fixed	5	4	11	965557	5	2	2	1	0	1197	1	4	0	144	45	0	2	96
fixed	5	4	12	967359	4	3	3	1	0	1065	1	4	0	152	46	0	2	96
fixed	5	5	1	969165	4	1	1	1	0	716	1	4	0	136	47	0	2	96
fixed	5	5	2	970175	1	2	2	1	0	978	1	4	0	144	48	0	2	96
fixed	5	5	3	971851	6	4	4	1	0	811	1	4	0	160	49	0	2	96
fixed	5	5	4	973017	2	1	1	1	0	1257	1	4	0	136	50	0	2	96
fixed	5	5	5	975296	5	3	3	1	0	1296	1	4	0	152	51	0	2	96
fixed	5	5	6	977070	6	4	4	1	0	797	1	4	0	160	52	0	2	96
fixed	5	5	7	978880	3	1	1	1	0	1145	1	4	0	136	53	0	2	96
fixed	5	5	8	980802	2	3	3	1	0	976	1	4	0	152	54	0	2	96
fixed	5	5	9	982793	3	2	2	1	0	627	1	4	0	144	55	0	2	96
fixed	5	5	10	983776	1	4	4	1	0	674	1	4	0	160	56	0	2	97
fixed	5	5	11	984967	5	2	2	1	0	927	1	4	0	144	57	0	2	97
fixed	5	5	12	986437	4	3	3	2	0	1649	2	4	0	152	58	0	2	97
fixed	5	6	1	989064	4	1	1	1	0	705	1	4	0	136	59	0	2	97
fixed	5	6	2	990076	1	2	0	1	2	0	3	4	0	144	59	0	3	95
fixed	5	6	3	993499	6	4	4	1	0	1150	1	4	0	160	60	0	3	95
fixed	5	6	4	995037	2	1	1	2	0	877	2	4	0	136	61	0	3	95
fixed	5	6	5	996736	5	3	3	1	0	900	1	4	0	152	62	0	3	95
fixed	5	6	6	998252	6	4	4	1	0	908	1	4	0	160	63	0	3	95
fixed	5	6	7	1000122	3	1	1	1	0	925	1	4	0	136	64	0	3	96
fixed	5	6	8	1001549	2	3	3	1	0	1081	1	4	0	152	65	0	3	96
fixed	5	6	9	1003026	3	2	2	1	0	851	1	4	0	144	66	0	3	96
fixed	5	6	10	1004188	1	4	4	1	0	777	1	4	0	160	67	0	3	96
fixed	5	6	11	1005749	5	2	2	1	0	847	1	4	0	144	68	0	3	96
fixed	5	6	12	1006920	4	3	3	1	0	1038	1	4	0	152	69	0	3	96
fixed	5	7	1	1008745	4	1	1	1	0	984	1	4	0	136	70	0	3	96
fixed	5	7	2	1010758	1	2	2	1	0	1307	1	4	0	144	71	0	3	96
fixed	5	7	3	1012853	6	4	4	1	0	746	1	4	0	160	72	0	3	96
fixed	5	7	4	1014008	2	1	1	1	0	1225	1	4	0	136	73	0	3	96
fixed	5	7	5	1015574	5	3	3	1	0	951	1	4	0	152	74	0	3	96
fixed	5	7	6	1016869	6	4	4	1	0	872	1	4	0	160	75	0	3	96
fixed	5	7	7	1018699	3	1	1	1	0	947	1	4	0	136	76	0	3	96
fixed	5	7	8	1020051	2	3	3	1	0	1169	1	4	0	152	77	0	3	96
fixed	5	7	9	1021704	3	2	2	1	0	683	1	4	0	144	78	0	3	96
fixed	5	7	10	1023012	1	4	4	1	0	739	1	4	0	160	79	0	3	96
fixed	5	7	11	1024648	5	2	2	1	0	878	1	4	0	144	80	0	3	96
fixed	5	7	12	1025993	4	3	3	1	0	661	1	4	0	152	81	0	3	96
fixed	5	8	1	1027491	4	1	1	1	0	1494	1	4	0	136	82	0	3	96
fixed	5	8	2	1029551	1	2	2	1	0	1655	1	4	0	144	83	0	3	97
fixed	5	8	3	1032024	6	4	4	1	0	774	1	4	0	160	84	0	3	97
fixed	5	8	4	1033821	2	1	1	1	0	1593	1	4	0	136	85	0	3	97
fixed	5	8	5	1036313	5	3	3	1	0	1440	1	4	0	152	86	0	3	97
fixed	5	8	6	1038524	6	4	4	1	0	731	1	4	0	160	87	0	3	97
fixed	5	8	7	1039823	3	1	1	1	0	924	1	4	0	136	88	0	3	97
fixed	5	8	8	1041634	2	3	3	1	0	919	1	4	0	152	89	0	3	97
fixed	5	8	9	1043296	3	2	2	1	0	760	1	4	0	144	90	0	3	97
fixed	5	8	10	1045031	1	4	4	1	0	1047	1	4	0	160	91	0	3	97
fixed	5	8	11	1047002	5	2	2	1	0	932	1	4	0	144	92	0	3	97
fixed	5	8	12	1048881	4	3	3	1	0	812	1	4	0	152	93	0	3	97
fixed	5	9	1	1050514	4	1	1	1	0	839	1	4	0	136	94	0	3	97
fixed	5	9	2	1052352	1	2	2	1	0	1177	1	4	0	144	95	0	3	97
fixed	5	9	3	1054223	6	4	4	1	0	834	1	4	0	160	96	0	3	97
fixed	5	9	4	1055372	2	1	1	1	0	753	1	4	0	136	97	0	3	97
fixed	5	9	5	1056965	5	3	3	1	0	917	1	4	0	152	98	0	3	97
fixed	5	9	6	1058671	6	4	4	1	0	901	1	4	0	160	99	0	3	97
fixed	5	9	7	1060487	3	1	1	1	0	840	1	4	0	136	100	0	3	97
fixed	5	9	8	1062373	2	3	3	1	0	889	1	4	0	152	101	0	3	97
fixed	5	9	9	1063901	3	2	2	1	0	600	1	4	0	144	102	0	3	97
fixed	5	9	10	1065038	1	4	4	1	0	1008	1	4	0	160	103	0	3	97
fixed	5	9	11	1066673	5	2	2	1	0	1082	1	4	0	144	104	0	3	97
fixed	5	9	12	1068298	4	3	3	1	0	974	1	4	0	152	105	0	3	97
fixed	5	10	1	1070163	4	1	1	1	0	782	1	4	0	136	106	0	3	97
fixed	5	10	2	1071895	1	2	2	1	0	1078	1	4	0	144	107	0	3	97
fixed	5	10	3	1073667	6	4	4	1	0	1083	1	4	0	160	108	0	3	97
fixed	5	10	4	1075431	2	1	1	1	0	800	1	4	0	136	109	0	3	97
fixed	5	10	5	1076807	5	3	3	1	0	742	1	4	0	152	110	0	3	97
fixed	5	10	6	1078055	6	4	4	1	0	816	1	4	0	160	111	0	3	97
fixed	5	10	7	1079491	3	1	1	1	0	1004	1	4	0	136	112	0	3	97
fixed	5	10	8	1081391	2	3	3	2	0	1347	2	4	0	152	113	0	3	97
fixed	5	10	9	1083122	3	2	2	1	0	554	1	4	0	144	114	0	3	97
fixed	5	10	10	1084706	1	4	4	1	0	1535	1	4	0	160	115	0	3	97
fixed	5	10	11	1086815	5	2	2	1	0	846	1	4	0	144	116	0	3	97
fixed	5	10	12	1088134	4	3	3	1	0	678	1	4	0	152	117	0	3	98
random	6	1	1	1207664	6	1	1	1	0	1111	1	4	0	168	1	0	0	100
random	6	1	2	1209476	4	4	4	1	0	698	1	4	0	192	2	0	0	100
random	6	1	3	1210682	2	2	2	1	0	711	1	4	0	176	3	0	0	100
random	6	1	4	1212347	3	3	3	1	0	776	1	4	0	184	4	0	0	100
random	6	1	5	1213839	5	2	2	1	0	761	1	4	0	176	5	0	0	100
random	6	1	6	1215618	1	4	4	1	0	750	1	4	0	192	6	0	0	100
random	6	1	7	1217093	6	1	1	1	0	791	1	4	0	168	7	0	0	100
random	6	1	8	1218711	2	3	3	1	0	883	1	4	0	184	8	0	0	100
random	6	1	9	1220082	4	2	2	1	0	553	1	4	0	176	9	0	0	100
random	6	1	10	1221393	1	1	1	1	0	754	1	4	0	168	10	0	0	100
random	6	1	11	1222593	5	4	4	1	0	703	1	4	0	192	11	0	0	100
random	6	1	12	1223846	3	3	3	1	0	778	1	4	0	184	12	0	0	100
random	6	1	13	1225761	5	2	2	1	0	544	1	4	0	176	13	0	0	100
random	6	1	14	1226597	1	4	4	1	0	813	1	4	0	192	14	0	0	100
random	6	1	15	1227794	3	1	1	1	0	851	1	4	0	168	15	0	0	100
random	6	1	16	1229056	4	3	3	3	0	1621	2	4	0	184	16	0	0	100
random	6	1	17	1231172	6	4	4	1	0	851	1	4	0	192	17	0	0	100
random	6	1	18	1232721	2	1	1	1	0	1306	1	4	0	168	18	0	0	100
random	6	1	19	1234488	5	3	3	1	0	959	1	4	0	184	19	0	0	100
random	6	1	20	1236341	2	2	2	1	0	600	1	4	0	176	20	0	0	100
random	6	1	21	1237783	3	3	3	1	0	1371	1	4	0	184	21	0	0	100
random	6	1	22	1240047	6	1	1	1	0	1003	1	4	0	168	22	0	0	100
random	6	1	23	1241431	4	2	2	1	0	904	1	4	0	176	23	0	0	100
random	6	1	24	1242647	1	4	4	1	0	813	1	4	0	192	24	0	0	100
random	6	1	25	1244440	4	3	3	2	0	1809	2	4	0	184	25	0	0	100
random	6	1	26	1247006	2	1	1	1	0	861	1	4	0	168	26	0	0	100
random	6	1	27	1248533	5	2	2	1	0	1044	1	4	0	176	27	0	0	100
random	6	1	28	1250225	6	4	4	1	0	948	1	4	0	192	28	0	0	100
random	6	1	29	1251688	1	3	3	1	0	1070	1	4	0	184	29	0	0	100
random	6	1	30	1253553	5	2	2	1	0	655	1	4	0	176	30	0	0	100
random	6	1	31	1254826	2	1	1	1	0	618	1	4	0	168	31	0	0	100
random	6	1	32	1255732	3	3	3	1	0	859	1	4	0	184	32	0	0	100
random	6	1	33	1257520	6	4	4	1	0	807	1	4	0	192	33	0	0	100
random	6	1	34	1259239	4	2	2	1	0	719	1	4	0	176	34	0	0	100
random	6	1	35	1260933	3	4	4	1	0	991	1	4	0	192	35	0	0	100
random	6	1	36	1262363	1	1	1	1	0	730	1	4	0	168	36	0	0	100
random	6	1	37	1264122	3	4	4	1	0	1311	1	4	0	192	37	0	0	100
random	6	1	38	1266016	5	3	3	1	0	1135	1	4	0	184	38	0	0	100
random	6	1	39	1267844	6	1	1	2	0	1282	2	4	0	168	39	0	0	100
random	6	1	40	1270021	1	2	2	1	0	1118	1	4	0	176	40	0	0	100
random	6	1	41	1271703	2	3	3	1	0	1175	1	4	0	184	41	0	0	100
random	6	1	42	1273655	4	4	4	1	0	924	1	4	0	192	42	0	0	100
random	6	1	43	1275073	1	2	2	1	0	720	1	4	0	176	43	0	0	100
random	6	1	44	1276435	6	3	3	1	0	742	1	4	0	184	44	0	0	100
random	6	1	45	1277516	3	1	1	1	0	921	1	4	0	168	45	0	0	100
random	6	1	46	1279299	4	4	4	1	0	933	1	4	0	192	46	0	0	100
random	6	1	47	1280648	2	2	2	1	0	724	1	4	0	176	47	0	0	100
random	6	1	48	1281730	5	1	1	1	0	782	1	4	0	168	48	0	0	100
random	6	1	49	1283152	2	3	3	1	0	785	1	4	0	184	49	0	0	100
random	6	1	50	1284268	3	1	1	1	0	906	1	4	0	168	50	0	0	100
random	6	1	51	1286045	1	4	4	1	0	887	1	4	0	192	51	0	0	100
random	6	1	52	1287654	5	3	3	1	0	859	1	4	0	184	52	0	0	100
random	6	1	53	1289276	3	2	2	1	0	542	1	4	0	176	53	0	0	100
random	6	1	54	1290603	6	4	4	1	0	766	1	4	0	192	54	0	0	100
random	6	1	55	1292365	4	2	2	1	0	859	1	4	0	176	55	0	0	100
random	6	1	56	1293662	1	1	1	1	0	756	1	4	0	168	56	0	0	100
random	6	1	57	1295015	5	4	4	1	0	707	1	4	0	192	57	0	0	100
random	6	1	58	1296553	2	1	1	1	0	826	1	4	0	168	58	0	0	100
random	6	1	59	1297908	6	2	2	1	0	1249	1	4	0	176	59	0	0	100
random	6	1	60	1299476	4	3	3	1	0	902	1	4	0	184	60	0	0	100
random	6	1	61	1301229	1	2	2	1	0	996	1	4	0	176	61	0	0	100
random	6	1	62	1302913	6	4	4	1	0	1133	1	4	0	192	62	0	0	100
random	6	1	63	1304961	4	1	1	1	0	814	1	4	0	168	63	0	0	100
random	6	1	64	1306191	2	2	2	1	0	866	1	4	0	176	64	0	0	100
random	6	1	65	1307897	4	3	3	1	0	569	1	4	0	184	65	0	0	100
random	6	1	66	1309322	3	1	1	1	0	765	1	4	0	168	66	0	0	100
random	6	1	67	1310484	1	3	3	1	0	740	1	4	0	184	67	0	0	100
random	6	1	68	1312191	5	4	4	1	0	835	1	4	0	192	68	0	0	100
random	6	1	69	1313762	2	2	2	1	0	673	1	4	0	176	69	0	0	100
random	6	1	70	1315009	3	1	1	1	0	813	1	4	0	168	70	0	0	100
random	6	1	71	1316311	5	4	4	1	0	789	1	4	0	192	71	0	0	100
random	6	1	72	1318030	6	3	3	1	0	1140	1	4	0	184	72	0	0	100
random	6	1	73	1319808	2	1	1	1	0	833	1	4	0	168	73	0	0	100
random	6	1	74	1321270	5	3	3	1	0	835	1	4	0	184	74	0	0	100
random	6	1	75	1322653	1	4	4	1	0	1032	1	4	0	192	75	0	0	100
random	6	1	76	1324018	6	2	2	1	0	718	1	4	0	176	76	0	0	100
random	6	1	77	1325551	2	1	1	1	0	902	1	4	0	168	77	0	0	100
random	6	1	78	1327435	4	4	4	1	0	974	1	4	0	192	78	0	0	100
random	6	1	79	1329421	3	2	2	1	0	666	1	4	0	176	79	0	0	100
random	6	1	80	1330577	4	3	3	1	0	857	1	4	0	184	80	0	0	100
random	6	1	81	1332386	1	4	4	1	0	741	1	4	0	192	81	0	0	100
random	6	1	82	1333969	5	1	1	1	0	889	1	4	0	168	82	0	0	100
random	6	1	83	1335511	3	2	2	1	0	624	1	4	0	176	83	0	0	100
random	6	1	84	1337017	6	3	3	1	0	776	1	4	0	184	84	0	0	100
random	6	1	85	1338938	3	2	2	1	0	839	1	4	0	176	85	0	0	100
random	6	1	86	1340372	1	3	3	1	0	602	1	4	0	184	86	0	0	100
random	6	1	87	1341418	4	4	4	1	0	718	1	4	0	192	87	0	0	100
random	6	1	88	1343147	2	1	1	1	0	628	1	4	0	168	88	0	0	100
random	6	1	89	1344375	6	4	4	1	0	1041	1	4	0	192	89	0	0	100
random	6	1	90	1346419	3	3	3	1	0	866	1	4	0	184	90	0	0	100
random	6	1	91	1348208	5	4	4	1	0	1054	1	4	0	192	91	0	0	100
random	6	1	92	1349980	1	2	2	1	0	787	1	4	0	176	92	0	0	100
random	6	1	93	1351773	5	1	1	1	0	895	1	4	0	168	93	0	0	100
random	6	1	94	1353225	4	3	3	1	0	729	1	4	0	184	94	0	0	100
random	6	1	95	1354742	6	1	1	1	0	849	1	4	0	168	95	0	0	100
random	6	1	96	1355931	2	2	2	1	0	671	1	4	0	176	96	0	0	100
random	6	1	97	1357367	4	3	3	1	0	802	1	4	0	184	97	0	0	100
random	6	1	98	1358867	3	2	2	1	0	715	1	4	0	176	98	0	0	100
random	6	1	99	1360232	6	3	3	1	0	721	1	4	0	184	99	0	0	100
random	6	1	100	1361663	1	4	4	1	0	876	1	4	0	192	100	0	0	100
random	6	1	101	1363026	4	1	1	1	0	715	1	4	0	168	101	0	0	100
random	6	1	102	1364580	5	2	2	1	0	769	1	4	0	176	102	0	0	100
random	6	1	103	1366082	2	4	4	1	0	769	1	4	0	192	103	0	0	100
random	6	1	104	1367401	3	1	1	2	0	761	2	4	0	168	104	0	0	100
random	6	1	105	1368734	1	3	3	1	0	801	1	4	0	184	105	0	0	100
random	6	1	106	1370001	2	2	2	1	0	819	1	4	0	176	106	0	0	100
random	6	1	107	1371290	5	4	4	3	0	1421	2	4	0	192	107	0	0	100
random	6	1	108	1373457	6	1	1	1	0	1153	1	4	0	168	108	0	0	100
random	6	1	109	1375745	5	4	4	1	0	808	1	4	0	192	109	0	0	100
random	6	1	110	1377568	6	3	3	1	0	1242	1	4	0	184	110	0	0	100
random	6	1	111	1379269	2	2	2	1	0	578	1	4	0	176	111	0	0	100
random	6	1	112	1380258	3	1	1	1	0	1297	1	4	0	168	112	0	0	100
random	6	1	113	1382227	1	2	2	1	0	1685	1	4	0	176	113	0	0	100
random	6	1	114	1384721	2	3	3	1	0	796	1	4	0	184	114	0	0	100
random	6	1	115	1386233	3	1	1	1	0	780	1	4	0	168	115	0	0	100
random	6	1	116	1387844	4	4	0	0	2	0	3	4	0	192	115	0	1	99
random	6	1	117	1390936	6	1	1	1	0	756	1	4	0	168	116	0	1	99
random	6	1	118	1392501	5	3	3	1	0	954	1	4	0	184	117	0	1	99
random	6	1	119	1394057	1	4	4	1	0	728	1	4	0	192	118	0	1	99
random	6	1	120	1395442	4	2	2	1	0	757	1	4	0	176	119	0	1	99
fixed	7	1	1	1397029	4	1	1	1	0	730	1	4	0	200	1	0	0	100
fixed	7	1	2	1398420	1	2	2	1	0	1375	1	4	0	208	2	0	0	100
fixed	7	1	3	1400695	6	4	4	1	0	743	1	4	0	224	3	0	0	100
fixed	7	1	4	1401733	2	1	1	1	0	707	1	4	0	200	4	0	0	100
fixed	7	1	5	1403442	5	3	3	1	0	1083	1	4	0	216	5	0	0	100
fixed	7	1	6	1405168	6	4	4	1	0	761	1	4	0	224	6	0	0	100
fixed	7	1	7	1406701	3	1	1	1	0	817	1	4	0	200	7	0	0	100
fixed	7	1	8	1408340	2	3	3	1	0	1067	1	4	0	216	8	0	0	100
fixed	7	1	9	1410258	3	2	2	1	0	986	1	4	0	208	9	0	0	100
fixed	7	1	10	1412281	1	4	4	1	0	725	1	4	0	224	10	0	0	100
fixed	7	1	11	1413465	5	2	2	1	0	1218	1	4	0	208	11	0	0	100
fixed	7	1	12	1415041	4	3	3	1	0	711	1	4	0	216	12	0	0	100
fixed	7	2	1	1416428	4	1	1	1	0	740	1	4	0	200	1	0	0	8
fixed	7	2	2	1418031	1	2	2	1	0	1217	1	4	0	208	2	0	0	14
fixed	7	2	3	1419557	6	4	4	1	0	1096	1	4	0	224	3	0	0	20
fixed	7	2	4	1421232	2	1	1	1	0	785	1	4	0	200	4	0	0	25
fixed	7	2	5	1422734	5	3	3	1	0	842	1	4	0	216	5	0	0	29
fixed	7	2	6	1423872	6	4	4	1	0	946	1	4	0	224	6	0	0	33
fixed	7	2	7	1425778	3	1	1	1	0	737	1	4	0	200	7	0	0	37
fixed	7	2	8	1427488	2	3	3	1	0	1048	1	4	0	216	8	0	0	40
fixed	7	2	9	1429029	3	2	2	1	0	695	1	4	0	208	9	0	0	43
fixed	7	2	10	1430568	1	4	4	1	0	718	1	4	0	224	10	0	0	45
fixed	7	2	11	1432304	5	2	2	1	0	996	1	4	0	208	11	0	0	48
fixed	7	2	12	1433683	4	3	3	1	0	762	1	4	0	216	12	0	0	50
fixed	7	3	1	1435642	4	1	1	1	0	1295	1	4	0	200	1	0	0	4
fixed	7	3	2	1437437	1	2	2	1	0	747	1	4	0	208	2	0	0	8
fixed	7	3	3	1438833	6	4	4	1	0	1335	1	4	0	224	3	0	0	11
fixed	7	3	4	1441074	2	1	1	1	0	1457	1	4	0	200	4	0	0	14
fixed	7	3	5	1442992	5	3	3	1	0	1039	1	4	0	216	5	0	0	17
fixed	7	3	6	1444829	6	4	4	1	0	713	1	4	0	224	6	0	0	20
fixed	7	3	7	1446141	3	1	1	1	0	1058	1	4	0	200	7	0	0	23
fixed	7	3	8	1447902	2	3	3	1	0	944	1	4	0	216	8	0	0	25
fixed	7	3	9	1449622	3	2	2	1	0	815	1	4	0	208	9	0	0	27
fixed	7	3	10	1451149	1	4	4	1	0	790	1	4	0	224	10	0	0	29
fixed	7	3	11	1452744	5	2	2	1	0	787	1	4	0	208	11	0	0	31
fixed	7	3	12	1454563	4	3	3	1	0	910	1	4	0	216	12	0	0	33
fixed	7	4	1	1456477	4	1	1	1	0	628	1	4	0	200	1	0	0	3
fixed	7	4	2	1458084	1	2	2	1	0	880	1	4	0	208	2	0	0	5
fixed	7	4	3	1459621	6	4	4	1	0	815	1	4	0	224	3	0	0	8
fixed	7	4	4	1460890	2	1	1	1	0	721	1	4	0	200	4	0	0	10
fixed	7	4	5	1462546	5	3	3	1	0	779	1	4	0	216	5	0	0	12
fixed	7	4	6	1463672	6	4	4	1	0	708	1	4	0	224	6	0	0	14
fixed	7	4	7	1465369	3	1	1	1	0	716	1	4	0	200	7	0	0	16
fixed	7	4	8	1467109	2	3	3	1	0	890	1	4	0	216	8	0	0	18
fixed	7	4	9	1468643	3	2	2	1	0	601	1	4	0	208	9	0	0	20
fixed	7	4	10	1470178	1	4	4	1	0	920	1	4	0	224	10	0	0	22
fixed	7	4	11	1471604	5	2	2	1	0	828	1	4	0	208	11	0	0	23
fixed	7	4	12	1472870	4	3	3	1	0	918	1	4	0	216	12	0	0	25
fixed	7	5	1	1474387	4	1	1	1	0	742	1	4	0	200	1	0	0	2
fixed	7	5	2	1475916	1	2	2	1	0	1037	1	4	0	208	2	0	0	4
fixed	7	5	3	1477404	6	4	4	1	0	1166	1	4	0	224	3	0	0	6
fixed	7	5	4	1479188	2	1	1	1	0	803	1	4	0	200	4	0	0	8
fixed	7	5	5	1480913	5	3	3	1	0	906	1	4	0	216	5	0	0	9
fixed	7	5	6	1482407	6	4	4	1	0	1082	1	4	0	224	6	0	0	11
fixed	7	5	7	1484464	3	1	1	1	0	715	1	4	0	200	7	0	0	13
fixed	7	5	8	1485740	2	3	3	1	0	797	1	4	0	216	8	0	0	14
fixed	7	5	9	1487048	3	2	2	1	0	862	1	4	0	208	9	0	0	16
fixed	7	5	10	1488833	1	4	4	1	0	730	1	4	0	224	10	0	0	17
fixed	7	5	11	1490095	5	2	2	1	0	692	1	4	0	208	11	0	0	19
fixed	7	5	12	1491649	4	3	3	1	0	763	1	4	0	216	12	0	0	20
fixed	7	6	1	1493534	4	1	1	1	0	755	1	4	0	200	1	0	0	2
fixed	7	6	2	1494693	1	2	2	2	0	2442	2	4	0	208	2	0	0	3
fixed	7	6	3	1497596	6	4	4	1	0	767	1	4	0	224	3	0	0	5
fixed	7	6	4	1499199	2	1	1	1	0	747	1	4	0	200	4	0	0	6
fixed	7	6	5	1500570	5	3	3	1	0	745	1	4	0	216	5	0	0	8
fixed	7	6	6	1501986	6	4	4	1	0	965	1	4	0	224	6	0	0	9
fixed	7	6	7	1503543	3	1	1	1	0	995	1	4	0	200	7	0	0	10
fixed	7	6	8	1505171	2	3	3	1	0	1134	1	4	0	216	8	0	0	12
fixed	7	6	9	1506798	3	2	2	1	0	585	1	4	0	208	9	0	0	13
fixed	7	6	10	1507744	1	4	4	1	0	961	1	4	0	224	10	0	0	14
fixed	7	6	11	1509600	5	2	2	1	0	643	1	4	0	208	11	0	0	15
fixed	7	6	12	1511151	4	3	3	1	0	905	1	4	0	216	12	0	0	17
fixed	7	7	1	1512848	4	1	1	1	0	769	1	4	0	200	1	0	0	1
fixed	7	7	2	1514515	1	2	2	1	0	1275	1	4	0	208	2	0	0	3
fixed	7	7	3	1516349	6	4	4	1	0	917	1	4	0	224	3	0	0	4
fixed	7	7	4	1517942	2	1	1	1	0	961	1	4	0	200	4	0	0	5
fixed	7	7	5	1519834	5	3	3	1	0	745	1	4	0	216	5	0	0	6
fixed	7	7	6	1521013	6	4	4	1	0	1223	1	4	0	224	6	0	0	8
fixed	7	7	7	1522994	3	1	1	1	0	787	1	4	0	200	7	0	0	9
fixed	7	7	8	1524387	2	3	3	1	0	1024	1	4	0	216	8	0	0	10
fixed	7	7	9	1526239	3	2	2	1	0	466	1	4	0	208	9	0	0	11
fixed	7	7	10	1527423	1	4	4	1	0	880	1	4	0	224	10	0	0	12
fixed	7	7	11	1529199	5	2	2	1	0	813	1	4	0	208	11	0	0	13
fixed	7	7	12	1530811	4	3	3	1	0	960	1	4	0	216	12	0	0	14
fixed	7	8	1	1532329	4	1	1	1	0	719	1	4	0	200	1	0	0	1
fixed	7	8	2	1533452	1	2	2	1	0	872	1	4	0	208	2	0	0	2
fixed	7	8	3	1534767	6	4	4	1	0	944	1	4	0	224	3	0	0	3
fixed	7	8	4	1536073	2	1	1	1	0	753	1	4	0	200	4	0	0	5
fixed	7	8	5	1537294	5	3	3	1	0	973	1	4	0	216	5	0	0	6
fixed	7	8	6	1538682	6	4	4	1	0	1651	1	4	0	224	6	0	0	7
fixed	7	8	7	1540814	3	1	1	1	0	768	1	4	0	200	7	0	0	8
fixed	7	8	8	1542230	2	3	3	1	0	1197	1	4	0	216	8	0	0	9
fixed	7	8	9	1544083	3	2	2	1	0	686	1	4	0	208	9	0	0	10
fixed	7	8	10	1545412	1	4	4	1	0	1109	1	4	0	224	10	0	0	11
fixed	7	8	11	1546817	5	2	2	1	0	1162	1	4	0	208	11	0	0	12
fixed	7	8	12	1548727	4	3	3	1	0	1369	1	4	0	216	12	0	0	13
fixed	7	9	1	1551176	4	1	1	1	0	753	1	4	0	200	1	0	0	1
fixed	7	9	2	1552946	1	2	2	1	0	806	1	4	0	208	2	0	0	2
fixed	7	9	3	1554525	6	4	4	1	0	868	1	4	0	224	3	0	0	3
fixed	7	9	4	1556214	2	1	1	1	0	684	1	4	0	200	4	0	0	4
fixed	7	9	5	1557789	5	3	3	1	0	978	1	4	0	216	5	0	0	5
fixed	7	9	6	1559593	6	4	4	1	0	773	1	4	0	224	6	0	0	6
fixed	7	9	7	1561370	3	1	1	1	0	826	1	4	0	200	7	0	0	7
fixed	7	9	8	1562780	2	3	3	1	0	886	1	4	0	216	8	0	0	8
fixed	7	9	9	1564005	3	2	2	1	0	850	1	4	0	208	9	0	0	9
fixed	7	9	10	1565428	1	4	0	0	2	0	3	4	0	224	9	0	1	8
fixed	7	9	11	1568925	5	2	2	1	0	866	1	4	0	208	10	0	1	9
fixed	7	9	12	1570307	4	3	3	1	0	991	1	4	0	216	11	0	1	10
fixed	7	10	1	1572561	4	1	1	1	0	663	1	4	0	200	1	0	0	1
fixed	7	10	2	1574131	1	2	2	1	0	1437	1	4	0	208	2	0	0	2
fixed	7	10	3	1575913	6	4	4	1	0	1074	1	4	0	224	3	0	0	3
fixed	7	10	4	1577438	2	1	1	1	0	1009	1	4	0	200	4	0	0	4
fixed	7	10	5	1579339	5	3	3	1	0	1161	1	4	0	216	5	0	0	4
fixed	7	10	6	1580943	6	4	4	1	0	853	1	4	0	224	6	0	0	5
fixed	7	10	7	1582319	3	1	1	1	0	778	1	4	0	200	7	0	0	6
fixed	7	10	8	1583435	2	3	3	1	0	708	1	4	0	216	8	0	0	7
fixed	7	10	9	1584922	3	2	2	1	0	661	1	4	0	208	9	0	0	8
fixed	7	10	10	1586513	1	4	4	1	0	985	1	4	0	224	10	0	0	8
fixed	7	10	11	1587959	5	2	2	1	0	804	1	4	0	208	11	0	0	9
fixed	7	10	12	1589736	4	3	3	1	0	776	1	4	0	216	12	0	0	10
