type	block	sequ.	trial	time	Pos.	Color	Button	NumRsp	Resp_1	RT_1	R_Code	Resp_2	RT_2	Trigg.	n_hit	n_inc	n_miss	score_%

random	1	1	1	3344	6	1	1	1	0	766	1	4	0	8	1	0	0	100
random	1	1	2	4633	4	4	4	1	0	559	1	4	0	32	2	0	0	100
random	1	1	3	6084	2	2	2	1	0	746	1	4	0	16	3	0	0	100
random	1	1	4	7524	3	3	3	1	0	829	1	4	0	24	4	0	0	100
random	1	1	5	8901	5	2	2	1	0	803	1	4	0	16	5	0	0	100
random	1	1	6	10672	1	4	4	1	0	760	1	4	0	32	6	0	0	100
random	1	1	7	12112	6	1	1	1	0	459	1	4	0	8	7	0	0	100
random	1	1	8	13129	2	3	3	1	0	616	1	4	0	24	8	0	0	100
random	1	1	9	14660	4	2	2	1	0	695	1	4	0	16	9	0	0	100
random	1	1	10	16280	1	1	1	1	0	650	1	4	0	8	10	0	0	100
random	1	1	11	17310	5	4	4	1	0	599	1	4	0	32	11	0	0	100
random	1	1	12	18857	3	3	3	1	0	565	1	4	0	24	12	0	0	100
random	1	1	13	20270	5	2	2	1	0	449	1	4	0	16	13	0	0	100
random	1	1	14	21043	1	4	4	1	0	720	1	4	0	32	14	0	0	100
random	1	1	15	22421	3	1	1	1	0	718	1	4	0	8	15	0	0	100
random	1	1	16	23801	4	3	3	1	0	1188	1	4	0	24	16	0	0	100
random	1	1	17	25556	6	4	4	1	0	761	1	4	0	32	17	0	0	100
random	1	1	18	26768	2	1	1	1	0	846	1	4	0	8	18	0	0	100
random	1	1	19	27938	5	3	3	1	0	772	1	4	0	24	19	0	0	100
random	1	1	20	29678	2	2	2	1	0	523	1	4	0	16	20	0	0	100
random	1	1	21	30813	3	3	3	1	0	930	1	4	0	24	21	0	0	100
random	1	1	22	32114	6	1	1	1	0	772	1	4	0	8	22	0	0	100
random	1	1	23	33888	4	2	2	1	0	744	1	4	0	16	23	0	0	100
random	1	1	24	35329	1	4	4	1	0	675	1	4	0	32	24	0	0	100
random	1	1	25	36611	4	3	3	1	0	1021	1	4	0	24	25	0	0	100
random	1	1	26	38386	2	1	1	1	0	746	1	4	0	8	26	0	0	100
random	1	1	27	40045	5	2	2	1	0	740	1	4	0	16	27	0	0	100
random	1	1	28	41199	6	4	4	1	0	755	1	4	0	32	28	0	0	100
random	1	1	29	42542	1	3	3	1	0	626	1	4	0	24	29	0	0	100
random	1	1	30	44047	5	2	2	1	0	658	1	4	0	16	30	0	0	100
random	1	1	31	45046	2	1	1	1	0	647	1	4	0	8	31	0	0	100
random	1	1	32	46219	3	3	3	1	0	886	1	4	0	24	32	0	0	100
random	1	1	33	48145	6	4	4	1	0	725	1	4	0	32	33	0	0	100
random	1	1	34	49193	4	2	2	1	0	984	1	4	0	16	34	0	0	100
random	1	1	35	51102	3	4	4	1	0	543	1	4	0	32	35	0	0	100
random	1	1	36	52108	1	1	1	1	0	685	1	4	0	8	36	0	0	100
random	1	1	37	53419	3	4	4	1	0	773	1	4	0	32	37	0	0	100
random	1	1	38	54859	5	3	3	1	0	1000	1	4	0	24	38	0	0	100
random	1	1	39	56889	6	1	1	1	0	666	1	4	0	8	39	0	0	100
random	1	1	40	57841	1	2	2	1	0	1090	1	4	0	16	40	0	0	100
random	1	1	41	59511	2	3	3	1	0	579	1	4	0	24	41	0	0	100
random	1	1	42	60437	4	4	4	1	0	692	1	4	0	32	42	0	0	100
random	1	1	43	61971	1	2	2	1	0	659	1	4	0	16	43	0	0	100
random	1	1	44	63288	6	3	3	1	0	595	1	4	0	24	44	0	0	100
random	1	1	45	64485	3	1	1	1	0	1016	1	4	0	8	45	0	0	100
random	1	1	46	65981	4	4	4	1	0	385	1	4	0	32	46	0	0	100
random	1	1	47	66758	2	2	2	1	0	624	1	4	0	16	47	0	0	100
random	1	1	48	68237	5	1	1	1	0	769	1	4	0	8	48	0	0	100
random	1	1	49	69709	2	3	3	1	0	987	1	4	0	24	49	0	0	100
random	1	1	50	71091	3	1	1	1	0	833	1	4	0	8	50	0	0	100
random	1	1	51	72534	1	4	4	1	0	795	1	4	0	32	51	0	0	100
random	1	1	52	73930	5	3	3	1	0	1113	1	4	0	24	52	0	0	100
random	1	1	53	75534	3	2	2	1	0	517	1	4	0	16	53	0	0	100
random	1	1	54	76328	6	4	4	1	0	771	1	4	0	32	54	0	0	100
random	1	1	55	77584	4	2	2	1	0	662	1	4	0	16	55	0	0	100
random	1	1	56	78800	1	1	1	1	0	594	1	4	0	8	56	0	0	100
random	1	1	57	80178	5	4	4	1	0	520	1	4	0	32	57	0	0	100
random	1	1	58	81044	2	1	1	1	0	683	1	4	0	8	58	0	0	100
random	1	1	59	82050	6	2	2	1	0	1169	1	4	0	16	59	0	0	100
random	1	1	60	83564	4	3	3	1	0	512	1	4	0	24	60	0	0	100
random	1	1	61	85197	1	2	2	1	0	747	1	4	0	16	61	0	0	100
random	1	1	62	86890	6	4	4	1	0	1108	1	4	0	32	62	0	0	100
random	1	1	63	88792	4	1	1	1	0	515	1	4	0	8	63	0	0	100
random	1	1	64	89788	2	2	2	1	0	1297	1	4	0	16	64	0	0	100
random	1	1	65	91589	4	3	3	1	0	1045	1	4	0	24	65	0	0	100
random	1	1	66	93329	3	1	1	1	0	859	1	4	0	8	66	0	0	100
random	1	1	67	95052	1	3	3	1	0	961	1	4	0	24	67	0	0	100
random	1	1	68	96802	5	4	4	1	0	880	1	4	0	32	68	0	0	100
random	1	1	69	98585	2	2	2	1	0	660	1	4	0	16	69	0	0	100
random	1	1	70	99865	3	1	1	1	0	830	1	4	0	8	70	0	0	100
random	1	1	71	101009	5	4	4	1	0	686	1	4	0	32	71	0	0	100
random	1	1	72	102340	6	3	3	1	0	845	1	4	0	24	72	0	0	100
random	1	1	73	103826	2	1	1	1	0	790	1	4	0	8	73	0	0	100
random	1	1	74	105140	5	3	3	2	0	1823	2	4	0	24	74	0	0	100
random	1	1	75	107814	1	4	4	1	0	718	1	4	0	32	75	0	0	100
random	1	1	76	109543	6	2	2	1	0	644	1	4	0	16	76	0	0	100
random	1	1	77	111180	2	1	1	1	0	759	1	4	0	8	77	0	0	100
random	1	1	78	112378	4	4	4	1	0	1060	1	4	0	32	78	0	0	100
random	1	1	79	114064	3	2	2	1	0	1205	1	4	0	16	79	0	0	100
random	1	1	80	115690	4	3	3	1	0	952	1	4	0	24	80	0	0	100
random	1	1	81	117651	1	4	4	1	0	557	1	4	0	32	81	0	0	100
random	1	1	82	119079	5	1	1	1	0	608	1	4	0	8	82	0	0	100
random	1	1	83	120647	3	2	2	1	0	806	1	4	0	16	83	0	0	100
random	1	1	84	122020	6	3	3	1	0	1027	1	4	0	24	84	0	0	100
random	1	1	85	124293	3	2	2	1	0	763	1	4	0	16	85	0	0	100
random	1	1	86	125508	1	3	3	1	0	848	1	4	0	24	86	0	0	100
random	1	1	87	126830	4	4	4	1	0	536	1	4	0	32	87	0	0	100
random	1	1	88	127669	2	1	1	1	0	572	1	4	0	8	88	0	0	100
random	1	1	89	129002	6	4	4	1	0	820	1	4	0	32	89	0	0	100
random	1	1	90	130687	3	3	3	1	0	1125	1	4	0	24	90	0	0	100
random	1	1	91	132644	5	4	4	1	0	793	1	4	0	32	91	0	0	100
random	1	1	92	133900	1	2	2	1	0	948	1	4	0	16	92	0	0	100
random	1	1	93	135843	5	1	1	1	0	802	1	4	0	8	93	0	0	100
random	1	1	94	137483	4	3	3	1	0	877	1	4	0	24	94	0	0	100
random	1	1	95	138809	6	1	1	1	0	1172	1	4	0	8	95	0	0	100
random	1	1	96	140904	2	2	2	1	0	588	1	4	0	16	96	0	0	100
random	1	1	97	142671	4	3	3	1	0	1065	1	4	0	24	97	0	0	100
random	1	1	98	144070	3	2	2	1	0	686	1	4	0	16	98	0	0	100
random	1	1	99	145523	6	3	3	1	0	1264	1	4	0	24	99	0	0	100
random	1	1	100	147517	1	4	4	1	0	723	1	4	0	32	100	0	0	100
random	1	1	101	148866	4	1	1	1	0	443	1	4	0	8	101	0	0	100
random	1	1	102	150308	5	2	2	1	0	805	1	4	0	16	102	0	0	100
random	1	1	103	151657	2	4	4	1	0	668	1	4	0	32	103	0	0	100
random	1	1	104	153205	3	1	1	1	0	899	1	4	0	8	104	0	0	100
random	1	1	105	154710	1	3	3	1	0	1835	1	4	0	24	105	0	0	100
random	1	1	106	157073	2	2	2	1	0	535	1	4	0	16	106	0	0	100
random	1	1	107	158195	5	4	4	1	0	751	1	4	0	32	107	0	0	100
random	1	1	108	159934	6	1	1	1	0	670	1	4	0	8	108	0	0	100
random	1	1	109	161501	5	4	4	1	0	683	1	4	0	32	109	0	0	100
random	1	1	110	162803	6	3	3	1	0	932	1	4	0	24	110	0	0	100
random	1	1	111	164455	2	2	2	1	0	463	1	4	0	16	111	0	0	100
random	1	1	112	165366	3	1	1	1	0	752	1	4	0	8	112	0	0	100
random	1	1	113	167120	1	2	2	1	0	957	1	4	0	16	113	0	0	100
random	1	1	114	168657	2	3	3	1	0	500	1	4	0	24	114	0	0	100
random	1	1	115	169897	3	1	1	1	0	712	1	4	0	8	115	0	0	100
random	1	1	116	171543	4	4	4	1	0	658	1	4	0	32	116	0	0	100
random	1	1	117	172715	6	1	1	1	0	688	1	4	0	8	117	0	0	100
random	1	1	118	174002	5	3	3	1	0	874	1	4	0	24	118	0	0	100
random	1	1	119	175672	1	4	4	1	0	667	1	4	0	32	119	0	0	100
random	1	1	120	176848	4	2	2	1	0	522	1	4	0	16	120	0	0	100
fixed	2	1	1	178373	4	1	1	1	0	712	1	4	0	40	1	0	0	100
fixed	2	1	2	179649	1	2	2	1	0	627	1	4	0	48	2	0	0	100
fixed	2	1	3	180790	6	4	4	1	0	827	1	4	0	64	3	0	0	100
fixed	2	1	4	182574	2	1	1	1	0	671	1	4	0	40	4	0	0	100
fixed	2	1	5	183832	5	3	3	1	0	858	1	4	0	56	5	0	0	100
fixed	2	1	6	184989	6	4	4	1	0	768	1	4	0	64	6	0	0	100
fixed	2	1	7	186083	3	1	1	1	0	682	1	4	0	40	7	0	0	100
fixed	2	1	8	187134	2	3	3	1	0	934	1	4	0	56	8	0	0	100
fixed	2	1	9	188642	3	2	2	1	0	478	1	4	0	48	9	0	0	100
fixed	2	1	10	190106	1	4	4	1	0	696	1	4	0	64	10	0	0	100
fixed	2	1	11	191825	5	2	2	1	0	679	1	4	0	48	11	0	0	100
fixed	2	1	12	193417	4	3	3	1	0	1108	1	4	0	56	12	0	0	100
fixed	2	2	1	195735	4	1	1	1	0	945	1	4	0	40	13	0	0	100
fixed	2	2	2	197185	1	2	2	1	0	908	1	4	0	48	14	0	0	100
fixed	2	2	3	198754	6	4	4	1	0	834	1	4	0	64	15	0	0	100
fixed	2	2	4	200077	2	1	1	1	0	825	1	4	0	40	16	0	0	100
fixed	2	2	5	201832	5	3	3	1	0	887	1	4	0	56	17	0	0	100
fixed	2	2	6	203691	6	4	4	1	0	736	1	4	0	64	18	0	0	100
fixed	2	2	7	205133	3	1	1	1	0	732	1	4	0	40	19	0	0	100
fixed	2	2	8	206557	2	3	3	1	0	1127	1	4	0	56	20	0	0	100
fixed	2	2	9	208146	3	2	2	1	0	635	1	4	0	48	21	0	0	100
fixed	2	2	10	209180	1	4	4	1	0	768	1	4	0	64	22	0	0	100
fixed	2	2	11	210313	5	2	2	1	0	2232	1	4	0	48	23	0	0	100
fixed	2	2	12	212958	4	3	3	1	0	1288	1	4	0	56	24	0	0	100
fixed	2	3	1	215032	4	1	1	1	0	632	1	4	0	40	25	0	0	100
fixed	2	3	2	216310	1	2	2	1	0	778	1	4	0	48	26	0	0	100
fixed	2	3	3	217588	6	4	4	1	0	780	1	4	0	64	27	0	0	100
fixed	2	3	4	218992	2	1	1	1	0	648	1	4	0	40	28	0	0	100
fixed	2	3	5	220673	5	3	3	1	0	809	1	4	0	56	29	0	0	100
fixed	2	3	6	222257	6	4	4	1	0	670	1	4	0	64	30	0	0	100
fixed	2	3	7	223222	3	1	1	1	0	997	1	4	0	40	31	0	0	100
fixed	2	3	8	225186	2	3	3	2	0	1866	2	4	0	56	32	0	0	100
fixed	2	3	9	227908	3	2	2	1	0	495	1	4	0	48	33	0	0	100
fixed	2	3	10	228884	1	4	4	1	0	757	1	4	0	64	34	0	0	100
fixed	2	3	11	230097	5	2	2	1	0	626	1	4	0	48	35	0	0	100
fixed	2	3	12	231186	4	3	3	1	0	604	1	4	0	56	36	0	0	100
fixed	2	4	1	233043	4	1	1	1	0	597	1	4	0	40	37	0	0	100
fixed	2	4	2	234648	1	2	2	1	0	937	1	4	0	48	38	0	0	100
fixed	2	4	3	236339	6	4	4	1	0	690	1	4	0	64	39	0	0	100
fixed	2	4	4	237383	2	1	1	1	0	758	1	4	0	40	40	0	0	100
fixed	2	4	5	238955	5	3	3	1	0	1051	1	4	0	56	41	0	0	100
fixed	2	4	6	240784	6	4	4	1	0	733	1	4	0	64	42	0	0	100
fixed	2	4	7	242186	3	1	1	1	0	466	1	4	0	40	43	0	0	100
fixed	2	4	8	243593	2	3	3	1	0	855	1	4	0	56	44	0	0	100
fixed	2	4	9	245027	3	2	2	1	0	562	1	4	0	48	45	0	0	100
fixed	2	4	10	246330	1	4	4	1	0	730	1	4	0	64	46	0	0	100
fixed	2	4	11	247366	5	2	2	1	0	783	1	4	0	48	47	0	0	100
fixed	2	4	12	248638	4	3	3	1	0	577	1	4	0	56	48	0	0	100
fixed	2	5	1	250185	4	1	1	1	0	591	1	4	0	40	49	0	0	100
fixed	2	5	2	251735	1	2	2	1	0	678	1	4	0	48	50	0	0	100
fixed	2	5	3	253255	6	4	4	1	0	717	1	4	0	64	51	0	0	100
fixed	2	5	4	254465	2	1	1	1	0	786	1	4	0	40	52	0	0	100
fixed	2	5	5	256254	5	3	3	1	0	726	1	4	0	56	53	0	0	100
fixed	2	5	6	257390	6	4	4	1	0	654	1	4	0	64	54	0	0	100
fixed	2	5	7	258490	3	1	1	1	0	879	1	4	0	40	55	0	0	100
fixed	2	5	8	260065	2	3	3	1	0	1077	1	4	0	56	56	0	0	100
fixed	2	5	9	261783	3	2	2	1	0	516	1	4	0	48	57	0	0	100
fixed	2	5	10	262719	1	4	4	1	0	692	1	4	0	64	58	0	0	100
fixed	2	5	11	264393	5	2	2	1	0	701	1	4	0	48	59	0	0	100
fixed	2	5	12	265500	4	3	3	1	0	735	1	4	0	56	60	0	0	100
fixed	2	6	1	267294	4	1	1	1	0	866	1	4	0	40	61	0	0	100
fixed	2	6	2	269090	1	2	2	2	0	1151	2	4	0	48	62	0	0	100
fixed	2	6	3	270565	6	4	4	1	0	712	1	4	0	64	63	0	0	100
fixed	2	6	4	272169	2	1	1	1	0	948	1	4	0	40	64	0	0	100
fixed	2	6	5	273850	5	3	3	1	0	829	1	4	0	56	65	0	0	100
fixed	2	6	6	275378	6	4	4	1	0	604	1	4	0	64	66	0	0	100
fixed	2	6	7	276552	3	1	1	1	0	874	1	4	0	40	67	0	0	100
fixed	2	6	8	277776	2	3	3	1	0	1151	1	4	0	56	68	0	0	100
fixed	2	6	9	279400	3	2	2	1	0	722	1	4	0	48	69	0	0	100
fixed	2	6	10	280965	1	4	4	1	0	639	1	4	0	64	70	0	0	100
fixed	2	6	11	281990	5	2	2	1	0	796	1	4	0	48	71	0	0	100
fixed	2	6	12	283340	4	3	3	1	0	947	1	4	0	56	72	0	0	100
fixed	2	7	1	285188	4	1	1	1	0	652	1	4	0	40	73	0	0	100
fixed	2	7	2	286206	1	2	2	1	0	1105	1	4	0	48	74	0	0	100
fixed	2	7	3	287755	6	4	4	1	0	704	1	4	0	64	75	0	0	100
fixed	2	7	4	289103	2	1	1	1	0	1351	1	4	0	40	76	0	0	100
fixed	2	7	5	291385	5	3	3	1	0	790	1	4	0	56	77	0	0	100
fixed	2	7	6	292821	6	4	4	1	0	609	1	4	0	64	78	0	0	100
fixed	2	7	7	294275	3	1	1	1	0	668	1	4	0	40	79	0	0	100
fixed	2	7	8	295814	2	3	3	1	0	898	1	4	0	56	80	0	0	100
fixed	2	7	9	297361	3	2	2	1	0	657	1	4	0	48	81	0	0	100
fixed	2	7	10	298990	1	4	4	1	0	908	1	4	0	64	82	0	0	100
fixed	2	7	11	300281	5	2	2	1	0	661	1	4	0	48	83	0	0	100
fixed	2	7	12	301242	4	3	3	1	0	716	1	4	0	56	84	0	0	100
fixed	2	8	1	302547	4	1	1	1	0	701	1	4	0	40	85	0	0	100
fixed	2	8	2	304171	1	2	2	1	0	945	1	4	0	48	86	0	0	100
fixed	2	8	3	305732	6	4	4	1	0	671	1	4	0	64	87	0	0	100
fixed	2	8	4	306737	2	1	1	1	0	748	1	4	0	40	88	0	0	100
fixed	2	8	5	308025	5	3	3	2	0	1109	2	4	0	56	89	0	0	100
fixed	2	8	6	309528	6	4	4	1	0	973	1	4	0	64	90	0	0	100
fixed	2	8	7	310897	3	1	1	1	0	764	1	4	0	40	91	0	0	100
fixed	2	8	8	312105	2	3	3	1	0	1352	1	4	0	56	92	0	0	100
fixed	2	8	9	314270	3	2	2	1	0	493	1	4	0	48	93	0	0	100
fixed	2	8	10	315396	1	4	4	1	0	613	1	4	0	64	94	0	0	100
fixed	2	8	11	316835	5	2	2	1	0	744	1	4	0	48	95	0	0	100
fixed	2	8	12	318275	4	3	3	1	0	963	1	4	0	56	96	0	0	100
fixed	2	9	1	320023	4	1	1	1	0	657	1	4	0	40	97	0	0	100
fixed	2	9	2	321688	1	2	2	1	0	1075	1	4	0	48	98	0	0	100
fixed	2	9	3	323258	6	4	4	1	0	760	1	4	0	64	99	0	0	100
fixed	2	9	4	325032	2	1	1	1	0	741	1	4	0	40	100	0	0	100
fixed	2	9	5	326500	5	3	3	1	0	1559	1	4	0	56	101	0	0	100
fixed	2	9	6	328906	6	4	4	1	0	1705	1	4	0	64	102	0	0	100
fixed	2	9	7	330998	3	1	1	1	0	632	1	4	0	40	103	0	0	100
fixed	2	9	8	332412	2	3	3	1	0	949	1	4	0	56	104	0	0	100
fixed	2	9	9	334132	3	2	2	1	0	484	1	4	0	48	105	0	0	100
fixed	2	9	10	335115	1	4	4	1	0	818	1	4	0	64	106	0	0	100
fixed	2	9	11	336787	5	2	2	1	0	883	1	4	0	48	107	0	0	100
fixed	2	9	12	338580	4	3	3	1	0	784	1	4	0	56	108	0	0	100
fixed	2	10	1	340373	4	1	1	1	0	715	1	4	0	40	109	0	0	100
fixed	2	10	2	341858	1	2	2	1	0	980	1	4	0	48	110	0	0	100
fixed	2	10	3	343239	6	4	4	1	0	730	1	4	0	64	111	0	0	100
fixed	2	10	4	344563	2	1	1	1	0	818	1	4	0	40	112	0	0	100
fixed	2	10	5	346214	5	3	3	1	0	876	1	4	0	56	113	0	0	100
fixed	2	10	6	347622	6	4	4	1	0	744	1	4	0	64	114	0	0	100
fixed	2	10	7	348942	3	1	1	1	0	704	1	4	0	40	115	0	0	100
fixed	2	10	8	350397	2	3	3	1	0	715	1	4	0	56	116	0	0	100
fixed	2	10	9	352072	3	2	2	1	0	828	1	4	0	48	117	0	0	100
fixed	2	10	10	353903	1	4	4	1	0	695	1	4	0	64	118	0	0	100
fixed	2	10	11	355463	5	2	2	1	0	724	1	4	0	48	119	0	0	100
fixed	2	10	12	356627	4	3	3	1	0	787	1	4	0	56	120	0	0	100
fixed	3	1	1	358632	4	1	1	1	0	870	1	4	0	72	1	0	0	100
fixed	3	1	2	360408	1	2	2	1	0	635	1	4	0	80	2	0	0	100
fixed	3	1	3	361376	6	4	4	1	0	762	1	4	0	96	3	0	0	100
fixed	3	1	4	363088	2	1	1	1	0	641	1	4	0	72	4	0	0	100
fixed	3	1	5	364318	5	3	3	2	0	1181	2	4	0	88	5	0	0	100
fixed	3	1	6	365793	6	4	4	1	0	727	1	4	0	96	6	0	0	100
fixed	3	1	7	367463	3	1	1	1	0	728	1	4	0	72	7	0	0	100
fixed	3	1	8	368861	2	3	3	1	0	1093	1	4	0	88	8	0	0	100
fixed	3	1	9	370906	3	2	2	2	0	998	2	4	0	80	9	0	0	100
fixed	3	1	10	372525	1	4	4	1	0	674	1	4	0	96	10	0	0	100
fixed	3	1	11	373700	5	2	2	1	0	1032	1	4	0	80	11	0	0	100
fixed	3	1	12	375206	4	3	3	1	0	992	1	4	0	88	12	0	0	100
fixed	3	2	1	376846	4	1	1	1	0	634	1	4	0	72	13	0	0	100
fixed	3	2	2	378162	1	2	2	1	0	851	1	4	0	80	14	0	0	100
fixed	3	2	3	379453	6	4	4	1	0	740	1	4	0	96	15	0	0	100
fixed	3	2	4	381011	2	1	1	1	0	754	1	4	0	72	16	0	0	100
fixed	3	2	5	382093	5	3	3	1	0	1076	1	4	0	88	17	0	0	100
fixed	3	2	6	383769	6	4	4	1	0	717	1	4	0	96	18	0	0	100
fixed	3	2	7	385023	3	1	1	1	0	776	1	4	0	72	19	0	0	100
fixed	3	2	8	386819	2	3	3	1	0	964	1	4	0	88	20	0	0	100
fixed	3	2	9	388709	3	2	2	1	0	796	1	4	0	80	21	0	0	100
fixed	3	2	10	390170	1	4	4	1	0	934	1	4	0	96	22	0	0	100
fixed	3	2	11	391422	5	2	2	1	0	785	1	4	0	80	23	0	0	100
fixed	3	2	12	392562	4	3	3	1	0	705	1	4	0	88	24	0	0	100
fixed	3	3	1	394172	4	1	1	1	0	1396	1	4	0	72	25	0	0	100
fixed	3	3	2	396535	1	2	2	1	0	921	1	4	0	80	26	0	0	100
fixed	3	3	3	397921	6	4	4	1	0	662	1	4	0	96	27	0	0	100
fixed	3	3	4	398989	2	1	1	1	0	705	1	4	0	72	28	0	0	100
fixed	3	3	5	400516	5	3	3	1	0	952	1	4	0	88	29	0	0	100
fixed	3	3	6	402093	6	4	4	1	0	669	1	4	0	96	30	0	0	100
fixed	3	3	7	403742	3	1	1	1	0	680	1	4	0	72	31	0	0	100
fixed	3	3	8	405263	2	3	3	1	0	799	1	4	0	88	32	0	0	100
fixed	3	3	9	406716	3	2	2	1	0	585	1	4	0	80	33	0	0	100
fixed	3	3	10	407732	1	4	4	1	0	711	1	4	0	96	34	0	0	100
fixed	3	3	11	408925	5	2	2	1	0	1236	1	4	0	80	35	0	0	100
fixed	3	3	12	410830	4	3	3	1	0	907	1	4	0	88	36	0	0	100
fixed	3	4	1	412299	4	1	1	1	0	589	1	4	0	72	37	0	0	100
fixed	3	4	2	413865	1	2	2	1	0	1051	1	4	0	80	38	0	0	100
fixed	3	4	3	415777	6	4	4	1	0	649	1	4	0	96	39	0	0	100
fixed	3	4	4	416762	2	1	1	1	0	760	1	4	0	72	40	0	0	100
fixed	3	4	5	417954	5	3	3	1	0	918	1	4	0	88	41	0	0	100
fixed	3	4	6	419811	6	4	4	1	0	1055	1	4	0	96	42	0	0	100
fixed	3	4	7	421656	3	1	1	1	0	744	1	4	0	72	43	0	0	100
fixed	3	4	8	423159	2	3	3	2	0	1153	2	4	0	88	44	0	0	100
fixed	3	4	9	424629	3	2	2	1	0	714	1	4	0	80	45	0	0	100
fixed	3	4	10	425968	1	4	4	1	0	706	1	4	0	96	46	0	0	100
fixed	3	4	11	427275	5	2	2	1	0	707	1	4	0	80	47	0	0	100
fixed	3	4	12	428961	4	3	3	1	0	1027	1	4	0	88	48	0	0	100
fixed	3	5	1	431212	4	1	1	1	0	604	1	4	0	72	49	0	0	100
fixed	3	5	2	432348	1	2	2	1	0	1211	1	4	0	80	50	0	0	100
fixed	3	5	3	434011	6	4	4	1	0	917	1	4	0	96	51	0	0	100
fixed	3	5	4	435809	2	1	1	1	0	833	1	4	0	72	52	0	0	100
fixed	3	5	5	437404	5	3	3	1	0	926	1	4	0	88	53	0	0	100
fixed	3	5	6	438830	6	4	4	1	0	729	1	4	0	96	54	0	0	100
fixed	3	5	7	440593	3	1	1	1	0	575	1	4	0	72	55	0	0	100
fixed	3	5	8	441508	2	3	3	1	0	760	1	4	0	88	56	0	0	100
fixed	3	5	9	442974	3	2	2	1	0	897	1	4	0	80	57	0	0	100
fixed	3	5	10	444627	1	4	4	1	0	731	1	4	0	96	58	0	0	100
fixed	3	5	11	446086	5	2	2	1	0	662	1	4	0	80	59	0	0	100
fixed	3	5	12	447615	4	3	3	1	0	1061	1	4	0	88	60	0	0	100
fixed	3	6	1	449658	4	1	1	1	0	582	1	4	0	72	61	0	0	100
fixed	3	6	2	450528	1	2	2	1	0	826	1	4	0	80	62	0	0	100
fixed	3	6	3	451970	6	4	4	1	0	765	1	4	0	96	63	0	0	100
fixed	3	6	4	453077	2	1	1	1	0	1118	1	4	0	72	64	0	0	100
fixed	3	6	5	455216	5	3	3	1	0	772	1	4	0	88	65	0	0	100
fixed	3	6	6	456984	6	4	4	1	0	689	1	4	0	96	66	0	0	100
fixed	3	6	7	458609	3	1	1	1	0	756	1	4	0	72	67	0	0	100
fixed	3	6	8	459894	2	3	3	2	0	997	2	4	0	88	68	0	0	100
fixed	3	6	9	461417	3	2	2	1	0	572	1	4	0	80	69	0	0	100
fixed	3	6	10	462832	1	4	4	1	0	705	1	4	0	96	70	0	0	100
fixed	3	6	11	463974	5	2	2	1	0	720	1	4	0	80	71	0	0	100
fixed	3	6	12	465355	4	3	3	1	0	950	1	4	0	88	72	0	0	100
fixed	3	7	1	467034	4	1	1	1	0	838	1	4	0	72	73	0	0	100
fixed	3	7	2	468221	1	2	2	1	0	1220	1	4	0	80	74	0	0	100
fixed	3	7	3	470132	6	4	4	1	0	771	1	4	0	96	75	0	0	100
fixed	3	7	4	471880	2	1	1	1	0	1065	1	4	0	72	76	0	0	100
fixed	3	7	5	473729	5	3	3	1	0	955	1	4	0	88	77	0	0	100
fixed	3	7	6	475163	6	4	4	1	0	1014	1	4	0	96	78	0	0	100
fixed	3	7	7	477042	3	1	1	1	0	711	1	4	0	72	79	0	0	100
fixed	3	7	8	478446	2	3	3	1	0	875	1	4	0	88	80	0	0	100
fixed	3	7	9	479979	3	2	2	1	0	818	1	4	0	80	81	0	0	100
fixed	3	7	10	481476	1	4	4	1	0	619	1	4	0	96	82	0	0	100
fixed	3	7	11	482581	5	2	2	1	0	900	1	4	0	80	83	0	0	100
fixed	3	7	12	484008	4	3	3	1	0	599	1	4	0	88	84	0	0	100
fixed	3	8	1	485228	4	1	1	1	0	604	1	4	0	72	85	0	0	100
fixed	3	8	2	486297	1	2	2	1	0	983	1	4	0	80	86	0	0	100
fixed	3	8	3	487900	6	4	4	1	0	643	1	4	0	96	87	0	0	100
fixed	3	8	4	489233	2	1	1	1	0	643	1	4	0	72	88	0	0	100
fixed	3	8	5	490771	5	3	3	1	0	778	1	4	0	88	89	0	0	100
fixed	3	8	6	492432	6	4	4	1	0	883	1	4	0	96	90	0	0	100
fixed	3	8	7	493724	3	1	1	1	0	740	1	4	0	72	91	0	0	100
fixed	3	8	8	494855	2	3	3	1	0	884	1	4	0	88	92	0	0	100
fixed	3	8	9	496108	3	2	2	1	0	663	1	4	0	80	93	0	0	100
fixed	3	8	10	497161	1	4	4	1	0	859	1	4	0	96	94	0	0	100
fixed	3	8	11	498779	5	2	2	1	0	742	1	4	0	80	95	0	0	100
fixed	3	8	12	499900	4	3	3	1	0	902	1	4	0	88	96	0	0	100
fixed	3	9	1	502070	4	1	1	1	0	1003	1	4	0	72	97	0	0	100
fixed	3	9	2	504004	1	2	2	1	0	681	1	4	0	80	98	0	0	100
fixed	3	9	3	505635	6	4	4	1	0	732	1	4	0	96	99	0	0	100
fixed	3	9	4	506721	2	1	1	1	0	1134	1	4	0	72	100	0	0	100
fixed	3	9	5	508199	5	3	3	1	0	792	1	4	0	88	101	0	0	100
fixed	3	9	6	509596	6	4	4	1	0	740	1	4	0	96	102	0	0	100
fixed	3	9	7	510784	3	1	1	1	0	754	1	4	0	72	103	0	0	100
fixed	3	9	8	512369	2	3	3	1	0	1439	1	4	0	88	104	0	0	100
fixed	3	9	9	514395	3	2	2	1	0	737	1	4	0	80	105	0	0	100
fixed	3	9	10	516149	1	4	4	1	0	687	1	4	0	96	106	0	0	100
fixed	3	9	11	517765	5	2	2	1	0	666	1	4	0	80	107	0	0	100
fixed	3	9	12	519191	4	3	3	1	0	1286	1	4	0	88	108	0	0	100
fixed	3	10	1	521384	4	1	1	1	0	584	1	4	0	72	109	0	0	100
fixed	3	10	2	522649	1	2	2	1	0	971	1	4	0	80	110	0	0	100
fixed	3	10	3	524158	6	4	4	1	0	619	1	4	0	96	111	0	0	100
fixed	3	10	4	525477	2	1	1	1	0	715	1	4	0	72	112	0	0	100
fixed	3	10	5	527152	5	3	3	1	0	628	1	4	0	88	113	0	0	100
fixed	3	10	6	528520	6	4	4	1	0	666	1	4	0	96	114	0	0	100
fixed	3	10	7	529478	3	1	1	1	0	706	1	4	0	72	115	0	0	100
fixed	3	10	8	530948	2	3	3	1	0	1044	1	4	0	88	116	0	0	100
fixed	3	10	9	532994	3	2	2	1	0	597	1	4	0	80	117	0	0	100
fixed	3	10	10	534135	1	4	4	1	0	780	1	4	0	96	118	0	0	100
fixed	3	10	11	535462	5	2	2	1	0	661	1	4	0	80	119	0	0	100
fixed	3	10	12	537139	4	3	3	1	0	1005	1	4	0	88	120	0	0	100
fixed	4	1	1	945455	4	1	1	1	0	991	1	4	0	104	1	0	0	100
fixed	4	1	2	947279	1	2	2	1	0	850	1	4	0	112	2	0	0	100
fixed	4	1	3	948947	6	4	4	1	0	571	1	4	0	128	3	0	0	100
fixed	4	1	4	949860	2	1	1	1	0	637	1	4	0	104	4	0	0	100
fixed	4	1	5	950880	5	3	3	1	0	786	1	4	0	120	5	0	0	100
fixed	4	1	6	951969	6	4	4	1	0	692	1	4	0	128	6	0	0	100
fixed	4	1	7	953235	3	1	1	1	0	806	1	4	0	104	7	0	0	100
fixed	4	1	8	954859	2	3	3	1	0	985	1	4	0	120	8	0	0	100
fixed	4	1	9	956292	3	2	2	1	0	532	1	4	0	112	9	0	0	100
fixed	4	1	10	957249	1	4	4	1	0	740	1	4	0	128	10	0	0	100
fixed	4	1	11	958371	5	2	2	1	0	660	1	4	0	112	11	0	0	100
fixed	4	1	12	959434	4	3	3	1	0	863	1	4	0	120	12	0	0	100
fixed	4	2	1	961012	4	1	1	1	0	468	1	4	0	104	13	0	0	100
fixed	4	2	2	962241	1	2	2	1	0	601	1	4	0	112	14	0	0	100
fixed	4	2	3	963182	6	4	4	1	0	608	1	4	0	128	15	0	0	100
fixed	4	2	4	964332	2	1	1	1	0	664	1	4	0	104	16	0	0	100
fixed	4	2	5	965425	5	3	3	1	0	921	1	4	0	120	17	0	0	100
fixed	4	2	6	967337	6	4	4	1	0	569	1	4	0	128	18	0	0	100
fixed	4	2	7	968365	3	1	1	1	0	693	1	4	0	104	19	0	0	100
fixed	4	2	8	969826	2	3	3	1	0	1191	1	4	0	120	20	0	0	100
fixed	4	2	9	971358	3	2	2	1	0	502	1	4	0	112	21	0	0	100
fixed	4	2	10	972902	1	4	4	1	0	669	1	4	0	128	22	0	0	100
fixed	4	2	11	973974	5	2	2	1	0	727	1	4	0	112	23	0	0	100
fixed	4	2	12	975314	4	3	3	1	0	1094	1	4	0	120	24	0	0	100
fixed	4	3	1	977135	4	1	1	1	0	537	1	4	0	104	25	0	0	100
fixed	4	3	2	978569	1	2	2	2	0	1284	2	4	0	112	26	0	0	100
fixed	4	3	3	980432	6	4	4	1	0	582	1	4	0	128	27	0	0	100
fixed	4	3	4	981978	2	1	1	1	0	636	1	4	0	104	28	0	0	100
fixed	4	3	5	983529	5	3	3	1	0	859	1	4	0	120	29	0	0	100
fixed	4	3	6	984934	6	4	4	1	0	768	1	4	0	128	30	0	0	100
fixed	4	3	7	986251	3	1	1	1	0	544	1	4	0	104	31	0	0	100
fixed	4	3	8	987534	2	3	3	1	0	801	1	4	0	120	32	0	0	100
fixed	4	3	9	988999	3	2	2	2	0	619	2	4	0	112	33	0	0	100
fixed	4	3	10	990489	1	4	4	1	0	588	1	4	0	128	34	0	0	100
fixed	4	3	11	991857	5	2	2	1	0	650	1	4	0	112	35	0	0	100
fixed	4	3	12	993209	4	3	3	1	0	737	1	4	0	120	36	0	0	100
fixed	4	4	1	994945	4	1	1	1	0	471	1	4	0	104	37	0	0	100
fixed	4	4	2	996161	1	2	2	1	0	644	1	4	0	112	38	0	0	100
fixed	4	4	3	997669	6	4	4	1	0	596	1	4	0	128	39	0	0	100
fixed	4	4	4	999133	2	1	1	1	0	694	1	4	0	104	40	0	0	100
fixed	4	4	5	1000509	5	3	3	1	0	715	1	4	0	120	41	0	0	100
fixed	4	4	6	1002041	6	4	4	1	0	635	1	4	0	128	42	0	0	100
fixed	4	4	7	1003527	3	1	1	1	0	732	1	4	0	104	43	0	0	100
fixed	4	4	8	1005146	2	3	3	1	0	903	1	4	0	120	44	0	0	100
fixed	4	4	9	1006430	3	2	2	1	0	497	1	4	0	112	45	0	0	100
fixed	4	4	10	1007247	1	4	4	1	0	558	1	4	0	128	46	0	0	100
fixed	4	4	11	1008731	5	2	2	1	0	551	1	4	0	112	47	0	0	100
fixed	4	4	12	1010053	4	3	3	1	0	1327	1	4	0	120	48	0	0	100
fixed	4	5	1	1012371	4	1	1	1	0	781	1	4	0	104	49	0	0	100
fixed	4	5	2	1013892	1	2	2	1	0	884	1	4	0	112	50	0	0	100
fixed	4	5	3	1015130	6	4	4	1	0	656	1	4	0	128	51	0	0	100
fixed	4	5	4	1016149	2	1	1	1	0	1125	1	4	0	104	52	0	0	100
fixed	4	5	5	1018121	5	3	3	1	0	865	1	4	0	120	53	0	0	100
fixed	4	5	6	1019564	6	4	4	1	0	613	1	4	0	128	54	0	0	100
fixed	4	5	7	1020473	3	1	1	1	0	702	1	4	0	104	55	0	0	100
fixed	4	5	8	1021777	2	3	3	1	0	678	1	4	0	120	56	0	0	100
fixed	4	5	9	1023307	3	2	2	1	0	590	1	4	0	112	57	0	0	100
fixed	4	5	10	1024883	1	4	4	1	0	755	1	4	0	128	58	0	0	100
fixed	4	5	11	1026185	5	2	2	1	0	716	1	4	0	112	59	0	0	100
fixed	4	5	12	1027521	4	3	3	1	0	940	1	4	0	120	60	0	0	100
fixed	4	6	1	1029597	4	1	1	1	0	763	1	4	0	104	61	0	0	100
fixed	4	6	2	1030728	1	2	2	1	0	1044	1	4	0	112	62	0	0	100
fixed	4	6	3	1032464	6	4	4	1	0	690	1	4	0	128	63	0	0	100
fixed	4	6	4	1033670	2	1	0	1	2	0	3	4	0	104	63	0	1	98
fixed	4	6	5	1036594	5	3	3	1	0	939	1	4	0	120	64	0	1	98
fixed	4	6	6	1037860	6	4	4	1	0	678	1	4	0	128	65	0	1	98
fixed	4	6	7	1038970	3	1	1	2	0	926	2	4	0	104	66	0	1	99
fixed	4	6	8	1040826	2	3	3	1	0	1064	1	4	0	120	67	0	1	99
fixed	4	6	9	1042659	3	2	2	1	0	515	1	4	0	112	68	0	1	99
fixed	4	6	10	1043622	1	4	4	1	0	666	1	4	0	128	69	0	1	99
fixed	4	6	11	1044615	5	2	2	1	0	679	1	4	0	112	70	0	1	99
fixed	4	6	12	1046149	4	3	3	1	0	887	1	4	0	120	71	0	1	99
fixed	4	7	1	1047925	4	1	1	1	0	459	1	4	0	104	72	0	1	99
fixed	4	7	2	1049063	1	2	2	1	0	1027	1	4	0	112	73	0	1	99
fixed	4	7	3	1050527	6	4	4	1	0	725	1	4	0	128	74	0	1	99
fixed	4	7	4	1051546	2	1	1	1	0	786	1	4	0	104	75	0	1	99
fixed	4	7	5	1053163	5	3	3	1	0	677	1	4	0	120	76	0	1	99
fixed	4	7	6	1054869	6	4	4	1	0	605	1	4	0	128	77	0	1	99
fixed	4	7	7	1055950	3	1	1	1	0	807	1	4	0	104	78	0	1	99
fixed	4	7	8	1057593	2	3	3	1	0	738	1	4	0	120	79	0	1	99
fixed	4	7	9	1058644	3	2	2	1	0	620	1	4	0	112	80	0	1	99
fixed	4	7	10	1060214	1	4	4	1	0	1075	1	4	0	128	81	0	1	99
fixed	4	7	11	1062008	5	2	2	1	0	670	1	4	0	112	82	0	1	99
fixed	4	7	12	1063609	4	3	3	1	0	683	1	4	0	120	83	0	1	99
fixed	4	8	1	1065418	4	1	1	1	0	742	1	4	0	104	84	0	1	99
fixed	4	8	2	1066729	1	2	2	1	0	751	1	4	0	112	85	0	1	99
fixed	4	8	3	1068408	6	4	4	1	0	687	1	4	0	128	86	0	1	99
fixed	4	8	4	1069539	2	1	1	1	0	696	1	4	0	104	87	0	1	99
fixed	4	8	5	1071052	5	3	3	1	0	912	1	4	0	120	88	0	1	99
fixed	4	8	6	1072739	6	4	4	1	0	600	1	4	0	128	89	0	1	99
fixed	4	8	7	1074022	3	1	1	1	0	786	1	4	0	104	90	0	1	99
fixed	4	8	8	1075659	2	3	3	1	0	1156	1	4	0	120	91	0	1	99
fixed	4	8	9	1077794	3	2	2	1	0	498	1	4	0	112	92	0	1	99
fixed	4	8	10	1078911	1	4	4	1	0	723	1	4	0	128	93	0	1	99
fixed	4	8	11	1080566	5	2	2	1	0	973	1	4	0	112	94	0	1	99
fixed	4	8	12	1082265	4	3	3	1	0	821	1	4	0	120	95	0	1	99
fixed	4	9	1	1084097	4	1	1	1	0	511	1	4	0	104	96	0	1	99
fixed	4	9	2	1085455	1	2	2	1	0	710	1	4	0	112	97	0	1	99
fixed	4	9	3	1087016	6	4	4	1	0	668	1	4	0	128	98	0	1	99
fixed	4	9	4	1088355	2	1	1	1	0	987	1	4	0	104	99	0	1	99
fixed	4	9	5	1089995	5	3	3	1	0	869	1	4	0	120	100	0	1	99
fixed	4	9	6	1091351	6	4	4	1	0	660	1	4	0	128	101	0	1	99
fixed	4	9	7	1092867	3	1	1	1	0	747	1	4	0	104	102	0	1	99
fixed	4	9	8	1094481	2	3	3	1	0	911	1	4	0	120	103	0	1	99
fixed	4	9	9	1095910	3	2	2	1	0	755	1	4	0	112	104	0	1	99
fixed	4	9	10	1097525	1	4	4	1	0	727	1	4	0	128	105	0	1	99
fixed	4	9	11	1099241	5	2	2	1	0	718	1	4	0	112	106	0	1	99
fixed	4	9	12	1100764	4	3	3	1	0	989	1	4	0	120	107	0	1	99
fixed	4	10	1	1102509	4	1	1	1	0	523	1	4	0	104	108	0	1	99
fixed	4	10	2	1103789	1	2	2	1	0	725	1	4	0	112	109	0	1	99
fixed	4	10	3	1104874	6	4	4	1	0	679	1	4	0	128	110	0	1	99
fixed	4	10	4	1106372	2	1	1	1	0	816	1	4	0	104	111	0	1	99
fixed	4	10	5	1108133	5	3	3	1	0	733	1	4	0	120	112	0	1	99
fixed	4	10	6	1109363	6	4	4	1	0	625	1	4	0	128	113	0	1	99
fixed	4	10	7	1110928	3	1	1	1	0	814	1	4	0	104	114	0	1	99
fixed	4	10	8	1112573	2	3	3	1	0	849	1	4	0	120	115	0	1	99
fixed	4	10	9	1114026	3	2	2	1	0	780	1	4	0	112	116	0	1	99
fixed	4	10	10	1115407	1	4	4	1	0	1001	1	4	0	128	117	0	1	99
fixed	4	10	11	1117066	5	2	2	1	0	851	1	4	0	112	118	0	1	99
fixed	4	10	12	1118614	4	3	3	1	0	873	1	4	0	120	119	0	1	99
fixed	5	1	1	1120467	4	1	1	1	0	586	1	4	0	136	1	0	0	100
fixed	5	1	2	1121866	1	2	2	2	0	1224	2	4	0	144	2	0	0	100
fixed	5	1	3	1123730	6	4	4	1	0	640	1	4	0	160	3	0	0	100
fixed	5	1	4	1124859	2	1	1	1	0	817	1	4	0	136	4	0	0	100
fixed	5	1	5	1126009	5	3	3	1	0	824	1	4	0	152	5	0	0	100
fixed	5	1	6	1127119	6	4	4	1	0	681	1	4	0	160	6	0	0	100
fixed	5	1	7	1128639	3	1	1	1	0	848	1	4	0	136	7	0	0	100
fixed	5	1	8	1130184	2	3	3	1	0	727	1	4	0	152	8	0	0	100
fixed	5	1	9	1131663	3	2	2	1	0	592	1	4	0	144	9	0	0	100
fixed	5	1	10	1133140	1	4	4	1	0	674	1	4	0	160	10	0	0	100
fixed	5	1	11	1134730	5	2	2	1	0	831	1	4	0	144	11	0	0	100
fixed	5	1	12	1136376	4	3	3	1	0	753	1	4	0	152	12	0	0	100
fixed	5	2	1	1138247	4	1	1	1	0	617	1	4	0	136	13	0	0	100
fixed	5	2	2	1139496	1	2	2	1	0	749	1	4	0	144	14	0	0	100
fixed	5	2	3	1141116	6	4	4	1	0	616	1	4	0	160	15	0	0	100
fixed	5	2	4	1142511	2	1	1	1	0	733	1	4	0	136	16	0	0	100
fixed	5	2	5	1143587	5	3	3	1	0	856	1	4	0	152	17	0	0	100
fixed	5	2	6	1145380	6	4	4	1	0	691	1	4	0	160	18	0	0	100
fixed	5	2	7	1146497	3	1	1	1	0	845	1	4	0	136	19	0	0	100
fixed	5	2	8	1147959	2	3	3	1	0	1038	1	4	0	152	20	0	0	100
fixed	5	2	9	1149805	3	2	2	1	0	840	1	4	0	144	21	0	0	100
fixed	5	2	10	1151503	1	4	4	1	0	664	1	4	0	160	22	0	0	100
fixed	5	2	11	1152716	5	2	2	1	0	733	1	4	0	144	23	0	0	100
fixed	5	2	12	1154467	4	3	3	1	0	779	1	4	0	152	24	0	0	100
fixed	5	3	1	1156241	4	1	1	1	0	911	1	4	0	136	25	0	0	100
fixed	5	3	2	1158006	1	2	2	1	0	717	1	4	0	144	26	0	0	100
fixed	5	3	3	1159044	6	4	4	1	0	657	1	4	0	160	27	0	0	100
fixed	5	3	4	1160402	2	1	1	1	0	727	1	4	0	136	28	0	0	100
fixed	5	3	5	1161859	5	3	3	1	0	722	1	4	0	152	29	0	0	100
fixed	5	3	6	1162950	6	4	4	1	0	628	1	4	0	160	30	0	0	100
fixed	5	3	7	1164284	3	1	1	1	0	795	1	4	0	136	31	0	0	100
fixed	5	3	8	1165606	2	3	3	2	0	963	2	4	0	152	32	0	0	100
fixed	5	3	9	1167547	3	2	2	1	0	609	1	4	0	144	33	0	0	100
fixed	5	3	10	1168861	1	4	4	1	0	745	1	4	0	160	34	0	0	100
fixed	5	3	11	1170519	5	2	2	1	0	755	1	4	0	144	35	0	0	100
fixed	5	3	12	1171847	4	3	3	1	0	586	1	4	0	152	36	0	0	100
fixed	5	4	1	1173216	4	1	1	1	0	992	1	4	0	136	37	0	0	100
fixed	5	4	2	1174558	1	2	2	2	0	1552	2	4	0	144	38	0	0	100
fixed	5	4	3	1176750	6	4	4	1	0	595	1	4	0	160	39	0	0	100
fixed	5	4	4	1177830	2	1	1	1	0	669	1	4	0	136	40	0	0	100
fixed	5	4	5	1179172	5	3	3	1	0	948	1	4	0	152	41	0	0	100
fixed	5	4	6	1180920	6	4	4	1	0	618	1	4	0	160	42	0	0	100
fixed	5	4	7	1182168	3	1	1	1	0	1014	1	4	0	136	43	0	0	100
fixed	5	4	8	1184191	2	3	3	1	0	1207	1	4	0	152	44	0	0	100
fixed	5	4	9	1186018	3	2	2	1	0	538	1	4	0	144	45	0	0	100
fixed	5	4	10	1187049	1	4	4	1	0	638	1	4	0	160	46	0	0	100
fixed	5	4	11	1187998	5	2	2	1	0	759	1	4	0	144	47	0	0	100
fixed	5	4	12	1189130	4	3	3	1	0	935	1	4	0	152	48	0	0	100
fixed	5	5	1	1190909	4	1	1	1	0	707	1	4	0	136	49	0	0	100
fixed	5	5	2	1191931	1	2	2	1	0	840	1	4	0	144	50	0	0	100
fixed	5	5	3	1193749	6	4	4	1	0	643	1	4	0	160	51	0	0	100
fixed	5	5	4	1194915	2	1	1	1	0	706	1	4	0	136	52	0	0	100
fixed	5	5	5	1195915	5	3	3	1	0	751	1	4	0	152	53	0	0	100
fixed	5	5	6	1197110	6	4	4	1	0	652	1	4	0	160	54	0	0	100
fixed	5	5	7	1198206	3	1	1	1	0	790	1	4	0	136	55	0	0	100
fixed	5	5	8	1199725	2	3	3	1	0	1238	1	4	0	152	56	0	0	100
fixed	5	5	9	1201867	3	2	2	1	0	795	1	4	0	144	57	0	0	100
fixed	5	5	10	1203299	1	4	4	1	0	999	1	4	0	160	58	0	0	100
fixed	5	5	11	1204846	5	2	2	1	0	901	1	4	0	144	59	0	0	100
fixed	5	5	12	1206075	4	3	3	1	0	673	1	4	0	152	60	0	0	100
fixed	5	6	1	1207917	4	1	1	1	0	739	1	4	0	136	61	0	0	100
fixed	5	6	2	1209173	1	2	2	1	0	1118	1	4	0	144	62	0	0	100
fixed	5	6	3	1210973	6	4	4	1	0	649	1	4	0	160	63	0	0	100
fixed	5	6	4	1212484	2	1	1	1	0	929	1	4	0	136	64	0	0	100
fixed	5	6	5	1213857	5	3	3	1	0	911	1	4	0	152	65	0	0	100
fixed	5	6	6	1215604	6	4	4	1	0	645	1	4	0	160	66	0	0	100
fixed	5	6	7	1216738	3	1	1	1	0	965	1	4	0	136	67	0	0	100
fixed	5	6	8	1218376	2	3	3	1	0	1400	1	4	0	152	68	0	0	100
fixed	5	6	9	1220737	3	2	2	1	0	676	1	4	0	144	69	0	0	100
fixed	5	6	10	1221761	1	4	4	1	0	793	1	4	0	160	70	0	0	100
fixed	5	6	11	1223180	5	2	2	1	0	772	1	4	0	144	71	0	0	100
fixed	5	6	12	1224332	4	3	3	1	0	1116	1	4	0	152	72	0	0	100
fixed	5	7	1	1226613	4	1	1	1	0	723	1	4	0	136	73	0	0	100
fixed	5	7	2	1228236	1	2	2	1	0	590	1	4	0	144	74	0	0	100
fixed	5	7	3	1229540	6	4	4	1	0	743	1	4	0	160	75	0	0	100
fixed	5	7	4	1231004	2	1	1	1	0	1193	1	4	0	136	76	0	0	100
fixed	5	7	5	1232775	5	3	3	1	0	950	1	4	0	152	77	0	0	100
fixed	5	7	6	1234474	6	4	4	1	0	686	1	4	0	160	78	0	0	100
fixed	5	7	7	1235482	3	1	1	1	0	844	1	4	0	136	79	0	0	100
fixed	5	7	8	1237216	2	3	3	1	0	890	1	4	0	152	80	0	0	100
fixed	5	7	9	1239021	3	2	2	1	0	790	1	4	0	144	81	0	0	100
fixed	5	7	10	1240103	1	4	4	1	0	744	1	4	0	160	82	0	0	100
fixed	5	7	11	1241395	5	2	2	1	0	969	1	4	0	144	83	0	0	100
fixed	5	7	12	1243375	4	3	3	1	0	861	1	4	0	152	84	0	0	100
fixed	5	8	1	1245059	4	1	1	1	0	854	1	4	0	136	85	0	0	100
fixed	5	8	2	1246717	1	2	2	1	0	719	1	4	0	144	86	0	0	100
fixed	5	8	3	1248164	6	4	4	1	0	874	1	4	0	160	87	0	0	100
fixed	5	8	4	1249615	2	1	1	1	0	941	1	4	0	136	88	0	0	100
fixed	5	8	5	1251280	5	3	3	1	0	790	1	4	0	152	89	0	0	100
fixed	5	8	6	1253105	6	4	4	1	0	745	1	4	0	160	90	0	0	100
fixed	5	8	7	1254596	3	1	1	1	0	737	1	4	0	136	91	0	0	100
fixed	5	8	8	1256075	2	3	3	1	0	1035	1	4	0	152	92	0	0	100
fixed	5	8	9	1257873	3	2	2	1	0	607	1	4	0	144	93	0	0	100
fixed	5	8	10	1259263	1	4	4	1	0	732	1	4	0	160	94	0	0	100
fixed	5	8	11	1260658	5	2	2	2	0	2161	2	4	0	144	95	0	0	100
fixed	5	8	12	1263253	4	3	3	1	0	899	1	4	0	152	96	0	0	100
fixed	5	9	1	1265325	4	1	1	1	0	675	1	4	0	136	97	0	0	100
fixed	5	9	2	1266439	1	2	2	1	0	764	1	4	0	144	98	0	0	100
fixed	5	9	3	1267877	6	4	4	1	0	616	1	4	0	160	99	0	0	100
fixed	5	9	4	1269084	2	1	1	1	0	1076	1	4	0	136	100	0	0	100
fixed	5	9	5	1270639	5	3	3	1	0	722	1	4	0	152	101	0	0	100
fixed	5	9	6	1272123	6	4	4	1	0	627	1	4	0	160	102	0	0	100
fixed	5	9	7	1273527	3	1	1	1	0	776	1	4	0	136	103	0	0	100
fixed	5	9	8	1274795	2	3	3	1	0	915	1	4	0	152	104	0	0	100
fixed	5	9	9	1276409	3	2	2	1	0	614	1	4	0	144	105	0	0	100
fixed	5	9	10	1277938	1	4	4	1	0	685	1	4	0	160	106	0	0	100
fixed	5	9	11	1279386	5	2	2	1	0	840	1	4	0	144	107	0	0	100
fixed	5	9	12	1280525	4	3	3	1	0	1216	1	4	0	152	108	0	0	100
fixed	5	10	1	1282751	4	1	1	1	0	985	1	4	0	136	109	0	0	100
fixed	5	10	2	1284260	1	2	2	1	0	1281	1	4	0	144	110	0	0	100
fixed	5	10	3	1286273	6	4	4	1	0	740	1	4	0	160	111	0	0	100
fixed	5	10	4	1287459	2	1	1	1	0	954	1	4	0	136	112	0	0	100
fixed	5	10	5	1289180	5	3	3	1	0	833	1	4	0	152	113	0	0	100
fixed	5	10	6	1290921	6	4	4	1	0	663	1	4	0	160	114	0	0	100
fixed	5	10	7	1292069	3	1	1	1	0	1015	1	4	0	136	115	0	0	100
fixed	5	10	8	1293977	2	3	3	1	0	1526	1	4	0	152	116	0	0	100
fixed	5	10	9	1296435	3	2	2	1	0	550	1	4	0	144	117	0	0	100
fixed	5	10	10	1297329	1	4	4	1	0	736	1	4	0	160	118	0	0	100
fixed	5	10	11	1298548	5	2	2	1	0	700	1	4	0	144	119	0	0	100
fixed	5	10	12	1299852	4	3	3	1	0	661	1	4	0	152	120	0	0	100
random	6	1	1	1679639	6	1	1	1	0	935	1	4	0	168	1	0	0	100
random	6	1	2	1681549	4	4	4	1	0	622	1	4	0	192	2	0	0	100
random	6	1	3	1683197	2	2	2	2	0	937	2	4	0	176	3	0	0	100
random	6	1	4	1684548	3	3	3	1	0	520	1	4	0	184	4	0	0	100
random	6	1	5	1686001	5	2	2	1	0	762	1	4	0	176	5	0	0	100
random	6	1	6	1687326	1	4	4	1	0	609	1	4	0	192	6	0	0	100
random	6	1	7	1688443	6	1	1	1	0	707	1	4	0	168	7	0	0	100
random	6	1	8	1689499	2	3	3	1	0	1133	1	4	0	184	8	0	0	100
random	6	1	9	1691056	4	2	2	1	0	580	1	4	0	176	9	0	0	100
random	6	1	10	1692085	1	1	1	1	0	696	1	4	0	168	10	0	0	100
random	6	1	11	1693424	5	4	4	1	0	591	1	4	0	192	11	0	0	100
random	6	1	12	1694478	3	3	3	1	0	699	1	4	0	184	12	0	0	100
random	6	1	13	1695814	5	2	2	1	0	826	1	4	0	176	13	0	0	100
random	6	1	14	1697501	1	4	4	1	0	706	1	4	0	192	14	0	0	100
random	6	1	15	1698706	3	1	1	1	0	751	1	4	0	168	15	0	0	100
random	6	1	16	1700376	4	3	3	2	0	2073	2	4	0	184	16	0	0	100
random	6	1	17	1703457	6	4	4	1	0	679	1	4	0	192	17	0	0	100
random	6	1	18	1704661	2	1	1	1	0	916	1	4	0	168	18	0	0	100
random	6	1	19	1706203	5	3	3	1	0	754	1	4	0	184	19	0	0	100
random	6	1	20	1707447	2	2	2	1	0	773	1	4	0	176	20	0	0	100
random	6	1	21	1709138	3	3	3	1	0	1006	1	4	0	184	21	0	0	100
random	6	1	22	1711020	6	1	1	2	0	1862	2	4	0	168	22	0	0	100
random	6	1	23	1713288	4	2	2	1	0	950	1	4	0	176	23	0	0	100
random	6	1	24	1714826	1	4	4	1	0	749	1	4	0	192	24	0	0	100
random	6	1	25	1716415	4	3	3	1	0	1497	1	4	0	184	25	0	0	100
random	6	1	26	1718446	2	1	1	1	0	740	1	4	0	168	26	0	0	100
random	6	1	27	1720138	5	2	2	1	0	1460	1	4	0	176	27	0	0	100
random	6	1	28	1722080	6	4	4	1	0	657	1	4	0	192	28	0	0	100
random	6	1	29	1723289	1	3	3	1	0	751	1	4	0	184	29	0	0	100
random	6	1	30	1724805	5	2	2	1	0	766	1	4	0	176	30	0	0	100
random	6	1	31	1726457	2	1	1	1	0	504	1	4	0	168	31	0	0	100
random	6	1	32	1727654	3	3	3	1	0	774	1	4	0	184	32	0	0	100
random	6	1	33	1729053	6	4	4	1	0	658	1	4	0	192	33	0	0	100
random	6	1	34	1730670	4	2	2	1	0	766	1	4	0	176	34	0	0	100
random	6	1	35	1732170	3	4	4	1	0	670	1	4	0	192	35	0	0	100
random	6	1	36	1733145	1	1	1	1	0	821	1	4	0	168	36	0	0	100
random	6	1	37	1735261	3	4	4	1	0	963	1	4	0	192	37	0	0	100
random	6	1	38	1737174	5	3	3	1	0	850	1	4	0	184	38	0	0	100
random	6	1	39	1738943	6	1	1	1	0	711	1	4	0	168	39	0	0	100
random	6	1	40	1740132	1	2	2	1	0	885	1	4	0	176	40	0	0	100
random	6	1	41	1741419	2	3	3	1	0	879	1	4	0	184	41	0	0	100
random	6	1	42	1743085	4	4	4	1	0	504	1	4	0	192	42	0	0	100
random	6	1	43	1743892	1	2	2	1	0	734	1	4	0	176	43	0	0	100
random	6	1	44	1745104	6	3	3	1	0	738	1	4	0	184	44	0	0	100
random	6	1	45	1746869	3	1	1	1	0	1040	1	4	0	168	45	0	0	100
random	6	1	46	1748304	4	4	4	1	0	843	1	4	0	192	46	0	0	100
random	6	1	47	1749457	2	2	2	1	0	906	1	4	0	176	47	0	0	100
random	6	1	48	1751159	5	1	1	1	0	810	1	4	0	168	48	0	0	100
random	6	1	49	1753038	2	3	3	1	0	826	1	4	0	184	49	0	0	100
random	6	1	50	1754796	3	1	1	1	0	744	1	4	0	168	50	0	0	100
random	6	1	51	1756472	1	4	4	1	0	745	1	4	0	192	51	0	0	100
random	6	1	52	1757911	5	3	3	1	0	812	1	4	0	184	52	0	0	100
random	6	1	53	1759056	3	2	2	1	0	691	1	4	0	176	53	0	0	100
random	6	1	54	1760438	6	4	4	1	0	657	1	4	0	192	54	0	0	100
random	6	1	55	1761480	4	2	2	1	0	653	1	4	0	176	55	0	0	100
random	6	1	56	1762523	1	1	1	1	0	1033	1	4	0	168	56	0	0	100
random	6	1	57	1764322	5	4	4	1	0	613	1	4	0	192	57	0	0	100
random	6	1	58	1765903	2	1	1	1	0	609	1	4	0	168	58	0	0	100
random	6	1	59	1767152	6	2	2	1	0	685	1	4	0	176	59	0	0	100
random	6	1	60	1768296	4	3	3	1	0	900	1	4	0	184	60	0	0	100
random	6	1	61	1769879	1	2	2	1	0	1033	1	4	0	176	61	0	0	100
random	6	1	62	1771860	6	4	4	1	0	461	1	4	0	192	62	0	0	100
random	6	1	63	1773309	4	1	1	1	0	720	1	4	0	168	63	0	0	100
random	6	1	64	1774483	2	2	2	1	0	686	1	4	0	176	64	0	0	100
random	6	1	65	1775561	4	3	3	1	0	648	1	4	0	184	65	0	0	100
random	6	1	66	1776498	3	1	1	1	0	801	1	4	0	168	66	0	0	100
random	6	1	67	1778131	1	3	3	1	0	651	1	4	0	184	67	0	0	100
random	6	1	68	1779691	5	4	4	1	0	586	1	4	0	192	68	0	0	100
random	6	1	69	1780812	2	2	2	1	0	594	1	4	0	176	69	0	0	100
random	6	1	70	1781950	3	1	1	1	0	706	1	4	0	168	70	0	0	100
random	6	1	71	1783490	5	4	4	1	0	665	1	4	0	192	71	0	0	100
random	6	1	72	1784647	6	3	3	1	0	735	1	4	0	184	72	0	0	100
random	6	1	73	1785985	2	1	1	1	0	1071	1	4	0	168	73	0	0	100
random	6	1	74	1787735	5	3	3	1	0	701	1	4	0	184	74	0	0	100
random	6	1	75	1789044	1	4	4	1	0	621	1	4	0	192	75	0	0	100
random	6	1	76	1790211	6	2	2	1	0	844	1	4	0	176	76	0	0	100
random	6	1	77	1791500	2	1	1	1	0	733	1	4	0	168	77	0	0	100
random	6	1	78	1792910	4	4	4	1	0	538	1	4	0	192	78	0	0	100
random	6	1	79	1794188	3	2	2	1	0	851	1	4	0	176	79	0	0	100
random	6	1	80	1796053	4	3	3	1	0	781	1	4	0	184	80	0	0	100
random	6	1	81	1797610	1	4	4	1	0	475	1	4	0	192	81	0	0	100
random	6	1	82	1798510	5	1	1	1	0	613	1	4	0	168	82	0	0	100
random	6	1	83	1799775	3	2	2	1	0	727	1	4	0	176	83	0	0	100
random	6	1	84	1801365	6	3	3	1	0	684	1	4	0	184	84	0	0	100
random	6	1	85	1803027	3	2	2	1	0	989	1	4	0	176	85	0	0	100
random	6	1	86	1804351	1	3	3	1	0	541	1	4	0	184	86	0	0	100
random	6	1	87	1805189	4	4	4	1	0	2042	1	4	0	192	87	0	0	100
random	6	1	88	1808153	2	1	1	1	0	708	1	4	0	168	88	0	0	100
random	6	1	89	1809632	6	4	4	1	0	725	1	4	0	192	89	0	0	100
random	6	1	90	1810685	3	3	3	1	0	1265	1	4	0	184	90	0	0	100
random	6	1	91	1812436	5	4	4	1	0	615	1	4	0	192	91	0	0	100
random	6	1	92	1813848	1	2	2	1	0	835	1	4	0	176	92	0	0	100
random	6	1	93	1815307	5	1	1	1	0	757	1	4	0	168	93	0	0	100
random	6	1	94	1816698	4	3	3	1	0	786	1	4	0	184	94	0	0	100
random	6	1	95	1818087	6	1	1	2	0	1631	2	4	0	168	95	0	0	100
random	6	1	96	1820436	2	2	2	1	0	804	1	4	0	176	96	0	0	100
random	6	1	97	1821823	4	3	3	1	0	753	1	4	0	184	97	0	0	100
random	6	1	98	1823351	3	2	2	1	0	665	1	4	0	176	98	0	0	100
random	6	1	99	1824606	6	3	3	1	0	755	1	4	0	184	99	0	0	100
random	6	1	100	1826317	1	4	4	1	0	643	1	4	0	192	100	0	0	100
random	6	1	101	1827768	4	1	1	1	0	709	1	4	0	168	101	0	0	100
random	6	1	102	1828993	5	2	2	1	0	681	1	4	0	176	102	0	0	100
random	6	1	103	1830076	2	4	4	1	0	635	1	4	0	192	103	0	0	100
random	6	1	104	1831314	3	1	1	1	0	751	1	4	0	168	104	0	0	100
random	6	1	105	1832649	1	3	3	1	0	806	1	4	0	184	105	0	0	100
random	6	1	106	1834366	2	2	2	1	0	774	1	4	0	176	106	0	0	100
random	6	1	107	1835490	5	4	4	1	0	622	1	4	0	192	107	0	0	100
random	6	1	108	1836905	6	1	1	1	0	771	1	4	0	168	108	0	0	100
random	6	1	109	1838598	5	4	4	1	0	722	1	4	0	192	109	0	0	100
random	6	1	110	1839743	6	3	3	1	0	866	1	4	0	184	110	0	0	100
random	6	1	111	1841503	2	2	2	1	0	655	1	4	0	176	111	0	0	100
random	6	1	112	1842772	3	1	1	1	0	978	1	4	0	168	112	0	0	100
random	6	1	113	1844735	1	2	2	1	0	1351	1	4	0	176	113	0	0	100
random	6	1	114	1846858	2	3	3	1	0	877	1	4	0	184	114	0	0	100
random	6	1	115	1848410	3	1	1	1	0	1347	1	4	0	168	115	0	0	100
random	6	1	116	1850311	4	4	4	1	0	666	1	4	0	192	116	0	0	100
random	6	1	117	1851355	6	1	1	1	0	830	1	4	0	168	117	0	0	100
random	6	1	118	1852949	5	3	0	1	2	0	3	4	0	184	117	0	1	99
random	6	1	119	1856371	1	4	4	1	0	754	1	4	0	192	118	0	1	99
random	6	1	120	1858026	4	2	2	1	0	820	1	4	0	176	119	0	1	99
fixed	7	1	1	1860265	4	1	0	1	2	0	3	4	0	200	0	0	1	0
fixed	7	1	2	1863219	1	2	2	1	0	896	1	4	0	208	1	0	1	50
fixed	7	1	3	1864793	6	4	4	1	0	789	1	4	0	224	2	0	1	67
fixed	7	1	4	1866126	2	1	1	1	0	781	1	4	0	200	3	0	1	75
fixed	7	1	5	1867216	5	3	3	1	0	974	1	4	0	216	4	0	1	80
fixed	7	1	6	1869022	6	4	4	1	0	698	1	4	0	224	5	0	1	83
fixed	7	1	7	1870600	3	1	1	1	0	807	1	4	0	200	6	0	1	86
fixed	7	1	8	1871935	2	3	3	1	0	823	1	4	0	216	7	0	1	88
fixed	7	1	9	1873514	3	2	2	1	0	811	1	4	0	208	8	0	1	89
fixed	7	1	10	1875241	1	4	4	1	0	578	1	4	0	224	9	0	1	90
fixed	7	1	11	1876793	5	2	2	1	0	761	1	4	0	208	10	0	1	91
fixed	7	1	12	1878332	4	3	3	1	0	1152	1	4	0	216	11	0	1	92
fixed	7	2	1	1880367	4	1	1	1	0	1617	1	4	0	200	1	0	0	8
fixed	7	2	2	1882720	1	2	2	1	0	1349	1	4	0	208	2	0	0	14
fixed	7	2	3	1884983	6	4	4	1	0	806	1	4	0	224	3	0	0	20
fixed	7	2	4	1886395	2	1	1	1	0	762	1	4	0	200	4	0	0	25
fixed	7	2	5	1887686	5	3	3	1	0	867	1	4	0	216	5	0	0	29
fixed	7	2	6	1889265	6	4	4	1	0	649	1	4	0	224	6	0	0	33
fixed	7	2	7	1890502	3	1	1	1	0	708	1	4	0	200	7	0	0	37
fixed	7	2	8	1892092	2	3	3	1	0	1233	1	4	0	216	8	0	0	40
fixed	7	2	9	1893750	3	2	2	1	0	562	1	4	0	208	9	0	0	43
fixed	7	2	10	1894888	1	4	4	1	0	666	1	4	0	224	10	0	0	45
fixed	7	2	11	1895861	5	2	2	1	0	985	1	4	0	208	11	0	0	48
fixed	7	2	12	1897547	4	3	3	1	0	594	1	4	0	216	12	0	0	50
fixed	7	3	1	1899297	4	1	1	1	0	687	1	4	0	200	1	0	0	4
fixed	7	3	2	1900824	1	2	2	1	0	1247	1	4	0	208	2	0	0	8
fixed	7	3	3	1902756	6	4	4	1	0	588	1	4	0	224	3	0	0	11
fixed	7	3	4	1904135	2	1	1	1	0	771	1	4	0	200	4	0	0	14
fixed	7	3	5	1905942	5	3	3	1	0	927	1	4	0	216	5	0	0	17
fixed	7	3	6	1907714	6	4	4	1	0	1235	1	4	0	224	6	0	0	20
fixed	7	3	7	1909856	3	1	1	1	0	680	1	4	0	200	7	0	0	23
fixed	7	3	8	1911059	2	3	3	1	0	709	1	4	0	216	8	0	0	25
fixed	7	3	9	1912257	3	2	2	1	0	587	1	4	0	208	9	0	0	27
fixed	7	3	10	1913772	1	4	4	1	0	659	1	4	0	224	10	0	0	29
fixed	7	3	11	1915356	5	2	2	1	0	863	1	4	0	208	11	0	0	31
fixed	7	3	12	1916843	4	3	3	1	0	880	1	4	0	216	12	0	0	33
fixed	7	4	1	1918327	4	1	1	1	0	1185	1	4	0	200	1	0	0	3
fixed	7	4	2	1920316	1	2	0	1	2	0	3	4	0	208	1	0	1	3
fixed	7	4	3	1923839	6	4	4	1	0	672	1	4	0	224	2	0	1	5
fixed	7	4	4	1925465	2	1	1	1	0	699	1	4	0	200	3	0	1	8
fixed	7	4	5	1927163	5	3	3	1	0	747	1	4	0	216	4	0	1	10
fixed	7	4	6	1928385	6	4	4	1	0	679	1	4	0	224	5	0	1	12
fixed	7	4	7	1929354	3	1	1	1	0	686	1	4	0	200	6	0	1	14
fixed	7	4	8	1930623	2	3	3	1	0	825	1	4	0	216	7	0	1	16
fixed	7	4	9	1932266	3	2	2	1	0	555	1	4	0	208	8	0	1	18
fixed	7	4	10	1933806	1	4	4	1	0	626	1	4	0	224	9	0	1	20
fixed	7	4	11	1935390	5	2	2	1	0	871	1	4	0	208	10	0	1	21
fixed	7	4	12	1936812	4	3	3	1	0	995	1	4	0	216	11	0	1	23
fixed	7	5	1	1938693	4	1	1	1	0	1395	1	4	0	200	1	0	0	2
fixed	7	5	2	1940881	1	2	2	2	0	1926	2	4	0	208	2	0	0	4
fixed	7	5	3	1943420	6	4	4	1	0	643	1	4	0	224	3	0	0	6
fixed	7	5	4	1944602	2	1	1	1	0	785	1	4	0	200	4	0	0	8
fixed	7	5	5	1946374	5	3	3	1	0	1358	1	4	0	216	5	0	0	9
fixed	7	5	6	1948303	6	4	4	1	0	700	1	4	0	224	6	0	0	11
fixed	7	5	7	1949779	3	1	1	1	0	798	1	4	0	200	7	0	0	13
fixed	7	5	8	1951204	2	3	3	1	0	1081	1	4	0	216	8	0	0	14
fixed	7	5	9	1953023	3	2	2	1	0	588	1	4	0	208	9	0	0	16
fixed	7	5	10	1954208	1	4	4	1	0	626	1	4	0	224	10	0	0	17
fixed	7	5	11	1955218	5	2	2	1	0	783	1	4	0	208	11	0	0	19
fixed	7	5	12	1956364	4	3	3	1	0	839	1	4	0	216	12	0	0	20
fixed	7	6	1	1958358	4	1	1	1	0	898	1	4	0	200	1	0	0	2
fixed	7	6	2	1960172	1	2	2	1	0	1485	1	4	0	208	2	0	0	3
fixed	7	6	3	1962439	6	4	4	2	0	1765	2	4	0	224	3	0	0	5
fixed	7	6	4	1964871	2	1	1	1	0	695	1	4	0	200	4	0	0	6
fixed	7	6	5	1966554	5	3	3	1	0	759	1	4	0	216	5	0	0	8
fixed	7	6	6	1967694	6	4	4	1	0	599	1	4	0	224	6	0	0	9
fixed	7	6	7	1968975	3	1	1	1	0	641	1	4	0	200	7	0	0	10
fixed	7	6	8	1969907	2	3	3	1	0	793	1	4	0	216	8	0	0	12
fixed	7	6	9	1971384	3	2	2	1	0	387	1	4	0	208	9	0	0	13
fixed	7	6	10	1972151	1	4	4	1	0	570	1	4	0	224	10	0	0	14
fixed	7	6	11	1973580	5	2	2	1	0	829	1	4	0	208	11	0	0	15
fixed	7	6	12	1975204	4	3	3	1	0	873	1	4	0	216	12	0	0	17
fixed	7	7	1	1977121	4	1	1	1	0	735	1	4	0	200	1	0	0	1
fixed	7	7	2	1978390	1	2	0	1	2	0	3	4	0	208	1	0	1	1
fixed	7	7	3	1981556	6	4	4	1	0	676	1	4	0	224	2	0	1	3
fixed	7	7	4	1983127	2	1	1	1	0	681	1	4	0	200	3	0	1	4
fixed	7	7	5	1984262	5	3	3	1	0	729	1	4	0	216	4	0	1	5
fixed	7	7	6	1985359	6	4	4	1	0	674	1	4	0	224	5	0	1	6
fixed	7	7	7	1986343	3	1	1	1	0	809	1	4	0	200	6	0	1	8
fixed	7	7	8	1988011	2	3	3	1	0	867	1	4	0	216	7	0	1	9
fixed	7	7	9	1989611	3	2	2	1	0	735	1	4	0	208	8	0	1	10
fixed	7	7	10	1991107	1	4	4	1	0	687	1	4	0	224	9	0	1	11
fixed	7	7	11	1992182	5	2	2	1	0	1554	1	4	0	208	10	0	1	12
fixed	7	7	12	1994644	4	3	3	1	0	706	1	4	0	216	11	0	1	13
fixed	7	8	1	1996168	4	1	1	1	0	840	1	4	0	200	1	0	0	1
fixed	7	8	2	1997428	1	2	2	2	0	939	2	4	0	208	2	0	0	2
fixed	7	8	3	1999129	6	4	4	1	0	675	1	4	0	224	3	0	0	3
fixed	7	8	4	2000433	2	1	1	1	0	948	1	4	0	200	4	0	0	5
fixed	7	8	5	2002230	5	3	3	1	0	712	1	4	0	216	5	0	0	6
fixed	7	8	6	2003931	6	4	4	1	0	600	1	4	0	224	6	0	0	7
fixed	7	8	7	2004897	3	1	1	1	0	1095	1	4	0	200	7	0	0	8
fixed	7	8	8	2006866	2	3	3	1	0	972	1	4	0	216	8	0	0	9
fixed	7	8	9	2008545	3	2	2	1	0	580	1	4	0	208	9	0	0	10
fixed	7	8	10	2009901	1	4	4	2	0	1619	2	4	0	224	10	0	0	11
fixed	7	8	11	2012267	5	2	2	1	0	1247	1	4	0	208	11	0	0	12
fixed	7	8	12	2014516	4	3	3	1	0	712	1	4	0	216	12	0	0	13
fixed	7	9	1	2016484	4	1	1	1	0	1052	1	4	0	200	1	0	0	1
fixed	7	9	2	2018194	1	2	2	1	0	2036	1	4	0	208	2	0	0	2
fixed	7	9	3	2021028	6	4	4	1	0	876	1	4	0	224	3	0	0	3
fixed	7	9	4	2022752	2	1	1	2	0	1643	2	4	0	200	4	0	0	4
fixed	7	9	5	2024699	5	3	3	1	0	793	1	4	0	216	5	0	0	5
fixed	7	9	6	2026412	6	4	4	1	0	992	1	4	0	224	6	0	0	6
fixed	7	9	7	2027931	3	1	1	1	0	791	1	4	0	200	7	0	0	7
fixed	7	9	8	2029755	2	3	3	1	0	818	1	4	0	216	8	0	0	8
fixed	7	9	9	2031588	3	2	2	1	0	796	1	4	0	208	9	0	0	9
fixed	7	9	10	2033220	1	4	4	1	0	760	1	4	0	224	10	0	0	9
fixed	7	9	11	2034965	5	2	2	1	0	757	1	4	0	208	11	0	0	10
fixed	7	9	12	2036040	4	3	3	1	0	592	1	4	0	216	12	0	0	11
fixed	7	10	1	2037770	4	1	1	1	0	807	1	4	0	200	1	0	0	1
fixed	7	10	2	2039324	1	2	2	1	0	933	1	4	0	208	2	0	0	2
fixed	7	10	3	2040679	6	4	4	1	0	1115	1	4	0	224	3	0	0	3
fixed	7	10	4	2042142	2	1	1	1	0	790	1	4	0	200	4	0	0	4
fixed	7	10	5	2043300	5	3	3	1	0	788	1	4	0	216	5	0	0	4
fixed	7	10	6	2045046	6	4	4	1	0	1371	1	4	0	224	6	0	0	5
fixed	7	10	7	2047127	3	1	1	1	0	2162	1	4	0	200	7	0	0	6
fixed	7	10	8	2049870	2	3	3	1	0	814	1	4	0	216	8	0	0	7
fixed	7	10	9	2051139	3	2	2	1	0	552	1	4	0	208	9	0	0	8
fixed	7	10	10	2052026	1	4	4	1	0	627	1	4	0	224	10	0	0	8
fixed	7	10	11	2052973	5	2	2	1	0	690	1	4	0	208	11	0	0	9
fixed	7	10	12	2054300	4	3	3	1	0	739	1	4	0	216	12	0	0	10
