type	block	sequ.	trial	time	Pos.	Color	Button	NumRsp	Resp_1	RT_1	R_Code	Resp_2	RT_2	Trigg.	n_hit	n_inc	n_miss	score_%

random	1	1	1	1730	6	1	1	1	0	2324	1	4	0	8	1	0	0	100
random	1	1	2	5046	4	4	4	1	0	1448	1	4	0	32	2	0	0	100
random	1	1	3	7094	2	2	2	1	0	1721	1	4	0	16	3	0	0	100
random	1	1	4	9860	3	3	3	1	0	988	1	4	0	24	4	0	0	100
random	1	1	5	11850	5	2	2	1	0	1152	1	4	0	16	5	0	0	100
random	1	1	6	13594	1	4	4	1	0	741	1	4	0	32	6	0	0	100
random	1	1	7	14942	6	1	1	1	0	1029	1	4	0	8	7	0	0	100
random	1	1	8	16385	2	3	0	1	2	0	3	4	0	24	7	0	1	88
random	1	1	9	19677	4	2	2	1	0	860	1	4	0	16	8	0	1	89
random	1	1	10	21405	1	1	1	1	0	875	1	4	0	8	9	0	1	90
random	1	1	11	22762	5	4	4	1	0	914	1	4	0	32	10	0	1	91
random	1	1	12	24548	3	3	3	1	0	1190	1	4	0	24	11	0	1	92
random	1	1	13	26943	5	2	2	1	0	1744	1	4	0	16	12	0	1	92
random	1	1	14	29503	1	4	4	1	0	732	1	4	0	32	13	0	1	93
random	1	1	15	31027	3	1	1	1	0	1299	1	4	0	8	14	0	1	93
random	1	1	16	32847	4	3	3	1	0	1006	1	4	0	24	15	0	1	94
random	1	1	17	34744	6	4	4	1	0	1206	1	4	0	32	16	0	1	94
random	1	1	18	36818	2	1	1	1	0	870	1	4	0	8	17	0	1	94
random	1	1	19	38395	5	3	3	1	0	979	1	4	0	24	18	0	1	95
random	1	1	20	40076	2	2	2	1	0	980	1	4	0	16	19	0	1	95
random	1	1	21	41650	3	3	3	1	0	1057	1	4	0	24	20	0	1	95
random	1	1	22	43734	6	1	1	1	0	801	1	4	0	8	21	0	1	95
random	1	1	23	44949	4	2	2	1	0	1502	1	4	0	16	22	0	1	96
random	1	1	24	47415	1	4	4	1	0	725	1	4	0	32	23	0	1	96
random	1	1	25	49232	4	3	3	1	0	1768	1	4	0	24	24	0	1	96
random	1	1	26	51304	2	1	1	1	0	808	1	4	0	8	25	0	1	96
random	1	1	27	52770	5	2	2	1	0	1019	1	4	0	16	26	0	1	96
random	1	1	28	54824	6	4	4	1	0	1916	1	4	0	32	27	0	1	96
random	1	1	29	57104	1	3	3	1	0	939	1	4	0	24	28	0	1	97
random	1	1	30	58976	5	2	2	1	0	1355	1	4	0	16	29	0	1	97
random	1	1	31	60674	2	1	1	1	0	900	1	4	0	8	30	0	1	97
random	1	1	32	62571	3	3	3	1	0	931	1	4	0	24	31	0	1	97
random	1	1	33	64299	6	4	4	1	0	730	1	4	0	32	32	0	1	97
random	1	1	34	65364	4	2	2	1	0	1437	1	4	0	16	33	0	1	97
random	1	1	35	67655	3	4	4	1	0	1028	1	4	0	32	34	0	1	97
random	1	1	36	69292	1	1	1	1	0	807	1	4	0	8	35	0	1	97
random	1	1	37	71269	3	4	4	1	0	987	1	4	0	32	36	0	1	97
random	1	1	38	72612	5	3	3	1	0	1810	1	4	0	24	37	0	1	97
random	1	1	39	75032	6	1	1	1	0	995	1	4	0	8	38	0	1	97
random	1	1	40	76872	1	2	2	1	0	958	1	4	0	16	39	0	1	98
random	1	1	41	78495	2	3	3	1	0	1169	1	4	0	24	40	0	1	98
random	1	1	42	80397	4	4	4	1	0	672	1	4	0	32	41	0	1	98
random	1	1	43	82000	1	2	2	1	0	1052	1	4	0	16	42	0	1	98
random	1	1	44	84042	6	3	3	1	0	1350	1	4	0	24	43	0	1	98
random	1	1	45	85951	3	1	1	1	0	869	1	4	0	8	44	0	1	98
random	1	1	46	87371	4	4	4	1	0	785	1	4	0	32	45	0	1	98
random	1	1	47	88491	2	2	2	1	0	946	1	4	0	16	46	0	1	98
random	1	1	48	89838	5	1	1	3	0	1944	2	4	0	8	47	0	1	98
random	1	1	49	93056	2	3	3	1	0	1208	1	4	0	24	48	0	1	98
random	1	1	50	94655	3	1	1	3	0	1749	2	4	0	8	49	0	1	98
random	1	1	51	97372	1	4	4	1	0	809	1	4	0	32	50	0	1	98
random	1	1	52	98923	5	3	3	1	0	1239	1	4	0	24	51	0	1	98
random	1	1	53	100769	3	2	2	1	0	1234	1	4	0	16	52	0	1	98
random	1	1	54	102484	6	4	4	1	0	705	1	4	0	32	53	0	1	98
random	1	1	55	104027	4	2	2	1	0	888	1	4	0	16	54	0	1	98
random	1	1	56	105789	1	1	1	1	0	685	1	4	0	8	55	0	1	98
random	1	1	57	107515	5	4	4	1	0	852	1	4	0	32	56	0	1	98
random	1	1	58	108845	2	1	1	1	0	851	1	4	0	8	57	0	1	98
random	1	1	59	110409	6	2	2	2	0	1673	2	4	0	16	58	0	1	98
random	1	1	60	112474	4	3	3	1	0	1434	1	4	0	24	59	0	1	98
random	1	1	61	115027	1	2	2	1	0	1253	1	4	0	16	60	0	1	98
random	1	1	62	116619	6	4	4	1	0	730	1	4	0	32	61	0	1	98
random	1	1	63	118250	4	1	1	1	0	773	1	4	0	8	62	0	1	98
random	1	1	64	119688	2	2	2	1	0	920	1	4	0	16	63	0	1	98
random	1	1	65	121622	4	3	3	1	0	1118	1	4	0	24	64	0	1	98
random	1	1	66	123078	3	1	1	1	0	864	1	4	0	8	65	0	1	98
random	1	1	67	124474	1	3	3	1	0	893	1	4	0	24	66	0	1	99
random	1	1	68	126199	5	4	4	1	0	773	1	4	0	32	67	0	1	99
random	1	1	69	127957	2	2	2	1	0	970	1	4	0	16	68	0	1	99
random	1	1	70	129648	3	1	1	1	0	786	1	4	0	8	69	0	1	99
random	1	1	71	131360	5	4	4	1	0	874	1	4	0	32	70	0	1	99
random	1	1	72	132596	6	3	3	1	0	1014	1	4	0	24	71	0	1	99
random	1	1	73	134491	2	1	1	1	0	989	1	4	0	8	72	0	1	99
random	1	1	74	136129	5	3	3	1	0	1328	1	4	0	24	73	0	1	99
random	1	1	75	138275	1	4	4	1	0	709	1	4	0	32	74	0	1	99
random	1	1	76	139695	6	2	2	1	0	841	1	4	0	16	75	0	1	99
random	1	1	77	141512	2	1	1	1	0	716	1	4	0	8	76	0	1	99
random	1	1	78	142676	4	4	4	1	0	922	1	4	0	32	77	0	1	99
random	1	1	79	144045	3	2	2	1	0	1081	1	4	0	16	78	0	1	99
random	1	1	80	145595	4	3	3	1	0	983	1	4	0	24	79	0	1	99
random	1	1	81	147599	1	4	4	1	0	666	1	4	0	32	80	0	1	99
random	1	1	82	149041	5	1	1	1	0	885	1	4	0	8	81	0	1	99
random	1	1	83	150628	3	2	2	1	0	1001	1	4	0	16	82	0	1	99
random	1	1	84	152043	6	3	3	1	0	894	1	4	0	24	83	0	1	99
random	1	1	85	154206	3	2	2	1	0	1106	1	4	0	16	84	0	1	99
random	1	1	86	156357	1	3	3	1	0	887	1	4	0	24	85	0	1	99
random	1	1	87	157627	4	4	4	1	0	801	1	4	0	32	86	0	1	99
random	1	1	88	159034	2	1	1	1	0	1093	1	4	0	8	87	0	1	99
random	1	1	89	160662	6	4	4	1	0	1049	1	4	0	32	88	0	1	99
random	1	1	90	162604	3	3	3	1	0	1007	1	4	0	24	89	0	1	99
random	1	1	91	164530	5	4	4	1	0	813	1	4	0	32	90	0	1	99
random	1	1	92	166078	1	2	2	1	0	811	1	4	0	16	91	0	1	99
random	1	1	93	167863	5	1	1	1	0	1032	1	4	0	8	92	0	1	99
random	1	1	94	169448	4	3	3	1	0	1124	1	4	0	24	93	0	1	99
random	1	1	95	171506	6	1	1	1	0	829	1	4	0	8	94	0	1	99
random	1	1	96	173315	2	2	2	1	0	1273	1	4	0	16	95	0	1	99
random	1	1	97	175191	4	3	3	1	0	1097	1	4	0	24	96	0	1	99
random	1	1	98	176932	3	2	2	1	0	1119	1	4	0	16	97	0	1	99
random	1	1	99	178829	6	3	3	1	0	871	1	4	0	24	98	0	1	99
random	1	1	100	180071	1	4	4	1	0	730	1	4	0	32	99	0	1	99
random	1	1	101	181291	4	1	1	1	0	575	1	4	0	8	100	0	1	99
random	1	1	102	182291	5	2	2	2	0	1860	2	4	0	16	101	0	1	99
random	1	1	103	184853	2	4	4	1	0	648	1	4	0	32	102	0	1	99
random	1	1	104	185878	3	1	1	2	0	1461	2	4	0	8	103	0	1	99
random	1	1	105	188020	1	3	3	1	0	1434	1	4	0	24	104	0	1	99
random	1	1	106	190480	2	2	2	1	0	1194	1	4	0	16	105	0	1	99
random	1	1	107	192483	5	4	4	1	0	709	1	4	0	32	106	0	1	99
random	1	1	108	193533	6	1	1	1	0	768	1	4	0	8	107	0	1	99
random	1	1	109	195524	5	4	4	1	0	908	1	4	0	32	108	0	1	99
random	1	1	110	197412	6	3	3	1	0	1052	1	4	0	24	109	0	1	99
random	1	1	111	199349	2	2	2	1	0	554	1	4	0	16	110	0	1	99
random	1	1	112	200339	3	1	1	1	0	936	1	4	0	8	111	0	1	99
random	1	1	113	201741	1	2	2	1	0	1773	1	4	0	16	112	0	1	99
random	1	1	114	203922	2	3	3	1	0	689	1	4	0	24	113	0	1	99
random	1	1	115	205588	3	1	1	1	0	714	1	4	0	8	114	0	1	99
random	1	1	116	206623	4	4	4	1	0	534	1	4	0	32	115	0	1	99
random	1	1	117	207680	6	1	1	1	0	777	1	4	0	8	116	0	1	99
random	1	1	118	209166	5	3	3	1	0	898	1	4	0	24	117	0	1	99
random	1	1	119	210589	1	4	4	1	0	742	1	4	0	32	118	0	1	99
random	1	1	120	212074	4	2	2	1	0	751	1	4	0	16	119	0	1	99
fixed	2	1	1	213917	4	1	1	1	0	857	1	4	0	40	1	0	0	100
fixed	2	1	2	215116	1	2	2	2	0	1246	2	4	0	48	2	0	0	100
fixed	2	1	3	216698	6	4	4	1	0	643	1	4	0	64	3	0	0	100
fixed	2	1	4	218032	2	1	1	1	0	675	1	4	0	40	4	0	0	100
fixed	2	1	5	219189	5	3	3	1	0	898	1	4	0	56	5	0	0	100
fixed	2	1	6	220584	6	4	4	1	0	726	1	4	0	64	6	0	0	100
fixed	2	1	7	221864	3	1	1	2	0	785	2	4	0	40	7	0	0	100
fixed	2	1	8	222947	2	3	3	1	0	1291	1	4	0	56	8	0	0	100
fixed	2	1	9	224981	3	2	2	1	0	1284	1	4	0	48	9	0	0	100
fixed	2	1	10	227106	1	4	4	1	0	730	1	4	0	64	10	0	0	100
fixed	2	1	11	228265	5	2	0	1	2	0	3	4	0	48	10	0	1	91
fixed	2	1	12	231264	4	3	3	1	0	1330	1	4	0	56	11	0	1	92
fixed	2	2	1	233785	4	1	1	1	0	847	1	4	0	40	12	0	1	92
fixed	2	2	2	235445	1	2	2	1	0	993	1	4	0	48	13	0	1	93
fixed	2	2	3	236760	6	4	4	1	0	753	1	4	0	64	14	0	1	93
fixed	2	2	4	237940	2	1	1	1	0	664	1	4	0	40	15	0	1	94
fixed	2	2	5	239547	5	3	3	1	0	1195	1	4	0	56	16	0	1	94
fixed	2	2	6	241574	6	4	4	1	0	814	1	4	0	64	17	0	1	94
fixed	2	2	7	243400	3	1	1	1	0	1272	1	4	0	40	18	0	1	95
fixed	2	2	8	245106	2	3	3	1	0	1712	1	4	0	56	19	0	1	95
fixed	2	2	9	247471	3	2	2	2	0	868	2	4	0	48	20	0	1	95
fixed	2	2	10	248892	1	4	4	1	0	688	1	4	0	64	21	0	1	95
fixed	2	2	11	250515	5	2	2	1	0	1171	1	4	0	48	22	0	1	96
fixed	2	2	12	251980	4	3	3	1	0	1717	1	4	0	56	23	0	1	96
fixed	2	3	1	254536	4	1	1	1	0	840	1	4	0	40	24	0	1	96
fixed	2	3	2	256113	1	2	2	1	0	1070	1	4	0	48	25	0	1	96
fixed	2	3	3	257535	6	4	4	1	0	810	1	4	0	64	26	0	1	96
fixed	2	3	4	258773	2	1	1	1	0	597	1	4	0	40	27	0	1	96
fixed	2	3	5	259694	5	3	3	2	0	1358	2	4	0	56	28	0	1	97
fixed	2	3	6	261527	6	4	4	1	0	633	1	4	0	64	29	0	1	97
fixed	2	3	7	262909	3	1	1	1	0	590	1	4	0	40	30	0	1	97
fixed	2	3	8	264060	2	3	3	1	0	1133	1	4	0	56	31	0	1	97
fixed	2	3	9	266073	3	2	2	1	0	752	1	4	0	48	32	0	1	97
fixed	2	3	10	267760	1	4	4	1	0	681	1	4	0	64	33	0	1	97
fixed	2	3	11	268927	5	2	2	1	0	1079	1	4	0	48	34	0	1	97
fixed	2	3	12	270678	4	3	3	1	0	941	1	4	0	56	35	0	1	97
fixed	2	4	1	272430	4	1	1	1	0	883	1	4	0	40	36	0	1	97
fixed	2	4	2	273771	1	2	2	1	0	1114	1	4	0	48	37	0	1	97
fixed	2	4	3	275390	6	4	4	1	0	813	1	4	0	64	38	0	1	97
fixed	2	4	4	276506	2	1	1	1	0	758	1	4	0	40	39	0	1	98
fixed	2	4	5	278154	5	3	3	1	0	976	1	4	0	56	40	0	1	98
fixed	2	4	6	279988	6	4	4	1	0	731	1	4	0	64	41	0	1	98
fixed	2	4	7	281658	3	1	1	2	0	1332	2	4	0	40	42	0	1	98
fixed	2	4	8	283358	2	3	3	1	0	868	1	4	0	56	43	0	1	98
fixed	2	4	9	284888	3	2	2	1	0	803	1	4	0	48	44	0	1	98
fixed	2	4	10	286618	1	4	4	1	0	730	1	4	0	64	45	0	1	98
fixed	2	4	11	287861	5	2	2	1	0	1093	1	4	0	48	46	0	1	98
fixed	2	4	12	289312	4	3	3	1	0	944	1	4	0	56	47	0	1	98
fixed	2	5	1	290925	4	1	1	1	0	803	1	4	0	40	48	0	1	98
fixed	2	5	2	292276	1	2	2	1	0	970	1	4	0	48	49	0	1	98
fixed	2	5	3	293600	6	4	4	1	0	730	1	4	0	64	50	0	1	98
fixed	2	5	4	294680	2	1	1	1	0	725	1	4	0	40	51	0	1	98
fixed	2	5	5	296295	5	3	3	1	0	936	1	4	0	56	52	0	1	98
fixed	2	5	6	298184	6	4	4	1	0	768	1	4	0	64	53	0	1	98
fixed	2	5	7	299356	3	1	1	2	0	1158	2	4	0	40	54	0	1	98
fixed	2	5	8	300954	2	3	3	1	0	1363	1	4	0	56	55	0	1	98
fixed	2	5	9	302633	3	2	2	1	0	1564	1	4	0	48	56	0	1	98
fixed	2	5	10	304581	1	4	4	1	0	729	1	4	0	64	57	0	1	98
fixed	2	5	11	306019	5	2	2	1	0	1348	1	4	0	48	58	0	1	98
fixed	2	5	12	308140	4	3	3	1	0	1274	1	4	0	56	59	0	1	98
fixed	2	6	1	310623	4	1	1	1	0	793	1	4	0	40	60	0	1	98
fixed	2	6	2	312096	1	2	2	1	0	891	1	4	0	48	61	0	1	98
fixed	2	6	3	313786	6	4	4	1	0	763	1	4	0	64	62	0	1	98
fixed	2	6	4	315569	2	1	1	1	0	711	1	4	0	40	63	0	1	98
fixed	2	6	5	316864	5	3	3	1	0	905	1	4	0	56	64	0	1	98
fixed	2	6	6	318419	6	4	4	1	0	695	1	4	0	64	65	0	1	98
fixed	2	6	7	319773	3	1	1	2	0	790	2	4	0	40	66	0	1	99
fixed	2	6	8	321531	2	3	3	1	0	1411	1	4	0	56	67	0	1	99
fixed	2	6	9	323709	3	2	2	1	0	639	1	4	0	48	68	0	1	99
fixed	2	6	10	324808	1	4	4	1	0	728	1	4	0	64	69	0	1	99
fixed	2	6	11	326470	5	2	2	1	0	1210	1	4	0	48	70	0	1	99
fixed	2	6	12	328273	4	3	3	1	0	1014	1	4	0	56	71	0	1	99
fixed	2	7	1	330556	4	1	1	1	0	645	1	4	0	40	72	0	1	99
fixed	2	7	2	331777	1	2	2	1	0	1105	1	4	0	48	73	0	1	99
fixed	2	7	3	333546	6	4	4	1	0	790	1	4	0	64	74	0	1	99
fixed	2	7	4	334716	2	1	1	1	0	708	1	4	0	40	75	0	1	99
fixed	2	7	5	335970	5	3	3	1	0	1247	1	4	0	56	76	0	1	99
fixed	2	7	6	337930	6	4	4	1	0	749	1	4	0	64	77	0	1	99
fixed	2	7	7	339370	3	1	1	1	0	464	1	4	0	40	78	0	1	99
fixed	2	7	8	340308	2	3	3	1	0	1448	1	4	0	56	79	0	1	99
fixed	2	7	9	342073	3	2	2	1	0	885	1	4	0	48	80	0	1	99
fixed	2	7	10	343693	1	4	4	1	0	696	1	4	0	64	81	0	1	99
fixed	2	7	11	344911	5	2	2	1	0	1061	1	4	0	48	82	0	1	99
fixed	2	7	12	346502	4	3	3	1	0	882	1	4	0	56	83	0	1	99
fixed	2	8	1	348333	4	1	1	1	0	676	1	4	0	40	84	0	1	99
fixed	2	8	2	349498	1	2	2	1	0	1011	1	4	0	48	85	0	1	99
fixed	2	8	3	350966	6	4	4	1	0	901	1	4	0	64	86	0	1	99
fixed	2	8	4	352246	2	1	1	1	0	718	1	4	0	40	87	0	1	99
fixed	2	8	5	353347	5	3	3	1	0	1127	1	4	0	56	88	0	1	99
fixed	2	8	6	355313	6	4	4	1	0	773	1	4	0	64	89	0	1	99
fixed	2	8	7	356645	3	1	1	1	0	1156	1	4	0	40	90	0	1	99
fixed	2	8	8	358521	2	3	3	1	0	749	1	4	0	56	91	0	1	99
fixed	2	8	9	359868	3	2	2	1	0	691	1	4	0	48	92	0	1	99
fixed	2	8	10	361561	1	4	4	1	0	572	1	4	0	64	93	0	1	99
fixed	2	8	11	362440	5	2	2	1	0	918	1	4	0	48	94	0	1	99
fixed	2	8	12	364238	4	3	3	1	0	778	1	4	0	56	95	0	1	99
fixed	2	9	1	366159	4	1	1	1	0	729	1	4	0	40	96	0	1	99
fixed	2	9	2	367911	1	2	2	1	0	1030	1	4	0	48	97	0	1	99
fixed	2	9	3	369543	6	4	4	1	0	730	1	4	0	64	98	0	1	99
fixed	2	9	4	370847	2	1	1	1	0	994	1	4	0	40	99	0	1	99
fixed	2	9	5	372537	5	3	3	2	0	1547	2	4	0	56	100	0	1	99
fixed	2	9	6	374513	6	4	4	1	0	791	1	4	0	64	101	0	1	99
fixed	2	9	7	376117	3	1	1	2	0	1419	2	4	0	40	102	0	1	99
fixed	2	9	8	377979	2	3	3	1	0	1380	1	4	0	56	103	0	1	99
fixed	2	9	9	380097	3	2	2	1	0	610	1	4	0	48	104	0	1	99
fixed	2	9	10	381550	1	4	4	1	0	613	1	4	0	64	105	0	1	99
fixed	2	9	11	383123	5	2	2	1	0	954	1	4	0	48	106	0	1	99
fixed	2	9	12	384405	4	3	3	1	0	972	1	4	0	56	107	0	1	99
fixed	2	10	1	386560	4	1	1	1	0	761	1	4	0	40	108	0	1	99
fixed	2	10	2	387696	1	2	2	1	0	1224	1	4	0	48	109	0	1	99
fixed	2	10	3	389699	6	4	4	1	0	652	1	4	0	64	110	0	1	99
fixed	2	10	4	390870	2	1	1	1	0	666	1	4	0	40	111	0	1	99
fixed	2	10	5	392336	5	3	3	1	0	1116	1	4	0	56	112	0	1	99
fixed	2	10	6	394404	6	4	4	1	0	733	1	4	0	64	113	0	1	99
fixed	2	10	7	396142	3	1	1	1	0	899	1	4	0	40	114	0	1	99
fixed	2	10	8	397392	2	3	3	1	0	1070	1	4	0	56	115	0	1	99
fixed	2	10	9	399212	3	2	2	1	0	2265	1	4	0	48	116	0	1	99
fixed	2	10	10	402093	1	4	4	1	0	711	1	4	0	64	117	0	1	99
fixed	2	10	11	403463	5	2	2	1	0	781	1	4	0	48	118	0	1	99
fixed	2	10	12	405042	4	3	3	1	0	986	1	4	0	56	119	0	1	99
fixed	3	1	1	407559	4	1	1	1	0	943	1	4	0	72	1	0	0	100
fixed	3	1	2	409244	1	2	2	1	0	936	1	4	0	80	2	0	0	100
fixed	3	1	3	411021	6	4	4	1	0	813	1	4	0	96	3	0	0	100
fixed	3	1	4	412496	2	1	1	1	0	1070	1	4	0	72	4	0	0	100
fixed	3	1	5	414103	5	3	3	1	0	930	1	4	0	88	5	0	0	100
fixed	3	1	6	415513	6	4	4	1	0	742	1	4	0	96	6	0	0	100
fixed	3	1	7	416726	3	1	1	1	0	771	1	4	0	72	7	0	0	100
fixed	3	1	8	418366	2	3	3	2	0	1830	2	4	0	88	8	0	0	100
fixed	3	1	9	421125	3	2	2	1	0	777	1	4	0	80	9	0	0	100
fixed	3	1	10	422235	1	4	4	1	0	730	1	4	0	96	10	0	0	100
fixed	3	1	11	423669	5	2	2	1	0	1061	1	4	0	80	11	0	0	100
fixed	3	1	12	425135	4	3	3	2	0	1695	2	4	0	88	12	0	0	100
fixed	3	2	1	428128	4	1	1	1	0	728	1	4	0	72	13	0	0	100
fixed	3	2	2	429488	1	2	2	1	0	991	1	4	0	80	14	0	0	100
fixed	3	2	3	431016	6	4	4	1	0	750	1	4	0	96	15	0	0	100
fixed	3	2	4	432776	2	1	1	1	0	795	1	4	0	72	16	0	0	100
fixed	3	2	5	434384	5	3	3	1	0	1183	1	4	0	88	17	0	0	100
fixed	3	2	6	436522	6	4	4	1	0	773	1	4	0	96	18	0	0	100
fixed	3	2	7	438164	3	1	1	2	0	1311	2	4	0	72	19	0	0	100
fixed	3	2	8	439773	2	3	3	1	0	931	1	4	0	88	20	0	0	100
fixed	3	2	9	441490	3	2	2	1	0	603	1	4	0	80	21	0	0	100
fixed	3	2	10	442445	1	4	4	1	0	737	1	4	0	96	22	0	0	100
fixed	3	2	11	444063	5	2	2	1	0	1366	1	4	0	80	23	0	0	100
fixed	3	2	12	445829	4	3	3	1	0	1019	1	4	0	88	24	0	0	100
fixed	3	3	1	447442	4	1	1	1	0	734	1	4	0	72	25	0	0	100
fixed	3	3	2	448611	1	2	2	1	0	948	1	4	0	80	26	0	0	100
fixed	3	3	3	450361	6	4	4	1	0	683	1	4	0	96	27	0	0	100
fixed	3	3	4	451790	2	1	1	1	0	774	1	4	0	72	28	0	0	100
fixed	3	3	5	453152	5	3	3	1	0	941	1	4	0	88	29	0	0	100
fixed	3	3	6	454378	6	4	4	1	0	720	1	4	0	96	30	0	0	100
fixed	3	3	7	455836	3	1	1	2	0	1371	2	4	0	72	31	0	0	100
fixed	3	3	8	457771	2	3	3	1	0	1369	1	4	0	88	32	0	0	100
fixed	3	3	9	459631	3	2	2	1	0	778	1	4	0	80	33	0	0	100
fixed	3	3	10	461339	1	4	4	1	0	690	1	4	0	96	34	0	0	100
fixed	3	3	11	462316	5	2	2	1	0	1080	1	4	0	80	35	0	0	100
fixed	3	3	12	464213	4	3	3	1	0	920	1	4	0	88	36	0	0	100
fixed	3	4	1	465871	4	1	1	1	0	753	1	4	0	72	37	0	0	100
fixed	3	4	2	467551	1	2	2	1	0	835	1	4	0	80	38	0	0	100
fixed	3	4	3	469178	6	4	4	1	0	653	1	4	0	96	39	0	0	100
fixed	3	4	4	470852	2	1	1	1	0	782	1	4	0	72	40	0	0	100
fixed	3	4	5	472650	5	3	3	1	0	843	1	4	0	88	41	0	0	100
fixed	3	4	6	474155	6	4	4	1	0	674	1	4	0	96	42	0	0	100
fixed	3	4	7	475200	3	1	1	1	0	982	1	4	0	72	43	0	0	100
fixed	3	4	8	476733	2	3	3	1	0	1773	1	4	0	88	44	0	0	100
fixed	3	4	9	479225	3	2	2	2	0	1012	2	4	0	80	45	0	0	100
fixed	3	4	10	480707	1	4	4	1	0	557	1	4	0	96	46	0	0	100
fixed	3	4	11	481740	5	2	2	1	0	1081	1	4	0	80	47	0	0	100
fixed	3	4	12	483857	4	3	3	1	0	968	1	4	0	88	48	0	0	100
fixed	3	5	1	485853	4	1	1	1	0	803	1	4	0	72	49	0	0	100
fixed	3	5	2	487208	1	2	2	1	0	1146	1	4	0	80	50	0	0	100
fixed	3	5	3	489053	6	4	4	1	0	676	1	4	0	96	51	0	0	100
fixed	3	5	4	490419	2	1	1	1	0	738	1	4	0	72	52	0	0	100
fixed	3	5	5	491478	5	3	3	1	0	1269	1	4	0	88	53	0	0	100
fixed	3	5	6	493137	6	4	4	1	0	774	1	4	0	96	54	0	0	100
fixed	3	5	7	494891	3	1	1	1	0	972	1	4	0	72	55	0	0	100
fixed	3	5	8	496265	2	3	3	1	0	1530	1	4	0	88	56	0	0	100
fixed	3	5	9	498553	3	2	2	1	0	1057	1	4	0	80	57	0	0	100
fixed	3	5	10	500531	1	4	4	1	0	694	1	4	0	96	58	0	0	100
fixed	3	5	11	501532	5	2	2	3	0	2251	2	4	0	80	59	0	0	100
fixed	3	5	12	504374	4	3	3	1	0	1475	1	4	0	88	60	0	0	100
fixed	3	6	1	507122	4	1	1	1	0	734	1	4	0	72	61	0	0	100
fixed	3	6	2	508863	1	2	2	1	0	925	1	4	0	80	62	0	0	100
fixed	3	6	3	510174	6	4	4	1	0	789	1	4	0	96	63	0	0	100
fixed	3	6	4	511555	2	1	1	1	0	715	1	4	0	72	64	0	0	100
fixed	3	6	5	512648	5	3	3	1	0	1037	1	4	0	88	65	0	0	100
fixed	3	6	6	514217	6	4	4	1	0	794	1	4	0	96	66	0	0	100
fixed	3	6	7	515406	3	1	1	1	0	935	1	4	0	72	67	0	0	100
fixed	3	6	8	517069	2	3	3	2	0	2033	2	4	0	88	68	0	0	100
fixed	3	6	9	519954	3	2	2	1	0	895	1	4	0	80	69	0	0	100
fixed	3	6	10	521158	1	4	4	1	0	708	1	4	0	96	70	0	0	100
fixed	3	6	11	522700	5	2	2	1	0	1275	1	4	0	80	71	0	0	100
fixed	3	6	12	524363	4	3	3	1	0	1020	1	4	0	88	72	0	0	100
fixed	3	7	1	526035	4	1	1	1	0	757	1	4	0	72	73	0	0	100
fixed	3	7	2	527674	1	2	2	1	0	1024	1	4	0	80	74	0	0	100
fixed	3	7	3	529512	6	4	4	1	0	858	1	4	0	96	75	0	0	100
fixed	3	7	4	531017	2	1	1	2	0	770	2	4	0	72	76	0	0	100
fixed	3	7	5	532276	5	3	3	2	0	1605	2	4	0	88	77	0	0	100
fixed	3	7	6	534202	6	4	4	1	0	716	1	4	0	96	78	0	0	100
fixed	3	7	7	535399	3	1	1	1	0	793	1	4	0	72	79	0	0	100
fixed	3	7	8	536873	2	3	3	1	0	1243	1	4	0	88	80	0	0	100
fixed	3	7	9	538414	3	2	2	1	0	777	1	4	0	80	81	0	0	100
fixed	3	7	10	539765	1	4	4	1	0	576	1	4	0	96	82	0	0	100
fixed	3	7	11	540954	5	2	2	1	0	877	1	4	0	80	83	0	0	100
fixed	3	7	12	542720	4	3	3	1	0	939	1	4	0	88	84	0	0	100
fixed	3	8	1	544898	4	1	1	1	0	718	1	4	0	72	85	0	0	100
fixed	3	8	2	546194	1	2	2	1	0	1032	1	4	0	80	86	0	0	100
fixed	3	8	3	547752	6	4	4	1	0	821	1	4	0	96	87	0	0	100
fixed	3	8	4	549436	2	1	1	1	0	646	1	4	0	72	88	0	0	100
fixed	3	8	5	550602	5	3	3	1	0	1133	1	4	0	88	89	0	0	100
fixed	3	8	6	552487	6	4	4	1	0	741	1	4	0	96	90	0	0	100
fixed	3	8	7	554269	3	1	1	1	0	769	1	4	0	72	91	0	0	100
fixed	3	8	8	555746	2	3	3	1	0	1011	1	4	0	88	92	0	0	100
fixed	3	8	9	557191	3	2	2	1	0	838	1	4	0	80	93	0	0	100
fixed	3	8	10	558693	1	4	4	1	0	646	1	4	0	96	94	0	0	100
fixed	3	8	11	560082	5	2	2	1	0	851	1	4	0	80	95	0	0	100
fixed	3	8	12	561351	4	3	3	1	0	862	1	4	0	88	96	0	0	100
fixed	3	9	1	563427	4	1	1	1	0	733	1	4	0	72	97	0	0	100
fixed	3	9	2	565059	1	2	2	1	0	897	1	4	0	80	98	0	0	100
fixed	3	9	3	566284	6	4	4	1	0	828	1	4	0	96	99	0	0	100
fixed	3	9	4	568000	2	1	1	1	0	764	1	4	0	72	100	0	0	100
fixed	3	9	5	569301	5	3	3	1	0	861	1	4	0	88	101	0	0	100
fixed	3	9	6	570899	6	4	4	1	0	713	1	4	0	96	102	0	0	100
fixed	3	9	7	571945	3	1	1	1	0	1165	1	4	0	72	103	0	0	100
fixed	3	9	8	573601	2	3	3	1	0	991	1	4	0	88	104	0	0	100
fixed	3	9	9	575317	3	2	2	1	0	798	1	4	0	80	105	0	0	100
fixed	3	9	10	576557	1	4	4	1	0	649	1	4	0	96	106	0	0	100
fixed	3	9	11	577524	5	2	2	1	0	1001	1	4	0	80	107	0	0	100
fixed	3	9	12	578917	4	3	3	1	0	1061	1	4	0	88	108	0	0	100
fixed	3	10	1	581237	4	1	1	1	0	723	1	4	0	72	109	0	0	100
fixed	3	10	2	582828	1	2	2	1	0	840	1	4	0	80	110	0	0	100
fixed	3	10	3	584048	6	4	4	1	0	828	1	4	0	96	111	0	0	100
fixed	3	10	4	585706	2	1	1	1	0	926	1	4	0	72	112	0	0	100
fixed	3	10	5	587372	5	3	3	1	0	831	1	4	0	88	113	0	0	100
fixed	3	10	6	588750	6	4	4	1	0	765	1	4	0	96	114	0	0	100
fixed	3	10	7	589960	3	1	1	1	0	810	1	4	0	72	115	0	0	100
fixed	3	10	8	591077	2	3	3	2	0	1794	2	4	0	88	116	0	0	100
fixed	3	10	9	593678	3	2	2	1	0	965	1	4	0	80	117	0	0	100
fixed	3	10	10	595262	1	4	4	1	0	689	1	4	0	96	118	0	0	100
fixed	3	10	11	596719	5	2	2	1	0	996	1	4	0	80	119	0	0	100
fixed	3	10	12	598741	4	3	3	1	0	1022	1	4	0	88	120	0	0	100
fixed	4	1	1	783548	4	1	1	1	0	1042	1	4	0	104	1	0	0	100
fixed	4	1	2	785107	1	2	2	1	0	1416	1	4	0	112	2	0	0	100
fixed	4	1	3	787471	6	4	4	1	0	645	1	4	0	128	3	0	0	100
fixed	4	1	4	788759	2	1	1	1	0	862	1	4	0	104	4	0	0	100
fixed	4	1	5	790095	5	3	3	2	0	1509	2	4	0	120	5	0	0	100
fixed	4	1	6	791904	6	4	4	1	0	664	1	4	0	128	6	0	0	100
fixed	4	1	7	792965	3	1	1	1	0	708	1	4	0	104	7	0	0	100
fixed	4	1	8	794021	2	3	3	1	0	1407	1	4	0	120	8	0	0	100
fixed	4	1	9	796402	3	2	2	1	0	778	1	4	0	112	9	0	0	100
fixed	4	1	10	798041	1	4	4	1	0	757	1	4	0	128	10	0	0	100
fixed	4	1	11	799263	5	2	2	1	0	961	1	4	0	112	11	0	0	100
fixed	4	1	12	801157	4	3	3	1	0	736	1	4	0	120	12	0	0	100
fixed	4	2	1	802847	4	1	1	1	0	1225	1	4	0	104	13	0	0	100
fixed	4	2	2	804604	1	2	2	1	0	1047	1	4	0	112	14	0	0	100
fixed	4	2	3	806329	6	4	4	1	0	798	1	4	0	128	15	0	0	100
fixed	4	2	4	807854	2	1	1	1	0	805	1	4	0	104	16	0	0	100
fixed	4	2	5	809244	5	3	3	1	0	971	1	4	0	120	17	0	0	100
fixed	4	2	6	810686	6	4	4	1	0	701	1	4	0	128	18	0	0	100
fixed	4	2	7	812300	3	1	1	2	0	1257	2	4	0	104	19	0	0	100
fixed	4	2	8	814084	2	3	3	1	0	1285	1	4	0	120	20	0	0	100
fixed	4	2	9	816211	3	2	2	1	0	779	1	4	0	112	21	0	0	100
fixed	4	2	10	817603	1	4	4	1	0	576	1	4	0	128	22	0	0	100
fixed	4	2	11	819134	5	2	2	1	0	960	1	4	0	112	23	0	0	100
fixed	4	2	12	820597	4	3	3	1	0	897	1	4	0	120	24	0	0	100
fixed	4	3	1	822529	4	1	1	1	0	751	1	4	0	104	25	0	0	100
fixed	4	3	2	824293	1	2	2	1	0	1165	1	4	0	112	26	0	0	100
fixed	4	3	3	825983	6	4	4	1	0	861	1	4	0	128	27	0	0	100
fixed	4	3	4	827456	2	1	1	1	0	694	1	4	0	104	28	0	0	100
fixed	4	3	5	828739	5	3	3	1	0	833	1	4	0	120	29	0	0	100
fixed	4	3	6	830333	6	4	4	1	0	773	1	4	0	128	30	0	0	100
fixed	4	3	7	831846	3	1	1	1	0	677	1	4	0	104	31	0	0	100
fixed	4	3	8	832885	2	3	3	1	0	929	1	4	0	120	32	0	0	100
fixed	4	3	9	834301	3	2	2	1	0	677	1	4	0	112	33	0	0	100
fixed	4	3	10	835623	1	4	4	1	0	741	1	4	0	128	34	0	0	100
fixed	4	3	11	836788	5	2	2	1	0	876	1	4	0	112	35	0	0	100
fixed	4	3	12	838562	4	3	3	1	0	873	1	4	0	120	36	0	0	100
fixed	4	4	1	840256	4	1	1	1	0	872	1	4	0	104	37	0	0	100
fixed	4	4	2	842115	1	2	2	1	0	986	1	4	0	112	38	0	0	100
fixed	4	4	3	843704	6	4	4	1	0	783	1	4	0	128	39	0	0	100
fixed	4	4	4	845477	2	1	1	1	0	652	1	4	0	104	40	0	0	100
fixed	4	4	5	847082	5	3	3	1	0	920	1	4	0	120	41	0	0	100
fixed	4	4	6	848573	6	4	4	1	0	744	1	4	0	128	42	0	0	100
fixed	4	4	7	849621	3	1	1	1	0	724	1	4	0	104	43	0	0	100
fixed	4	4	8	850872	2	3	3	1	0	935	1	4	0	120	44	0	0	100
fixed	4	4	9	852125	3	2	2	1	0	762	1	4	0	112	45	0	0	100
fixed	4	4	10	853668	1	4	4	1	0	553	1	4	0	128	46	0	0	100
fixed	4	4	11	854526	5	2	2	1	0	908	1	4	0	112	47	0	0	100
fixed	4	4	12	855947	4	3	3	1	0	992	1	4	0	120	48	0	0	100
fixed	4	5	1	857715	4	1	1	1	0	829	1	4	0	104	49	0	0	100
fixed	4	5	2	858969	1	2	2	1	0	720	1	4	0	112	50	0	0	100
fixed	4	5	3	860045	6	4	4	1	0	595	1	4	0	128	51	0	0	100
fixed	4	5	4	861505	2	1	1	1	0	804	1	4	0	104	52	0	0	100
fixed	4	5	5	863164	5	3	3	1	0	766	1	4	0	120	53	0	0	100
fixed	4	5	6	864322	6	4	4	1	0	741	1	4	0	128	54	0	0	100
fixed	4	5	7	865569	3	1	1	1	0	808	1	4	0	104	55	0	0	100
fixed	4	5	8	866678	2	3	3	1	0	1018	1	4	0	120	56	0	0	100
fixed	4	5	9	868023	3	2	2	1	0	792	1	4	0	112	57	0	0	100
fixed	4	5	10	869166	1	4	4	1	0	704	1	4	0	128	58	0	0	100
fixed	4	5	11	870311	5	2	2	1	0	943	1	4	0	112	59	0	0	100
fixed	4	5	12	872062	4	3	3	1	0	782	1	4	0	120	60	0	0	100
fixed	4	6	1	874055	4	1	1	1	0	697	1	4	0	104	61	0	0	100
fixed	4	6	2	875294	1	2	2	1	0	804	1	4	0	112	62	0	0	100
fixed	4	6	3	876688	6	4	4	1	0	682	1	4	0	128	63	0	0	100
fixed	4	6	4	878172	2	1	1	1	0	683	1	4	0	104	64	0	0	100
fixed	4	6	5	879385	5	3	3	1	0	919	1	4	0	120	65	0	0	100
fixed	4	6	6	881129	6	4	4	1	0	758	1	4	0	128	66	0	0	100
fixed	4	6	7	882363	3	1	1	1	0	697	1	4	0	104	67	0	0	100
fixed	4	6	8	883535	2	3	3	1	0	840	1	4	0	120	68	0	0	100
fixed	4	6	9	885146	3	2	2	1	0	724	1	4	0	112	69	0	0	100
fixed	4	6	10	886193	1	4	4	1	0	759	1	4	0	128	70	0	0	100
fixed	4	6	11	887594	5	2	2	1	0	940	1	4	0	112	71	0	0	100
fixed	4	6	12	889569	4	3	3	1	0	712	1	4	0	120	72	0	0	100
fixed	4	7	1	890847	4	1	1	1	0	714	1	4	0	104	73	0	0	100
fixed	4	7	2	892278	1	2	2	1	0	686	1	4	0	112	74	0	0	100
fixed	4	7	3	893370	6	4	4	1	0	607	1	4	0	128	75	0	0	100
fixed	4	7	4	894485	2	1	1	1	0	696	1	4	0	104	76	0	0	100
fixed	4	7	5	895825	5	3	3	1	0	959	1	4	0	120	77	0	0	100
fixed	4	7	6	897673	6	4	4	1	0	649	1	4	0	128	78	0	0	100
fixed	4	7	7	898635	3	1	1	2	0	1232	2	4	0	104	79	0	0	100
fixed	4	7	8	900607	2	3	3	1	0	1140	1	4	0	120	80	0	0	100
fixed	4	7	9	902505	3	2	2	1	0	580	1	4	0	112	81	0	0	100
fixed	4	7	10	903532	1	4	4	1	0	721	1	4	0	128	82	0	0	100
fixed	4	7	11	905278	5	2	2	1	0	887	1	4	0	112	83	0	0	100
fixed	4	7	12	907012	4	3	3	2	0	813	2	4	0	120	84	0	0	100
fixed	4	8	1	908674	4	1	1	1	0	703	1	4	0	104	85	0	0	100
fixed	4	8	2	910421	1	2	2	1	0	1117	1	4	0	112	86	0	0	100
fixed	4	8	3	912208	6	4	4	1	0	737	1	4	0	128	87	0	0	100
fixed	4	8	4	913805	2	1	1	1	0	621	1	4	0	104	88	0	0	100
fixed	4	8	5	914910	5	3	3	1	0	1047	1	4	0	120	89	0	0	100
fixed	4	8	6	916336	6	4	4	1	0	746	1	4	0	128	90	0	0	100
fixed	4	8	7	917562	3	1	1	1	0	1278	1	4	0	104	91	0	0	100
fixed	4	8	8	919579	2	3	3	1	0	1265	1	4	0	120	92	0	0	100
fixed	4	8	9	921750	3	2	2	1	0	885	1	4	0	112	93	0	0	100
fixed	4	8	10	923605	1	4	4	1	0	855	1	4	0	128	94	0	0	100
fixed	4	8	11	924753	5	2	2	1	0	918	1	4	0	112	95	0	0	100
fixed	4	8	12	926098	4	3	3	2	0	1141	2	4	0	120	96	0	0	100
fixed	4	9	1	927887	4	1	1	1	0	953	1	4	0	104	97	0	0	100
fixed	4	9	2	929487	1	2	2	1	0	854	1	4	0	112	98	0	0	100
fixed	4	9	3	931164	6	4	4	2	0	990	2	4	0	128	99	0	0	100
fixed	4	9	4	933112	2	1	1	1	0	732	1	4	0	104	100	0	0	100
fixed	4	9	5	934236	5	3	3	1	0	1036	1	4	0	120	101	0	0	100
fixed	4	9	6	936182	6	4	4	1	0	698	1	4	0	128	102	0	0	100
fixed	4	9	7	937817	3	1	1	2	0	764	2	4	0	104	103	0	0	100
fixed	4	9	8	939040	2	3	3	1	0	1121	1	4	0	120	104	0	0	100
fixed	4	9	9	941140	3	2	2	1	0	840	1	4	0	112	105	0	0	100
fixed	4	9	10	942907	1	4	4	1	0	893	1	4	0	128	106	0	0	100
fixed	4	9	11	944627	5	2	2	1	0	860	1	4	0	112	107	0	0	100
fixed	4	9	12	946269	4	3	3	2	0	1542	2	4	0	120	108	0	0	100
fixed	4	10	1	948605	4	1	1	1	0	771	1	4	0	104	109	0	0	100
fixed	4	10	2	950376	1	2	2	1	0	848	1	4	0	112	110	0	0	100
fixed	4	10	3	951924	6	4	4	1	0	743	1	4	0	128	111	0	0	100
fixed	4	10	4	953080	2	1	1	1	0	806	1	4	0	104	112	0	0	100
fixed	4	10	5	954220	5	3	3	1	0	1110	1	4	0	120	113	0	0	100
fixed	4	10	6	955934	6	4	4	1	0	805	1	4	0	128	114	0	0	100
fixed	4	10	7	957344	3	1	1	1	0	753	1	4	0	104	115	0	0	100
fixed	4	10	8	958700	2	3	3	1	0	1024	1	4	0	120	116	0	0	100
fixed	4	10	9	960699	3	2	2	1	0	819	1	4	0	112	117	0	0	100
fixed	4	10	10	961844	1	4	4	1	0	731	1	4	0	128	118	0	0	100
fixed	4	10	11	963501	5	2	2	1	0	1245	1	4	0	112	119	0	0	100
fixed	4	10	12	965269	4	3	3	1	0	698	1	4	0	120	120	0	0	100
fixed	5	1	1	966897	4	1	1	1	0	788	1	4	0	136	1	0	0	100
fixed	5	1	2	968472	1	2	2	1	0	882	1	4	0	144	2	0	0	100
fixed	5	1	3	970275	6	4	4	1	0	933	1	4	0	160	3	0	0	100
fixed	5	1	4	972150	2	1	1	1	0	854	1	4	0	136	4	0	0	100
fixed	5	1	5	973707	5	3	3	1	0	1164	1	4	0	152	5	0	0	100
fixed	5	1	6	975671	6	4	4	1	0	801	1	4	0	160	6	0	0	100
fixed	5	1	7	977450	3	1	1	1	0	774	1	4	0	136	7	0	0	100
fixed	5	1	8	978951	2	3	3	1	0	1366	1	4	0	152	8	0	0	100
fixed	5	1	9	980611	3	2	2	1	0	696	1	4	0	144	9	0	0	100
fixed	5	1	10	981663	1	4	4	1	0	636	1	4	0	160	10	0	0	100
fixed	5	1	11	983282	5	2	2	1	0	967	1	4	0	144	11	0	0	100
fixed	5	1	12	985196	4	3	3	1	0	702	1	4	0	152	12	0	0	100
fixed	5	2	1	986732	4	1	1	1	0	964	1	4	0	136	13	0	0	100
fixed	5	2	2	988045	1	2	2	1	0	725	1	4	0	144	14	0	0	100
fixed	5	2	3	989198	6	4	4	1	0	692	1	4	0	160	15	0	0	100
fixed	5	2	4	990673	2	1	1	1	0	733	1	4	0	136	16	0	0	100
fixed	5	2	5	992108	5	3	3	1	0	1025	1	4	0	152	17	0	0	100
fixed	5	2	6	993981	6	4	4	1	0	729	1	4	0	160	18	0	0	100
fixed	5	2	7	995134	3	1	1	1	0	769	1	4	0	136	19	0	0	100
fixed	5	2	8	996397	2	3	3	1	0	971	1	4	0	152	20	0	0	100
fixed	5	2	9	997848	3	2	2	1	0	758	1	4	0	144	21	0	0	100
fixed	5	2	10	999005	1	4	4	1	0	925	1	4	0	160	22	0	0	100
fixed	5	2	11	1000849	5	2	2	1	0	966	1	4	0	144	23	0	0	100
fixed	5	2	12	1002782	4	3	3	1	0	1133	1	4	0	152	24	0	0	100
fixed	5	3	1	1005144	4	1	1	1	0	865	1	4	0	136	25	0	0	100
fixed	5	3	2	1006387	1	2	2	1	0	972	1	4	0	144	26	0	0	100
fixed	5	3	3	1007845	6	4	4	1	0	759	1	4	0	160	27	0	0	100
fixed	5	3	4	1009360	2	1	1	1	0	718	1	4	0	136	28	0	0	100
fixed	5	3	5	1010434	5	3	3	1	0	1233	1	4	0	152	29	0	0	100
fixed	5	3	6	1012338	6	4	4	1	0	736	1	4	0	160	30	0	0	100
fixed	5	3	7	1014068	3	1	1	1	0	1111	1	4	0	136	31	0	0	100
fixed	5	3	8	1015961	2	3	3	1	0	1335	1	4	0	152	32	0	0	100
fixed	5	3	9	1017796	3	2	2	1	0	825	1	4	0	144	33	0	0	100
fixed	5	3	10	1019565	1	4	4	1	0	790	1	4	0	160	34	0	0	100
fixed	5	3	11	1021326	5	2	2	1	0	1412	1	4	0	144	35	0	0	100
fixed	5	3	12	1023297	4	3	3	1	0	912	1	4	0	152	36	0	0	100
fixed	5	4	1	1024808	4	1	1	1	0	832	1	4	0	136	37	0	0	100
fixed	5	4	2	1026496	1	2	2	2	0	1576	2	4	0	144	38	0	0	100
fixed	5	4	3	1028865	6	4	4	1	0	788	1	4	0	160	39	0	0	100
fixed	5	4	4	1030132	2	1	1	1	0	743	1	4	0	136	40	0	0	100
fixed	5	4	5	1031326	5	3	0	1	2	0	3	4	0	152	40	0	1	98
fixed	5	4	6	1034191	6	4	4	1	0	1651	1	4	0	160	41	0	1	98
fixed	5	4	7	1036308	3	1	1	1	0	745	1	4	0	136	42	0	1	98
fixed	5	4	8	1037623	2	3	3	1	0	977	1	4	0	152	43	0	1	98
fixed	5	4	9	1039614	3	2	2	1	0	781	1	4	0	144	44	0	1	98
fixed	5	4	10	1041313	1	4	4	1	0	781	1	4	0	160	45	0	1	98
fixed	5	4	11	1043106	5	2	2	1	0	1193	1	4	0	144	46	0	1	98
fixed	5	4	12	1045214	4	3	3	1	0	872	1	4	0	152	47	0	1	98
fixed	5	5	1	1046913	4	1	1	1	0	712	1	4	0	136	48	0	1	98
fixed	5	5	2	1048096	1	2	2	1	0	789	1	4	0	144	49	0	1	98
fixed	5	5	3	1049372	6	4	4	1	0	687	1	4	0	160	50	0	1	98
fixed	5	5	4	1050926	2	1	1	1	0	718	1	4	0	136	51	0	1	98
fixed	5	5	5	1052292	5	3	3	1	0	1180	1	4	0	152	52	0	1	98
fixed	5	5	6	1054142	6	4	4	1	0	726	1	4	0	160	53	0	1	98
fixed	5	5	7	1055302	3	1	1	1	0	884	1	4	0	136	54	0	1	98
fixed	5	5	8	1056901	2	3	3	1	0	1000	1	4	0	152	55	0	1	98
fixed	5	5	9	1058682	3	2	2	1	0	725	1	4	0	144	56	0	1	98
fixed	5	5	10	1059744	1	4	4	1	0	680	1	4	0	160	57	0	1	98
fixed	5	5	11	1061235	5	2	2	1	0	857	1	4	0	144	58	0	1	98
fixed	5	5	12	1062532	4	3	3	1	0	762	1	4	0	152	59	0	1	98
fixed	5	6	1	1064589	4	1	1	1	0	731	1	4	0	136	60	0	1	98
fixed	5	6	2	1065655	1	2	2	1	0	806	1	4	0	144	61	0	1	98
fixed	5	6	3	1067003	6	4	4	1	0	669	1	4	0	160	62	0	1	98
fixed	5	6	4	1068516	2	1	1	1	0	741	1	4	0	136	63	0	1	98
fixed	5	6	5	1070282	5	3	3	2	0	1602	2	4	0	152	64	0	1	98
fixed	5	6	6	1072644	6	4	4	1	0	710	1	4	0	160	65	0	1	98
fixed	5	6	7	1074073	3	1	1	1	0	1138	1	4	0	136	66	0	1	99
fixed	5	6	8	1075779	2	3	3	2	0	1593	2	4	0	152	67	0	1	99
fixed	5	6	9	1077794	3	2	2	1	0	884	1	4	0	144	68	0	1	99
fixed	5	6	10	1079316	1	4	4	1	0	667	1	4	0	160	69	0	1	99
fixed	5	6	11	1080823	5	2	2	1	0	892	1	4	0	144	70	0	1	99
fixed	5	6	12	1082625	4	3	3	1	0	831	1	4	0	152	71	0	1	99
fixed	5	7	1	1084672	4	1	1	1	0	984	1	4	0	136	72	0	1	99
fixed	5	7	2	1086070	1	2	2	1	0	837	1	4	0	144	73	0	1	99
fixed	5	7	3	1087468	6	4	4	1	0	634	1	4	0	160	74	0	1	99
fixed	5	7	4	1088525	2	1	1	1	0	917	1	4	0	136	75	0	1	99
fixed	5	7	5	1090298	5	3	3	1	0	986	1	4	0	152	76	0	1	99
fixed	5	7	6	1092196	6	4	4	1	0	786	1	4	0	160	77	0	1	99
fixed	5	7	7	1093944	3	1	1	1	0	823	1	4	0	136	78	0	1	99
fixed	5	7	8	1095486	2	3	3	1	0	1078	1	4	0	152	79	0	1	99
fixed	5	7	9	1097251	3	2	2	1	0	667	1	4	0	144	80	0	1	99
fixed	5	7	10	1098286	1	4	4	1	0	679	1	4	0	160	81	0	1	99
fixed	5	7	11	1099956	5	2	2	1	0	953	1	4	0	144	82	0	1	99
fixed	5	7	12	1101442	4	3	3	2	0	834	2	4	0	152	83	0	1	99
fixed	5	8	1	1103084	4	1	1	1	0	884	1	4	0	136	84	0	1	99
fixed	5	8	2	1104729	1	2	2	1	0	1143	1	4	0	144	85	0	1	99
fixed	5	8	3	1106473	6	4	4	1	0	773	1	4	0	160	86	0	1	99
fixed	5	8	4	1108181	2	1	1	1	0	1437	1	4	0	136	87	0	1	99
fixed	5	8	5	1110300	5	3	3	1	0	1235	1	4	0	152	88	0	1	99
fixed	5	8	6	1111953	6	4	4	1	0	741	1	4	0	160	89	0	1	99
fixed	5	8	7	1113035	3	1	1	1	0	743	1	4	0	136	90	0	1	99
fixed	5	8	8	1114762	2	3	3	1	0	1262	1	4	0	152	91	0	1	99
fixed	5	8	9	1116760	3	2	2	2	0	1154	2	4	0	144	92	0	1	99
fixed	5	8	10	1118389	1	4	4	1	0	772	1	4	0	160	93	0	1	99
fixed	5	8	11	1120185	5	2	2	1	0	1024	1	4	0	144	94	0	1	99
fixed	5	8	12	1121621	4	3	3	1	0	1044	1	4	0	152	95	0	1	99
fixed	5	9	1	1123283	4	1	1	1	0	797	1	4	0	136	96	0	1	99
fixed	5	9	2	1124687	1	2	2	1	0	921	1	4	0	144	97	0	1	99
fixed	5	9	3	1126375	6	4	4	1	0	714	1	4	0	160	98	0	1	99
fixed	5	9	4	1127437	2	1	1	1	0	1109	1	4	0	136	99	0	1	99
fixed	5	9	5	1128972	5	3	3	1	0	908	1	4	0	152	100	0	1	99
fixed	5	9	6	1130315	6	4	4	1	0	747	1	4	0	160	101	0	1	99
fixed	5	9	7	1131581	3	1	1	1	0	806	1	4	0	136	102	0	1	99
fixed	5	9	8	1133058	2	3	3	1	0	935	1	4	0	152	103	0	1	99
fixed	5	9	9	1134645	3	2	2	1	0	684	1	4	0	144	104	0	1	99
fixed	5	9	10	1136020	1	4	4	1	0	602	1	4	0	160	105	0	1	99
fixed	5	9	11	1137354	5	2	2	1	0	1041	1	4	0	144	106	0	1	99
fixed	5	9	12	1138732	4	3	3	1	0	767	1	4	0	152	107	0	1	99
fixed	5	10	1	1140125	4	1	1	1	0	1020	1	4	0	136	108	0	1	99
fixed	5	10	2	1141613	1	2	2	1	0	813	1	4	0	144	109	0	1	99
fixed	5	10	3	1143306	6	4	4	1	0	661	1	4	0	160	110	0	1	99
fixed	5	10	4	1144753	2	1	1	1	0	703	1	4	0	136	111	0	1	99
fixed	5	10	5	1145968	5	3	3	1	0	1013	1	4	0	152	112	0	1	99
fixed	5	10	6	1147301	6	4	4	1	0	788	1	4	0	160	113	0	1	99
fixed	5	10	7	1148386	3	1	1	1	0	998	1	4	0	136	114	0	1	99
fixed	5	10	8	1150227	2	3	3	2	0	1336	2	4	0	152	115	0	1	99
fixed	5	10	9	1152390	3	2	2	1	0	884	1	4	0	144	116	0	1	99
fixed	5	10	10	1153954	1	4	4	1	0	786	1	4	0	160	117	0	1	99
fixed	5	10	11	1155605	5	2	2	1	0	772	1	4	0	144	118	0	1	99
fixed	5	10	12	1157398	4	3	3	1	0	1352	1	4	0	152	119	0	1	99
random	6	1	1	1280233	6	1	1	1	0	765	1	4	0	168	1	0	0	100
random	6	1	2	1281636	4	4	4	1	0	690	1	4	0	192	2	0	0	100
random	6	1	3	1283191	2	2	2	1	0	848	1	4	0	176	3	0	0	100
random	6	1	4	1284560	3	3	3	1	0	942	1	4	0	184	4	0	0	100
random	6	1	5	1286373	5	2	2	1	0	761	1	4	0	176	5	0	0	100
random	6	1	6	1288111	1	4	4	1	0	568	1	4	0	192	6	0	0	100
random	6	1	7	1289149	6	1	1	2	0	1196	2	4	0	168	7	0	0	100
random	6	1	8	1290706	2	3	3	1	0	978	1	4	0	184	8	0	0	100
random	6	1	9	1292687	4	2	2	1	0	742	1	4	0	176	9	0	0	100
random	6	1	10	1294046	1	1	1	1	0	773	1	4	0	168	10	0	0	100
random	6	1	11	1295419	5	4	4	1	0	651	1	4	0	192	11	0	0	100
random	6	1	12	1296749	3	3	3	1	0	946	1	4	0	184	12	0	0	100
random	6	1	13	1298897	5	2	2	1	0	935	1	4	0	176	13	0	0	100
random	6	1	14	1300791	1	4	4	1	0	799	1	4	0	192	14	0	0	100
random	6	1	15	1302477	3	1	1	1	0	679	1	4	0	168	15	0	0	100
random	6	1	16	1303661	4	3	3	1	0	989	1	4	0	184	16	0	0	100
random	6	1	17	1305121	6	4	4	1	0	679	1	4	0	192	17	0	0	100
random	6	1	18	1306544	2	1	1	1	0	659	1	4	0	168	18	0	0	100
random	6	1	19	1308231	5	3	0	1	2	0	3	4	0	184	18	0	1	95
random	6	1	20	1311469	2	2	2	2	0	1971	2	4	0	176	19	0	1	95
random	6	1	21	1313864	3	3	3	1	0	973	1	4	0	184	20	0	1	95
random	6	1	22	1315194	6	1	1	1	0	1965	1	4	0	168	21	0	1	95
random	6	1	23	1318127	4	2	2	1	0	896	1	4	0	176	22	0	1	96
random	6	1	24	1319918	1	4	4	1	0	732	1	4	0	192	23	0	1	96
random	6	1	25	1321887	4	3	0	1	2	0	3	4	0	184	23	0	2	92
random	6	1	26	1325145	2	1	1	1	0	1103	1	4	0	168	24	0	2	92
random	6	1	27	1327070	5	2	2	1	0	894	1	4	0	176	25	0	2	93
random	6	1	28	1328948	6	4	4	1	0	646	1	4	0	192	26	0	2	93
random	6	1	29	1330352	1	3	3	1	0	899	1	4	0	184	27	0	2	93
random	6	1	30	1331862	5	2	2	1	0	747	1	4	0	176	28	0	2	93
random	6	1	31	1333445	2	1	1	2	0	1448	2	4	0	168	29	0	2	94
random	6	1	32	1335859	3	3	3	1	0	1097	1	4	0	184	30	0	2	94
random	6	1	33	1337710	6	4	4	1	0	811	1	4	0	192	31	0	2	94
random	6	1	34	1339006	4	2	2	1	0	868	1	4	0	176	32	0	2	94
random	6	1	35	1340328	3	4	4	1	0	1036	1	4	0	192	33	0	2	94
random	6	1	36	1341876	1	1	1	2	0	1523	2	4	0	168	34	0	2	94
random	6	1	37	1344225	3	4	4	1	0	823	1	4	0	192	35	0	2	95
random	6	1	38	1346033	5	3	3	3	0	1650	2	4	0	184	36	0	2	95
random	6	1	39	1348713	6	1	1	1	0	1041	1	4	0	168	37	0	2	95
random	6	1	40	1350615	1	2	2	1	0	817	1	4	0	176	38	0	2	95
random	6	1	41	1351961	2	3	3	2	0	1655	2	4	0	184	39	0	2	95
random	6	1	42	1354020	4	4	4	1	0	664	1	4	0	192	40	0	2	95
random	6	1	43	1355227	1	2	2	1	0	1157	1	4	0	176	41	0	2	95
random	6	1	44	1356708	6	3	3	1	0	1198	1	4	0	184	42	0	2	95
random	6	1	45	1358781	3	1	1	1	0	1015	1	4	0	168	43	0	2	96
random	6	1	46	1360559	4	4	4	1	0	660	1	4	0	192	44	0	2	96
random	6	1	47	1362139	2	2	2	1	0	872	1	4	0	176	45	0	2	96
random	6	1	48	1363755	5	1	1	1	0	1180	1	4	0	168	46	0	2	96
random	6	1	49	1365878	2	3	3	1	0	1202	1	4	0	184	47	0	2	96
random	6	1	50	1368032	3	1	1	1	0	998	1	4	0	168	48	0	2	96
random	6	1	51	1369926	1	4	4	1	0	703	1	4	0	192	49	0	2	96
random	6	1	52	1371354	5	3	3	1	0	1378	1	4	0	184	50	0	2	96
random	6	1	53	1373155	3	2	2	1	0	726	1	4	0	176	51	0	2	96
random	6	1	54	1374212	6	4	4	1	0	705	1	4	0	192	52	0	2	96
random	6	1	55	1375840	4	2	2	1	0	988	1	4	0	176	53	0	2	96
random	6	1	56	1377423	1	1	1	1	0	1153	1	4	0	168	54	0	2	96
random	6	1	57	1379551	5	4	4	1	0	911	1	4	0	192	55	0	2	96
random	6	1	58	1381246	2	1	1	1	0	1032	1	4	0	168	56	0	2	97
random	6	1	59	1382722	6	2	2	1	0	873	1	4	0	176	57	0	2	97
random	6	1	60	1383906	4	3	3	1	0	918	1	4	0	184	58	0	2	97
random	6	1	61	1386078	1	2	2	1	0	946	1	4	0	176	59	0	2	97
random	6	1	62	1387506	6	4	4	1	0	678	1	4	0	192	60	0	2	97
random	6	1	63	1388602	4	1	1	1	0	1031	1	4	0	168	61	0	2	97
random	6	1	64	1390667	2	2	2	1	0	816	1	4	0	176	62	0	2	97
random	6	1	65	1392492	4	3	3	1	0	819	1	4	0	184	63	0	2	97
random	6	1	66	1393855	3	1	1	1	0	793	1	4	0	168	64	0	2	97
random	6	1	67	1395262	1	3	3	1	0	990	1	4	0	184	65	0	2	97
random	6	1	68	1397092	5	4	4	1	0	760	1	4	0	192	66	0	2	97
random	6	1	69	1398333	2	2	2	1	0	828	1	4	0	176	67	0	2	97
random	6	1	70	1399896	3	1	1	1	0	657	1	4	0	168	68	0	2	97
random	6	1	71	1400985	5	4	4	1	0	699	1	4	0	192	69	0	2	97
random	6	1	72	1402429	6	3	3	1	0	902	1	4	0	184	70	0	2	97
random	6	1	73	1404273	2	1	1	1	0	1224	1	4	0	168	71	0	2	97
random	6	1	74	1406167	5	3	3	1	0	848	1	4	0	184	72	0	2	97
random	6	1	75	1407910	1	4	4	1	0	758	1	4	0	192	73	0	2	97
random	6	1	76	1409514	6	2	2	1	0	922	1	4	0	176	74	0	2	97
random	6	1	77	1411020	2	1	1	1	0	914	1	4	0	168	75	0	2	97
random	6	1	78	1412821	4	4	4	1	0	806	1	4	0	192	76	0	2	97
random	6	1	79	1414148	3	2	2	1	0	981	1	4	0	176	77	0	2	97
random	6	1	80	1416082	4	3	3	1	0	796	1	4	0	184	78	0	2	98
random	6	1	81	1417876	1	4	4	1	0	752	1	4	0	192	79	0	2	98
random	6	1	82	1419662	5	1	1	1	0	732	1	4	0	168	80	0	2	98
random	6	1	83	1420927	3	2	2	1	0	751	1	4	0	176	81	0	2	98
random	6	1	84	1422449	6	3	3	1	0	806	1	4	0	184	82	0	2	98
random	6	1	85	1423954	3	2	2	2	0	1142	2	4	0	176	83	0	2	98
random	6	1	86	1425975	1	3	3	1	0	736	1	4	0	184	84	0	2	98
random	6	1	87	1427199	4	4	4	1	0	725	1	4	0	192	85	0	2	98
random	6	1	88	1428667	2	1	1	1	0	702	1	4	0	168	86	0	2	98
random	6	1	89	1429731	6	4	4	1	0	1410	1	4	0	192	87	0	2	98
random	6	1	90	1431495	3	3	3	2	0	999	2	4	0	184	88	0	2	98
random	6	1	91	1432821	5	4	4	2	0	1423	2	4	0	192	89	0	2	98
random	6	1	92	1434889	1	2	2	1	0	823	1	4	0	176	90	0	2	98
random	6	1	93	1436000	5	1	1	1	0	872	1	4	0	168	91	0	2	98
random	6	1	94	1437494	4	3	3	1	0	993	1	4	0	184	92	0	2	98
random	6	1	95	1439125	6	1	1	1	0	940	1	4	0	168	93	0	2	98
random	6	1	96	1440458	2	2	2	1	0	1059	1	4	0	176	94	0	2	98
random	6	1	97	1442516	4	3	3	1	0	892	1	4	0	184	95	0	2	98
random	6	1	98	1443944	3	2	2	1	0	752	1	4	0	176	96	0	2	98
random	6	1	99	1445594	6	3	3	1	0	866	1	4	0	184	97	0	2	98
random	6	1	100	1446763	1	4	4	1	0	784	1	4	0	192	98	0	2	98
random	6	1	101	1448415	4	1	1	1	0	530	1	4	0	168	99	0	2	98
random	6	1	102	1449923	5	2	2	1	0	834	1	4	0	176	100	0	2	98
random	6	1	103	1451267	2	4	4	1	0	826	1	4	0	192	101	0	2	98
random	6	1	104	1452609	3	1	1	1	0	824	1	4	0	168	102	0	2	98
random	6	1	105	1453749	1	3	3	1	0	688	1	4	0	184	103	0	2	98
random	6	1	106	1455126	2	2	2	1	0	926	1	4	0	176	104	0	2	98
random	6	1	107	1456570	5	4	4	1	0	745	1	4	0	192	105	0	2	98
random	6	1	108	1458082	6	1	1	1	0	1001	1	4	0	168	106	0	2	98
random	6	1	109	1459792	5	4	4	1	0	784	1	4	0	192	107	0	2	98
random	6	1	110	1461196	6	3	3	1	0	1365	1	4	0	184	108	0	2	98
random	6	1	111	1463398	2	2	2	1	0	784	1	4	0	176	109	0	2	98
random	6	1	112	1464859	3	1	1	1	0	786	1	4	0	168	110	0	2	98
random	6	1	113	1466674	1	2	2	1	0	941	1	4	0	176	111	0	2	98
random	6	1	114	1467964	2	3	3	1	0	742	1	4	0	184	112	0	2	98
random	6	1	115	1469524	3	1	1	1	0	780	1	4	0	168	113	0	2	98
random	6	1	116	1470670	4	4	4	2	0	1051	2	4	0	192	114	0	2	98
random	6	1	117	1472526	6	1	1	1	0	981	1	4	0	168	115	0	2	98
random	6	1	118	1474453	5	3	3	1	0	1275	1	4	0	184	116	0	2	98
random	6	1	119	1476265	1	4	4	1	0	686	1	4	0	192	117	0	2	98
random	6	1	120	1477783	4	2	2	1	0	975	1	4	0	176	118	0	2	98
fixed	7	1	1	1480090	4	1	1	1	0	1012	1	4	0	200	1	0	0	100
fixed	7	1	2	1481741	1	2	2	1	0	1103	1	4	0	208	2	0	0	100
fixed	7	1	3	1483551	6	4	4	1	0	642	1	4	0	224	3	0	0	100
fixed	7	1	4	1485066	2	1	1	1	0	762	1	4	0	200	4	0	0	100
fixed	7	1	5	1486731	5	3	3	1	0	1035	1	4	0	216	5	0	0	100
fixed	7	1	6	1488142	6	4	4	1	0	639	1	4	0	224	6	0	0	100
fixed	7	1	7	1489295	3	1	1	1	0	607	1	4	0	200	7	0	0	100
fixed	7	1	8	1490747	2	3	3	1	0	1009	1	4	0	216	8	0	0	100
fixed	7	1	9	1492409	3	2	2	1	0	579	1	4	0	208	9	0	0	100
fixed	7	1	10	1493816	1	4	4	1	0	847	1	4	0	224	10	0	0	100
fixed	7	1	11	1495380	5	2	2	1	0	1261	1	4	0	208	11	0	0	100
fixed	7	1	12	1497264	4	3	3	1	0	621	1	4	0	216	12	0	0	100
fixed	7	2	1	1498521	4	1	1	1	0	784	1	4	0	200	1	0	0	8
fixed	7	2	2	1500248	1	2	2	1	0	1095	1	4	0	208	2	0	0	14
fixed	7	2	3	1502208	6	4	4	1	0	692	1	4	0	224	3	0	0	20
fixed	7	2	4	1503697	2	1	1	1	0	764	1	4	0	200	4	0	0	25
fixed	7	2	5	1505317	5	3	3	1	0	1056	1	4	0	216	5	0	0	29
fixed	7	2	6	1506945	6	4	4	1	0	771	1	4	0	224	6	0	0	33
fixed	7	2	7	1508610	3	1	1	1	0	1156	1	4	0	200	7	0	0	37
fixed	7	2	8	1510537	2	3	3	1	0	1251	1	4	0	216	8	0	0	40
fixed	7	2	9	1512575	3	2	2	1	0	709	1	4	0	208	9	0	0	43
fixed	7	2	10	1514169	1	4	4	1	0	673	1	4	0	224	10	0	0	45
fixed	7	2	11	1515659	5	2	2	1	0	1258	1	4	0	208	11	0	0	48
fixed	7	2	12	1517728	4	3	3	1	0	1075	1	4	0	216	12	0	0	50
fixed	7	3	1	1519639	4	1	1	1	0	857	1	4	0	200	1	0	0	4
fixed	7	3	2	1521025	1	2	2	1	0	967	1	4	0	208	2	0	0	8
fixed	7	3	3	1522464	6	4	4	1	0	858	1	4	0	224	3	0	0	11
fixed	7	3	4	1524261	2	1	1	1	0	766	1	4	0	200	4	0	0	14
fixed	7	3	5	1525577	5	3	3	2	0	1366	2	4	0	216	5	0	0	17
fixed	7	3	6	1527454	6	4	4	1	0	791	1	4	0	224	6	0	0	20
fixed	7	3	7	1528759	3	1	1	1	0	951	1	4	0	200	7	0	0	23
fixed	7	3	8	1530225	2	3	3	1	0	1081	1	4	0	216	8	0	0	25
fixed	7	3	9	1531648	3	2	2	1	0	845	1	4	0	208	9	0	0	27
fixed	7	3	10	1532973	1	4	4	1	0	709	1	4	0	224	10	0	0	29
fixed	7	3	11	1534149	5	2	2	1	0	1035	1	4	0	208	11	0	0	31
fixed	7	3	12	1535587	4	3	3	1	0	854	1	4	0	216	12	0	0	33
fixed	7	4	1	1537499	4	1	1	1	0	781	1	4	0	200	1	0	0	3
fixed	7	4	2	1538619	1	2	2	1	0	981	1	4	0	208	2	0	0	5
fixed	7	4	3	1540434	6	4	4	1	0	713	1	4	0	224	3	0	0	8
fixed	7	4	4	1542110	2	1	1	1	0	826	1	4	0	200	4	0	0	10
fixed	7	4	5	1543972	5	3	3	1	0	995	1	4	0	216	5	0	0	12
fixed	7	4	6	1545902	6	4	4	1	0	697	1	4	0	224	6	0	0	14
fixed	7	4	7	1547471	3	1	1	1	0	686	1	4	0	200	7	0	0	16
fixed	7	4	8	1548728	2	3	3	1	0	1033	1	4	0	216	8	0	0	18
fixed	7	4	9	1550477	3	2	2	1	0	832	1	4	0	208	9	0	0	20
fixed	7	4	10	1551917	1	4	4	1	0	594	1	4	0	224	10	0	0	22
fixed	7	4	11	1553371	5	2	2	1	0	1021	1	4	0	208	11	0	0	23
fixed	7	4	12	1555001	4	3	3	1	0	760	1	4	0	216	12	0	0	25
fixed	7	5	1	1556847	4	1	1	1	0	881	1	4	0	200	1	0	0	2
fixed	7	5	2	1558288	1	2	2	1	0	893	1	4	0	208	2	0	0	4
fixed	7	5	3	1559507	6	4	4	1	0	737	1	4	0	224	3	0	0	6
fixed	7	5	4	1560611	2	1	1	1	0	890	1	4	0	200	4	0	0	8
fixed	7	5	5	1561978	5	3	3	1	0	992	1	4	0	216	5	0	0	9
fixed	7	5	6	1563970	6	4	4	1	0	804	1	4	0	224	6	0	0	11
fixed	7	5	7	1565371	3	1	1	1	0	713	1	4	0	200	7	0	0	13
fixed	7	5	8	1566497	2	3	3	1	0	1073	1	4	0	216	8	0	0	14
fixed	7	5	9	1568520	3	2	2	1	0	875	1	4	0	208	9	0	0	16
fixed	7	5	10	1570071	1	4	4	1	0	674	1	4	0	224	10	0	0	17
fixed	7	5	11	1571463	5	2	2	1	0	1047	1	4	0	208	11	0	0	19
fixed	7	5	12	1573016	4	3	3	1	0	701	1	4	0	216	12	0	0	20
fixed	7	6	1	1574640	4	1	1	1	0	1016	1	4	0	200	1	0	0	2
fixed	7	6	2	1576184	1	2	2	1	0	903	1	4	0	208	2	0	0	3
fixed	7	6	3	1577853	6	4	4	1	0	856	1	4	0	224	3	0	0	5
fixed	7	6	4	1579396	2	1	1	2	0	1255	2	4	0	200	4	0	0	6
fixed	7	6	5	1581312	5	3	3	1	0	909	1	4	0	216	5	0	0	8
fixed	7	6	6	1582706	6	4	4	1	0	987	1	4	0	224	6	0	0	9
fixed	7	6	7	1584198	3	1	1	1	0	795	1	4	0	200	7	0	0	10
fixed	7	6	8	1585328	2	3	3	1	0	1044	1	4	0	216	8	0	0	12
fixed	7	6	9	1587379	3	2	2	1	0	813	1	4	0	208	9	0	0	13
fixed	7	6	10	1589122	1	4	4	1	0	731	1	4	0	224	10	0	0	14
fixed	7	6	11	1590165	5	2	2	1	0	942	1	4	0	208	11	0	0	15
fixed	7	6	12	1591559	4	3	3	3	0	1484	2	4	0	216	12	0	0	17
fixed	7	7	1	1593737	4	1	1	1	0	855	1	4	0	200	1	0	0	1
fixed	7	7	2	1595245	1	2	2	1	0	1447	1	4	0	208	2	0	0	3
fixed	7	7	3	1597008	6	4	4	1	0	709	1	4	0	224	3	0	0	4
fixed	7	7	4	1598441	2	1	1	1	0	904	1	4	0	200	4	0	0	5
fixed	7	7	5	1599753	5	3	3	1	0	952	1	4	0	216	5	0	0	6
fixed	7	7	6	1601371	6	4	4	1	0	804	1	4	0	224	6	0	0	8
fixed	7	7	7	1602545	3	1	1	1	0	938	1	4	0	200	7	0	0	9
fixed	7	7	8	1603951	2	3	3	1	0	1183	1	4	0	216	8	0	0	10
fixed	7	7	9	1605751	3	2	2	1	0	690	1	4	0	208	9	0	0	11
fixed	7	7	10	1607264	1	4	4	1	0	698	1	4	0	224	10	0	0	12
fixed	7	7	11	1608671	5	2	2	1	0	951	1	4	0	208	11	0	0	13
fixed	7	7	12	1610542	4	3	3	2	0	1312	2	4	0	216	12	0	0	14
fixed	7	8	1	1613051	4	1	1	1	0	781	1	4	0	200	1	0	0	1
fixed	7	8	2	1614261	1	2	2	1	0	954	1	4	0	208	2	0	0	2
fixed	7	8	3	1615556	6	4	4	1	0	779	1	4	0	224	3	0	0	3
fixed	7	8	4	1616872	2	1	1	1	0	732	1	4	0	200	4	0	0	5
fixed	7	8	5	1618286	5	3	3	1	0	1111	1	4	0	216	5	0	0	6
fixed	7	8	6	1619718	6	4	4	1	0	747	1	4	0	224	6	0	0	7
fixed	7	8	7	1621180	3	1	1	1	0	781	1	4	0	200	7	0	0	8
fixed	7	8	8	1622817	2	3	3	1	0	1040	1	4	0	216	8	0	0	9
fixed	7	8	9	1624343	3	2	2	1	0	1031	1	4	0	208	9	0	0	10
fixed	7	8	10	1625968	1	4	4	1	0	850	1	4	0	224	10	0	0	11
fixed	7	8	11	1627144	5	2	2	1	0	1000	1	4	0	208	11	0	0	12
fixed	7	8	12	1628503	4	3	3	1	0	726	1	4	0	216	12	0	0	13
fixed	7	9	1	1629893	4	1	1	1	0	740	1	4	0	200	1	0	0	1
fixed	7	9	2	1631605	1	2	2	1	0	1019	1	4	0	208	2	0	0	2
fixed	7	9	3	1633166	6	4	4	1	0	633	1	4	0	224	3	0	0	3
fixed	7	9	4	1634760	2	1	1	1	0	790	1	4	0	200	4	0	0	4
fixed	7	9	5	1636535	5	3	3	1	0	835	1	4	0	216	5	0	0	5
fixed	7	9	6	1637982	6	4	4	1	0	685	1	4	0	224	6	0	0	6
fixed	7	9	7	1639455	3	1	1	1	0	1119	1	4	0	200	7	0	0	7
fixed	7	9	8	1641046	2	3	3	1	0	1076	1	4	0	216	8	0	0	8
fixed	7	9	9	1643153	3	2	2	1	0	1610	1	4	0	208	9	0	0	9
fixed	7	9	10	1645728	1	4	4	1	0	781	1	4	0	224	10	0	0	9
fixed	7	9	11	1646812	5	2	2	1	0	1207	1	4	0	208	11	0	0	10
fixed	7	9	12	1648798	4	3	3	1	0	835	1	4	0	216	12	0	0	11
fixed	7	10	1	1650477	4	1	1	1	0	828	1	4	0	200	1	0	0	1
fixed	7	10	2	1651906	1	2	2	1	0	1040	1	4	0	208	2	0	0	2
fixed	7	10	3	1653320	6	4	4	1	0	731	1	4	0	224	3	0	0	3
fixed	7	10	4	1655081	2	1	1	1	0	833	1	4	0	200	4	0	0	4
fixed	7	10	5	1656513	5	3	3	1	0	804	1	4	0	216	5	0	0	4
fixed	7	10	6	1658246	6	4	4	1	0	787	1	4	0	224	6	0	0	5
fixed	7	10	7	1659332	3	1	1	1	0	861	1	4	0	200	7	0	0	6
fixed	7	10	8	1660750	2	3	3	1	0	977	1	4	0	216	8	0	0	7
fixed	7	10	9	1662514	3	2	2	2	0	838	2	4	0	208	9	0	0	8
fixed	7	10	10	1663701	1	4	4	1	0	732	1	4	0	224	10	0	0	8
fixed	7	10	11	1664766	5	2	2	1	0	1503	1	4	0	208	11	0	0	9
fixed	7	10	12	1667102	4	3	3	1	0	828	1	4	0	216	12	0	0	10
