type	block	sequ.	trial	time	Pos.	Color	Button	NumRsp	Resp_1	RT_1	R_Code	Resp_2	RT_2	Trigg.	n_hit	n_inc	n_miss	score_%

random	1	1	1	8012	6	1	1	1	0	553	1	4	0	8	1	0	0	100
random	1	1	2	9221	4	4	4	1	0	775	1	4	0	32	2	0	0	100
random	1	1	3	10912	2	2	2	1	0	1079	1	4	0	16	3	0	0	100
random	1	1	4	12831	3	3	3	1	0	726	1	4	0	24	4	0	0	100
random	1	1	5	14460	5	2	2	1	0	769	1	4	0	16	5	0	0	100
random	1	1	6	16257	1	4	4	1	0	597	1	4	0	32	6	0	0	100
random	1	1	7	17755	6	1	1	1	0	773	1	4	0	8	7	0	0	100
random	1	1	8	19257	2	3	3	2	0	1685	2	4	0	24	8	0	0	100
random	1	1	9	21751	4	2	2	1	0	932	1	4	0	16	9	0	0	100
random	1	1	10	23035	1	1	1	2	0	1293	2	4	0	8	10	0	0	100
random	1	1	11	24872	5	4	4	1	0	607	1	4	0	32	11	0	0	100
random	1	1	12	26076	3	3	3	1	0	780	1	4	0	24	12	0	0	100
random	1	1	13	27594	5	2	2	1	0	996	1	4	0	16	13	0	0	100
random	1	1	14	29611	1	4	4	1	0	695	1	4	0	32	14	0	0	100
random	1	1	15	30613	3	1	1	2	0	821	2	4	0	8	15	0	0	100
random	1	1	16	32313	4	3	3	1	0	981	1	4	0	24	16	0	0	100
random	1	1	17	33684	6	4	4	1	0	835	1	4	0	32	17	0	0	100
random	1	1	18	34928	2	1	1	1	0	717	1	4	0	8	18	0	0	100
random	1	1	19	35950	5	3	3	1	0	978	1	4	0	24	19	0	0	100
random	1	1	20	37559	2	2	2	1	0	662	1	4	0	16	20	0	0	100
random	1	1	21	38739	3	3	3	2	0	876	2	4	0	24	21	0	0	100
random	1	1	22	39926	6	1	1	1	0	802	1	4	0	8	22	0	0	100
random	1	1	23	41067	4	2	2	1	0	1074	1	4	0	16	23	0	0	100
random	1	1	24	43022	1	4	4	1	0	575	1	4	0	32	24	0	0	100
random	1	1	25	44787	4	3	3	1	0	1484	1	4	0	24	25	0	0	100
random	1	1	26	46902	2	1	1	1	0	1011	1	4	0	8	26	0	0	100
random	1	1	27	48820	5	2	2	2	0	849	2	4	0	16	27	0	0	100
random	1	1	28	50473	6	4	4	1	0	715	1	4	0	32	28	0	0	100
random	1	1	29	51845	1	3	3	1	0	1225	1	4	0	24	29	0	0	100
random	1	1	30	53843	5	2	2	1	0	756	1	4	0	16	30	0	0	100
random	1	1	31	55427	2	1	1	1	0	706	1	4	0	8	31	0	0	100
random	1	1	32	57080	3	3	3	1	0	868	1	4	0	24	32	0	0	100
random	1	1	33	58536	6	4	4	1	0	758	1	4	0	32	33	0	0	100
random	1	1	34	59855	4	2	2	1	0	678	1	4	0	16	34	0	0	100
random	1	1	35	61302	3	4	4	1	0	753	1	4	0	32	35	0	0	100
random	1	1	36	62699	1	1	1	1	0	822	1	4	0	8	36	0	0	100
random	1	1	37	64286	3	4	4	1	0	954	1	4	0	32	37	0	0	100
random	1	1	38	66133	5	3	3	2	0	1092	2	4	0	24	38	0	0	100
random	1	1	39	67822	6	1	1	2	0	1133	2	4	0	8	39	0	0	100
random	1	1	40	69474	1	2	2	1	0	759	1	4	0	16	40	0	0	100
random	1	1	41	70568	2	3	3	1	0	824	1	4	0	24	41	0	0	100
random	1	1	42	72024	4	4	4	1	0	706	1	4	0	32	42	0	0	100
random	1	1	43	73575	1	2	2	1	0	713	1	4	0	16	43	0	0	100
random	1	1	44	75194	6	3	3	1	0	764	1	4	0	24	44	0	0	100
random	1	1	45	76567	3	1	1	1	0	882	1	4	0	8	45	0	0	100
random	1	1	46	77802	4	4	4	1	0	734	1	4	0	32	46	0	0	100
random	1	1	47	79129	2	2	2	1	0	958	1	4	0	16	47	0	0	100
random	1	1	48	80458	5	1	1	1	0	957	1	4	0	8	48	0	0	100
random	1	1	49	82012	2	3	3	2	0	1515	2	4	0	24	49	0	0	100
random	1	1	50	84043	3	1	1	1	0	798	1	4	0	8	50	0	0	100
random	1	1	51	85297	1	4	4	1	0	705	1	4	0	32	51	0	0	100
random	1	1	52	86667	5	3	3	1	0	1087	1	4	0	24	52	0	0	100
random	1	1	53	88119	3	2	2	1	0	801	1	4	0	16	53	0	0	100
random	1	1	54	89328	6	4	4	1	0	701	1	4	0	32	54	0	0	100
random	1	1	55	90461	4	2	2	1	0	718	1	4	0	16	55	0	0	100
random	1	1	56	91797	1	1	1	2	0	789	2	4	0	8	56	0	0	100
random	1	1	57	93020	5	4	4	1	0	665	1	4	0	32	57	0	0	100
random	1	1	58	94504	2	1	1	1	0	691	1	4	0	8	58	0	0	100
random	1	1	59	96195	6	2	2	1	0	794	1	4	0	16	59	0	0	100
random	1	1	60	97589	4	3	3	1	0	824	1	4	0	24	60	0	0	100
random	1	1	61	99706	1	2	2	1	0	910	1	4	0	16	61	0	0	100
random	1	1	62	101307	6	4	4	1	0	699	1	4	0	32	62	0	0	100
random	1	1	63	102868	4	1	1	1	0	776	1	4	0	8	63	0	0	100
random	1	1	64	104386	2	2	2	1	0	696	1	4	0	16	64	0	0	100
random	1	1	65	105544	4	3	3	1	0	687	1	4	0	24	65	0	0	100
random	1	1	66	106545	3	1	1	1	0	788	1	4	0	8	66	0	0	100
random	1	1	67	107809	1	3	3	1	0	887	1	4	0	24	67	0	0	100
random	1	1	68	109475	5	4	4	1	0	673	1	4	0	32	68	0	0	100
random	1	1	69	110883	2	2	2	2	0	964	2	4	0	16	69	0	0	100
random	1	1	70	112868	3	1	1	1	0	777	1	4	0	8	70	0	0	100
random	1	1	71	113985	5	4	4	1	0	778	1	4	0	32	71	0	0	100
random	1	1	72	115214	6	3	3	1	0	901	1	4	0	24	72	0	0	100
random	1	1	73	116881	2	1	1	1	0	774	1	4	0	8	73	0	0	100
random	1	1	74	118477	5	3	3	1	0	1091	1	4	0	24	74	0	0	100
random	1	1	75	120267	1	4	4	1	0	743	1	4	0	32	75	0	0	100
random	1	1	76	121473	6	2	2	1	0	724	1	4	0	16	76	0	0	100
random	1	1	77	122942	2	1	1	1	0	774	1	4	0	8	77	0	0	100
random	1	1	78	124405	4	4	4	1	0	744	1	4	0	32	78	0	0	100
random	1	1	79	126149	3	2	2	1	0	670	1	4	0	16	79	0	0	100
random	1	1	80	127446	4	3	3	1	0	735	1	4	0	24	80	0	0	100
random	1	1	81	128846	1	4	4	1	0	828	1	4	0	32	81	0	0	100
random	1	1	82	130195	5	1	1	1	0	818	1	4	0	8	82	0	0	100
random	1	1	83	131995	3	2	2	1	0	791	1	4	0	16	83	0	0	100
random	1	1	84	133473	6	3	3	1	0	792	1	4	0	24	84	0	0	100
random	1	1	85	134859	3	2	2	1	0	821	1	4	0	16	85	0	0	100
random	1	1	86	136062	1	3	3	1	0	658	1	4	0	24	86	0	0	100
random	1	1	87	137171	4	4	4	2	0	1531	2	4	0	32	87	0	0	100
random	1	1	88	139011	2	1	1	1	0	653	1	4	0	8	88	0	0	100
random	1	1	89	140058	6	4	4	1	0	721	1	4	0	32	89	0	0	100
random	1	1	90	141218	3	3	3	1	0	960	1	4	0	24	90	0	0	100
random	1	1	91	142706	5	4	4	1	0	777	1	4	0	32	91	0	0	100
random	1	1	92	144168	1	2	2	1	0	835	1	4	0	16	92	0	0	100
random	1	1	93	145441	5	1	1	1	0	909	1	4	0	8	93	0	0	100
random	1	1	94	146729	4	3	3	1	0	1071	1	4	0	24	94	0	0	100
random	1	1	95	148635	6	1	1	1	0	742	1	4	0	8	95	0	0	100
random	1	1	96	149666	2	2	2	1	0	810	1	4	0	16	96	0	0	100
random	1	1	97	151299	4	3	3	1	0	1109	1	4	0	24	97	0	0	100
random	1	1	98	152751	3	2	2	1	0	927	1	4	0	16	98	0	0	100
random	1	1	99	154699	6	3	3	1	0	1309	1	4	0	24	99	0	0	100
random	1	1	100	156447	1	4	4	1	0	579	1	4	0	32	100	0	0	100
random	1	1	101	157558	4	1	1	1	0	716	1	4	0	8	101	0	0	100
random	1	1	102	159045	5	2	2	1	0	693	1	4	0	16	102	0	0	100
random	1	1	103	160180	2	4	4	1	0	605	1	4	0	32	103	0	0	100
random	1	1	104	161075	3	1	1	2	0	1671	2	4	0	8	104	0	0	100
random	1	1	105	163486	1	3	3	1	0	865	1	4	0	24	105	0	0	100
random	1	1	106	165337	2	2	2	1	0	874	1	4	0	16	106	0	0	100
random	1	1	107	166813	5	4	4	1	0	692	1	4	0	32	107	0	0	100
random	1	1	108	168130	6	1	1	1	0	924	1	4	0	8	108	0	0	100
random	1	1	109	170095	5	4	4	1	0	809	1	4	0	32	109	0	0	100
random	1	1	110	171646	6	3	3	1	0	832	1	4	0	24	110	0	0	100
random	1	1	111	172800	2	2	2	1	0	654	1	4	0	16	111	0	0	100
random	1	1	112	174462	3	1	1	1	0	712	1	4	0	8	112	0	0	100
random	1	1	113	175463	1	2	2	1	0	861	1	4	0	16	113	0	0	100
random	1	1	114	176891	2	3	3	1	0	793	1	4	0	24	114	0	0	100
random	1	1	115	178429	3	1	1	1	0	728	1	4	0	8	115	0	0	100
random	1	1	116	179608	4	4	4	1	0	734	1	4	0	32	116	0	0	100
random	1	1	117	180807	6	1	1	1	0	851	1	4	0	8	117	0	0	100
random	1	1	118	182028	5	3	3	1	0	895	1	4	0	24	118	0	0	100
random	1	1	119	183647	1	4	4	1	0	699	1	4	0	32	119	0	0	100
random	1	1	120	184866	4	2	2	1	0	631	1	4	0	16	120	0	0	100
fixed	2	1	1	186450	4	1	1	1	0	788	1	4	0	40	1	0	0	100
fixed	2	1	2	188131	1	2	2	1	0	749	1	4	0	48	2	0	0	100
fixed	2	1	3	189184	6	4	4	1	0	744	1	4	0	64	3	0	0	100
fixed	2	1	4	190425	2	1	1	1	0	852	1	4	0	40	4	0	0	100
fixed	2	1	5	191610	5	3	3	1	0	794	1	4	0	56	5	0	0	100
fixed	2	1	6	192909	6	4	4	1	0	699	1	4	0	64	6	0	0	100
fixed	2	1	7	194557	3	1	1	1	0	701	1	4	0	40	7	0	0	100
fixed	2	1	8	195978	2	3	3	1	0	960	1	4	0	56	8	0	0	100
fixed	2	1	9	197835	3	2	2	1	0	714	1	4	0	48	9	0	0	100
fixed	2	1	10	198872	1	4	4	1	0	630	1	4	0	64	10	0	0	100
fixed	2	1	11	200037	5	2	2	2	0	1020	2	4	0	48	11	0	0	100
fixed	2	1	12	201951	4	3	3	2	0	1356	2	4	0	56	12	0	0	100
fixed	2	2	1	204396	4	1	1	1	0	692	1	4	0	40	13	0	0	100
fixed	2	2	2	205702	1	2	2	1	0	909	1	4	0	48	14	0	0	100
fixed	2	2	3	207551	6	4	4	1	0	654	1	4	0	64	15	0	0	100
fixed	2	2	4	208934	2	1	1	1	0	796	1	4	0	40	16	0	0	100
fixed	2	2	5	210380	5	3	3	1	0	822	1	4	0	56	17	0	0	100
fixed	2	2	6	212073	6	4	4	1	0	679	1	4	0	64	18	0	0	100
fixed	2	2	7	213390	3	1	1	1	0	615	1	4	0	40	19	0	0	100
fixed	2	2	8	214489	2	3	3	1	0	832	1	4	0	56	20	0	0	100
fixed	2	2	9	215948	3	2	2	1	0	611	1	4	0	48	21	0	0	100
fixed	2	2	10	217344	1	4	4	1	0	695	1	4	0	64	22	0	0	100
fixed	2	2	11	218512	5	2	2	1	0	758	1	4	0	48	23	0	0	100
fixed	2	2	12	220262	4	3	3	2	0	972	2	4	0	56	24	0	0	100
fixed	2	3	1	222524	4	1	1	1	0	756	1	4	0	40	25	0	0	100
fixed	2	3	2	224085	1	2	2	2	0	1138	2	4	0	48	26	0	0	100
fixed	2	3	3	226087	6	4	4	1	0	701	1	4	0	64	27	0	0	100
fixed	2	3	4	227680	2	1	1	1	0	714	1	4	0	40	28	0	0	100
fixed	2	3	5	228920	5	3	3	1	0	797	1	4	0	56	29	0	0	100
fixed	2	3	6	230357	6	4	4	1	0	688	1	4	0	64	30	0	0	100
fixed	2	3	7	231827	3	1	1	1	0	650	1	4	0	40	31	0	0	100
fixed	2	3	8	233483	2	3	3	1	0	1020	1	4	0	56	32	0	0	100
fixed	2	3	9	235267	3	2	2	1	0	745	1	4	0	48	33	0	0	100
fixed	2	3	10	236763	1	4	4	1	0	681	1	4	0	64	34	0	0	100
fixed	2	3	11	238098	5	2	2	1	0	832	1	4	0	48	35	0	0	100
fixed	2	3	12	239898	4	3	3	1	0	1444	1	4	0	56	36	0	0	100
fixed	2	4	1	242155	4	1	1	1	0	684	1	4	0	40	37	0	0	100
fixed	2	4	2	243232	1	2	2	1	0	839	1	4	0	48	38	0	0	100
fixed	2	4	3	244796	6	4	4	1	0	621	1	4	0	64	39	0	0	100
fixed	2	4	4	246459	2	1	1	1	0	663	1	4	0	40	40	0	0	100
fixed	2	4	5	247987	5	3	3	1	0	781	1	4	0	56	41	0	0	100
fixed	2	4	6	249295	6	4	4	1	0	734	1	4	0	64	42	0	0	100
fixed	2	4	7	250741	3	1	1	1	0	785	1	4	0	40	43	0	0	100
fixed	2	4	8	252390	2	3	0	1	2	0	3	4	0	56	43	0	1	98
fixed	2	4	9	255815	3	2	2	1	0	1202	1	4	0	48	44	0	1	98
fixed	2	4	10	257355	1	4	4	1	0	777	1	4	0	64	45	0	1	98
fixed	2	4	11	259084	5	2	2	1	0	976	1	4	0	48	46	0	1	98
fixed	2	4	12	260722	4	3	3	1	0	834	1	4	0	56	47	0	1	98
fixed	2	5	1	262221	4	1	1	1	0	803	1	4	0	40	48	0	1	98
fixed	2	5	2	264043	1	2	2	1	0	1006	1	4	0	48	49	0	1	98
fixed	2	5	3	265404	6	4	4	1	0	724	1	4	0	64	50	0	1	98
fixed	2	5	4	266869	2	1	1	1	0	598	1	4	0	40	51	0	1	98
fixed	2	5	5	267754	5	3	3	1	0	1136	1	4	0	56	52	0	1	98
fixed	2	5	6	269405	6	4	4	1	0	674	1	4	0	64	53	0	1	98
fixed	2	5	7	271046	3	1	1	1	0	717	1	4	0	40	54	0	1	98
fixed	2	5	8	272073	2	3	3	1	0	1130	1	4	0	56	55	0	1	98
fixed	2	5	9	273623	3	2	2	1	0	704	1	4	0	48	56	0	1	98
fixed	2	5	10	274926	1	4	4	1	0	641	1	4	0	64	57	0	1	98
fixed	2	5	11	276431	5	2	2	1	0	953	1	4	0	48	58	0	1	98
fixed	2	5	12	278090	4	3	3	1	0	1267	1	4	0	56	59	0	1	98
fixed	2	6	1	279931	4	1	1	1	0	652	1	4	0	40	60	0	1	98
fixed	2	6	2	281091	1	2	2	1	0	892	1	4	0	48	61	0	1	98
fixed	2	6	3	282611	6	4	4	1	0	659	1	4	0	64	62	0	1	98
fixed	2	6	4	283938	2	1	1	1	0	771	1	4	0	40	63	0	1	98
fixed	2	6	5	285348	5	3	3	1	0	863	1	4	0	56	64	0	1	98
fixed	2	6	6	287220	6	4	4	1	0	696	1	4	0	64	65	0	1	98
fixed	2	6	7	288223	3	1	1	1	0	750	1	4	0	40	66	0	1	99
fixed	2	6	8	289414	2	3	3	1	0	915	1	4	0	56	67	0	1	99
fixed	2	6	9	291226	3	2	2	1	0	678	1	4	0	48	68	0	1	99
fixed	2	6	10	292653	1	4	4	1	0	650	1	4	0	64	69	0	1	99
fixed	2	6	11	293878	5	2	2	1	0	958	1	4	0	48	70	0	1	99
fixed	2	6	12	295805	4	3	3	1	0	1060	1	4	0	56	71	0	1	99
fixed	2	7	1	297842	4	1	1	1	0	678	1	4	0	40	72	0	1	99
fixed	2	7	2	299505	1	2	2	1	0	816	1	4	0	48	73	0	1	99
fixed	2	7	3	300744	6	4	4	1	0	675	1	4	0	64	74	0	1	99
fixed	2	7	4	301710	2	1	1	1	0	747	1	4	0	40	75	0	1	99
fixed	2	7	5	303200	5	3	3	1	0	900	1	4	0	56	76	0	1	99
fixed	2	7	6	304529	6	4	4	1	0	771	1	4	0	64	77	0	1	99
fixed	2	7	7	306295	3	1	1	1	0	840	1	4	0	40	78	0	1	99
fixed	2	7	8	307812	2	3	3	1	0	856	1	4	0	56	79	0	1	99
fixed	2	7	9	309363	3	2	2	1	0	750	1	4	0	48	80	0	1	99
fixed	2	7	10	310699	1	4	4	1	0	646	1	4	0	64	81	0	1	99
fixed	2	7	11	312021	5	2	2	1	0	766	1	4	0	48	82	0	1	99
fixed	2	7	12	313210	4	3	3	1	0	812	1	4	0	56	83	0	1	99
fixed	2	8	1	315068	4	1	1	1	0	852	1	4	0	40	84	0	1	99
fixed	2	8	2	316556	1	2	2	1	0	1005	1	4	0	48	85	0	1	99
fixed	2	8	3	317913	6	4	4	1	0	644	1	4	0	64	86	0	1	99
fixed	2	8	4	319002	2	1	1	1	0	846	1	4	0	40	87	0	1	99
fixed	2	8	5	320225	5	3	3	1	0	922	1	4	0	56	88	0	1	99
fixed	2	8	6	321708	6	4	4	1	0	715	1	4	0	64	89	0	1	99
fixed	2	8	7	323330	3	1	1	1	0	703	1	4	0	40	90	0	1	99
fixed	2	8	8	324872	2	3	3	1	0	894	1	4	0	56	91	0	1	99
fixed	2	8	9	326116	3	2	2	1	0	681	1	4	0	48	92	0	1	99
fixed	2	8	10	327137	1	4	4	1	0	773	1	4	0	64	93	0	1	99
fixed	2	8	11	328682	5	2	2	1	0	1148	1	4	0	48	94	0	1	99
fixed	2	8	12	330265	4	3	3	1	0	673	1	4	0	56	95	0	1	99
fixed	2	9	1	331625	4	1	1	1	0	663	1	4	0	40	96	0	1	99
fixed	2	9	2	332888	1	2	2	1	0	778	1	4	0	48	97	0	1	99
fixed	2	9	3	334652	6	4	4	1	0	647	1	4	0	64	98	0	1	99
fixed	2	9	4	335649	2	1	1	1	0	845	1	4	0	40	99	0	1	99
fixed	2	9	5	337060	5	3	3	1	0	881	1	4	0	56	100	0	1	99
fixed	2	9	6	338331	6	4	4	1	0	723	1	4	0	64	101	0	1	99
fixed	2	9	7	339939	3	1	1	1	0	735	1	4	0	40	102	0	1	99
fixed	2	9	8	341549	2	3	3	1	0	995	1	4	0	56	103	0	1	99
fixed	2	9	9	343240	3	2	2	1	0	731	1	4	0	48	104	0	1	99
fixed	2	9	10	344536	1	4	4	1	0	589	1	4	0	64	105	0	1	99
fixed	2	9	11	345429	5	2	2	1	0	782	1	4	0	48	106	0	1	99
fixed	2	9	12	347021	4	3	3	1	0	803	1	4	0	56	107	0	1	99
fixed	2	10	1	348399	4	1	1	1	0	769	1	4	0	40	108	0	1	99
fixed	2	10	2	350127	1	2	2	1	0	808	1	4	0	48	109	0	1	99
fixed	2	10	3	351944	6	4	4	1	0	627	1	4	0	64	110	0	1	99
fixed	2	10	4	353097	2	1	1	1	0	642	1	4	0	40	111	0	1	99
fixed	2	10	5	354325	5	3	3	1	0	670	1	4	0	56	112	0	1	99
fixed	2	10	6	355606	6	4	4	1	0	808	1	4	0	64	113	0	1	99
fixed	2	10	7	356883	3	1	1	1	0	946	1	4	0	40	114	0	1	99
fixed	2	10	8	358262	2	3	3	1	0	759	1	4	0	56	115	0	1	99
fixed	2	10	9	359600	3	2	2	1	0	670	1	4	0	48	116	0	1	99
fixed	2	10	10	361040	1	4	4	1	0	650	1	4	0	64	117	0	1	99
fixed	2	10	11	362636	5	2	2	1	0	1046	1	4	0	48	118	0	1	99
fixed	2	10	12	364229	4	3	3	1	0	762	1	4	0	56	119	0	1	99
fixed	3	1	1	365907	4	1	1	1	0	803	1	4	0	72	1	0	0	100
fixed	3	1	2	367032	1	2	2	1	0	1059	1	4	0	80	2	0	0	100
fixed	3	1	3	368756	6	4	4	1	0	699	1	4	0	96	3	0	0	100
fixed	3	1	4	370266	2	1	1	1	0	787	1	4	0	72	4	0	0	100
fixed	3	1	5	371721	5	3	3	1	0	733	1	4	0	88	5	0	0	100
fixed	3	1	6	373130	6	4	4	1	0	737	1	4	0	96	6	0	0	100
fixed	3	1	7	374173	3	1	1	1	0	733	1	4	0	72	7	0	0	100
fixed	3	1	8	375665	2	3	3	1	0	1150	1	4	0	88	8	0	0	100
fixed	3	1	9	377850	3	2	2	1	0	818	1	4	0	80	9	0	0	100
fixed	3	1	10	379392	1	4	4	1	0	632	1	4	0	96	10	0	0	100
fixed	3	1	11	380545	5	2	2	1	0	807	1	4	0	80	11	0	0	100
fixed	3	1	12	382049	4	3	3	1	0	719	1	4	0	88	12	0	0	100
fixed	3	2	1	383669	4	1	1	1	0	795	1	4	0	72	13	0	0	100
fixed	3	2	2	384992	1	2	2	1	0	1395	1	4	0	80	14	0	0	100
fixed	3	2	3	386710	6	4	4	1	0	650	1	4	0	96	15	0	0	100
fixed	3	2	4	387661	2	1	1	1	0	874	1	4	0	72	16	0	0	100
fixed	3	2	5	389408	5	3	3	1	0	840	1	4	0	88	17	0	0	100
fixed	3	2	6	391255	6	4	4	1	0	737	1	4	0	96	18	0	0	100
fixed	3	2	7	392365	3	1	1	1	0	731	1	4	0	72	19	0	0	100
fixed	3	2	8	393904	2	3	3	1	0	786	1	4	0	88	20	0	0	100
fixed	3	2	9	395276	3	2	2	1	0	640	1	4	0	80	21	0	0	100
fixed	3	2	10	396469	1	4	4	1	0	613	1	4	0	96	22	0	0	100
fixed	3	2	11	397791	5	2	2	1	0	789	1	4	0	80	23	0	0	100
fixed	3	2	12	399223	4	3	3	1	0	864	1	4	0	88	24	0	0	100
fixed	3	3	1	401062	4	1	1	1	0	810	1	4	0	72	25	0	0	100
fixed	3	3	2	402846	1	2	2	1	0	855	1	4	0	80	26	0	0	100
fixed	3	3	3	404688	6	4	4	1	0	625	1	4	0	96	27	0	0	100
fixed	3	3	4	406302	2	1	1	1	0	781	1	4	0	72	28	0	0	100
fixed	3	3	5	407512	5	3	3	1	0	801	1	4	0	88	29	0	0	100
fixed	3	3	6	409282	6	4	4	1	0	718	1	4	0	96	30	0	0	100
fixed	3	3	7	410544	3	1	1	1	0	849	1	4	0	72	31	0	0	100
fixed	3	3	8	412003	2	3	3	1	0	803	1	4	0	88	32	0	0	100
fixed	3	3	9	413472	3	2	2	1	0	637	1	4	0	80	33	0	0	100
fixed	3	3	10	414907	1	4	4	1	0	600	1	4	0	96	34	0	0	100
fixed	3	3	11	416146	5	2	2	1	0	835	1	4	0	80	35	0	0	100
fixed	3	3	12	417445	4	3	3	1	0	725	1	4	0	88	36	0	0	100
fixed	3	4	1	418906	4	1	1	1	0	838	1	4	0	72	37	0	0	100
fixed	3	4	2	420666	1	2	2	1	0	692	1	4	0	80	38	0	0	100
fixed	3	4	3	421929	6	4	4	2	0	1038	2	4	0	96	39	0	0	100
fixed	3	4	4	423874	2	1	1	2	0	732	2	4	0	72	40	0	0	100
fixed	3	4	5	425458	5	3	3	1	0	977	1	4	0	88	41	0	0	100
fixed	3	4	6	426881	6	4	4	1	0	637	1	4	0	96	42	0	0	100
fixed	3	4	7	428543	3	1	1	1	0	751	1	4	0	72	43	0	0	100
fixed	3	4	8	429929	2	3	3	1	0	996	1	4	0	88	44	0	0	100
fixed	3	4	9	431483	3	2	2	2	0	682	2	4	0	80	45	0	0	100
fixed	3	4	10	433158	1	4	4	1	0	659	1	4	0	96	46	0	0	100
fixed	3	4	11	434755	5	2	2	1	0	871	1	4	0	80	47	0	0	100
fixed	3	4	12	436502	4	3	3	1	0	773	1	4	0	88	48	0	0	100
fixed	3	5	1	438220	4	1	1	1	0	644	1	4	0	72	49	0	0	100
fixed	3	5	2	439224	1	2	2	2	0	2298	2	4	0	80	50	0	0	100
fixed	3	5	3	442303	6	4	4	1	0	680	1	4	0	96	51	0	0	100
fixed	3	5	4	443920	2	1	1	1	0	835	1	4	0	72	52	0	0	100
fixed	3	5	5	445115	5	3	3	1	0	961	1	4	0	88	53	0	0	100
fixed	3	5	6	446549	6	4	4	1	0	740	1	4	0	96	54	0	0	100
fixed	3	5	7	447762	3	1	1	2	0	704	2	4	0	72	55	0	0	100
fixed	3	5	8	449365	2	3	3	1	0	892	1	4	0	88	56	0	0	100
fixed	3	5	9	450827	3	2	2	1	0	647	1	4	0	80	57	0	0	100
fixed	3	5	10	451836	1	4	4	1	0	708	1	4	0	96	58	0	0	100
fixed	3	5	11	452900	5	2	2	1	0	1087	1	4	0	80	59	0	0	100
fixed	3	5	12	454442	4	3	3	1	0	1005	1	4	0	88	60	0	0	100
fixed	3	6	1	456281	4	1	1	1	0	663	1	4	0	72	61	0	0	100
fixed	3	6	2	457613	1	2	2	1	0	807	1	4	0	80	62	0	0	100
fixed	3	6	3	458929	6	4	4	1	0	656	1	4	0	96	63	0	0	100
fixed	3	6	4	459946	2	1	1	1	0	732	1	4	0	72	64	0	0	100
fixed	3	6	5	461021	5	3	3	1	0	1103	1	4	0	88	65	0	0	100
fixed	3	6	6	462595	6	4	4	1	0	676	1	4	0	96	66	0	0	100
fixed	3	6	7	464088	3	1	1	1	0	709	1	4	0	72	67	0	0	100
fixed	3	6	8	465164	2	3	3	1	0	936	1	4	0	88	68	0	0	100
fixed	3	6	9	466842	3	2	2	1	0	680	1	4	0	80	69	0	0	100
fixed	3	6	10	468183	1	4	4	1	0	583	1	4	0	96	70	0	0	100
fixed	3	6	11	469249	5	2	2	1	0	866	1	4	0	80	71	0	0	100
fixed	3	6	12	470776	4	3	3	1	0	754	1	4	0	88	72	0	0	100
fixed	3	7	1	472470	4	1	1	1	0	674	1	4	0	72	73	0	0	100
fixed	3	7	2	473521	1	2	2	1	0	1261	1	4	0	80	74	0	0	100
fixed	3	7	3	475480	6	4	4	1	0	682	1	4	0	96	75	0	0	100
fixed	3	7	4	477080	2	1	1	1	0	686	1	4	0	72	76	0	0	100
fixed	3	7	5	478526	5	3	3	1	0	945	1	4	0	88	77	0	0	100
fixed	3	7	6	480241	6	4	4	1	0	697	1	4	0	96	78	0	0	100
fixed	3	7	7	481753	3	1	1	1	0	801	1	4	0	72	79	0	0	100
fixed	3	7	8	483264	2	3	3	1	0	800	1	4	0	88	80	0	0	100
fixed	3	7	9	484937	3	2	2	1	0	634	1	4	0	80	81	0	0	100
fixed	3	7	10	486343	1	4	4	1	0	782	1	4	0	96	82	0	0	100
fixed	3	7	11	487980	5	2	2	1	0	1065	1	4	0	80	83	0	0	100
fixed	3	7	12	490054	4	3	3	1	0	1121	1	4	0	88	84	0	0	100
fixed	3	8	1	491918	4	1	1	1	0	706	1	4	0	72	85	0	0	100
fixed	3	8	2	493659	1	2	2	1	0	816	1	4	0	80	86	0	0	100
fixed	3	8	3	495118	6	4	4	1	0	611	1	4	0	96	87	0	0	100
fixed	3	8	4	496079	2	1	1	1	0	922	1	4	0	72	88	0	0	100
fixed	3	8	5	497373	5	3	3	1	0	1131	1	4	0	88	89	0	0	100
fixed	3	8	6	499434	6	4	4	1	0	819	1	4	0	96	90	0	0	100
fixed	3	8	7	500970	3	1	1	1	0	947	1	4	0	72	91	0	0	100
fixed	3	8	8	502473	2	3	3	1	0	875	1	4	0	88	92	0	0	100
fixed	3	8	9	503722	3	2	2	1	0	806	1	4	0	80	93	0	0	100
fixed	3	8	10	505349	1	4	4	1	0	705	1	4	0	96	94	0	0	100
fixed	3	8	11	506761	5	2	2	1	0	1206	1	4	0	80	95	0	0	100
fixed	3	8	12	508789	4	3	3	1	0	920	1	4	0	88	96	0	0	100
fixed	3	9	1	510965	4	1	1	1	0	771	1	4	0	72	97	0	0	100
fixed	3	9	2	512096	1	2	2	1	0	876	1	4	0	80	98	0	0	100
fixed	3	9	3	513724	6	4	4	1	0	598	1	4	0	96	99	0	0	100
fixed	3	9	4	514830	2	1	1	1	0	720	1	4	0	72	100	0	0	100
fixed	3	9	5	516181	5	3	3	1	0	830	1	4	0	88	101	0	0	100
fixed	3	9	6	517502	6	4	4	1	0	758	1	4	0	96	102	0	0	100
fixed	3	9	7	518971	3	1	1	1	0	720	1	4	0	72	103	0	0	100
fixed	3	9	8	520345	2	3	3	1	0	990	1	4	0	88	104	0	0	100
fixed	3	9	9	521653	3	2	2	1	0	759	1	4	0	80	105	0	0	100
fixed	3	9	10	522928	1	4	4	1	0	697	1	4	0	96	106	0	0	100
fixed	3	9	11	524414	5	2	2	1	0	786	1	4	0	80	107	0	0	100
fixed	3	9	12	525623	4	3	3	1	0	1015	1	4	0	88	108	0	0	100
fixed	3	10	1	527305	4	1	1	1	0	623	1	4	0	72	109	0	0	100
fixed	3	10	2	528333	1	2	2	1	0	772	1	4	0	80	110	0	0	100
fixed	3	10	3	530095	6	4	4	1	0	665	1	4	0	96	111	0	0	100
fixed	3	10	4	531534	2	1	1	1	0	740	1	4	0	72	112	0	0	100
fixed	3	10	5	532804	5	3	3	1	0	822	1	4	0	88	113	0	0	100
fixed	3	10	6	534485	6	4	4	1	0	680	1	4	0	96	114	0	0	100
fixed	3	10	7	536149	3	1	1	1	0	745	1	4	0	72	115	0	0	100
fixed	3	10	8	537435	2	3	3	1	0	810	1	4	0	88	116	0	0	100
fixed	3	10	9	538713	3	2	2	1	0	644	1	4	0	80	117	0	0	100
fixed	3	10	10	539966	1	4	4	1	0	623	1	4	0	96	118	0	0	100
fixed	3	10	11	541272	5	2	2	1	0	856	1	4	0	80	119	0	0	100
fixed	3	10	12	542851	4	3	3	1	0	701	1	4	0	88	120	0	0	100
fixed	4	1	1	686393	4	1	1	1	0	1013	1	4	0	104	1	0	0	100
fixed	4	1	2	688439	1	2	2	1	0	1063	1	4	0	112	2	0	0	100
fixed	4	1	3	689889	6	4	4	1	0	681	1	4	0	128	3	0	0	100
fixed	4	1	4	690991	2	1	1	1	0	922	1	4	0	104	4	0	0	100
fixed	4	1	5	692560	5	3	3	1	0	768	1	4	0	120	5	0	0	100
fixed	4	1	6	693876	6	4	4	1	0	633	1	4	0	128	6	0	0	100
fixed	4	1	7	695067	3	1	1	1	0	766	1	4	0	104	7	0	0	100
fixed	4	1	8	696644	2	3	3	1	0	947	1	4	0	120	8	0	0	100
fixed	4	1	9	698071	3	2	2	1	0	838	1	4	0	112	9	0	0	100
fixed	4	1	10	699333	1	4	4	1	0	1529	1	4	0	128	10	0	0	100
fixed	4	1	11	701610	5	2	2	1	0	777	1	4	0	112	11	0	0	100
fixed	4	1	12	703252	4	3	3	1	0	675	1	4	0	120	12	0	0	100
fixed	4	2	1	705225	4	1	1	1	0	791	1	4	0	104	13	0	0	100
fixed	4	2	2	707018	1	2	2	1	0	692	1	4	0	112	14	0	0	100
fixed	4	2	3	708581	6	4	4	1	0	649	1	4	0	128	15	0	0	100
fixed	4	2	4	710173	2	1	1	1	0	718	1	4	0	104	16	0	0	100
fixed	4	2	5	711196	5	3	3	1	0	931	1	4	0	120	17	0	0	100
fixed	4	2	6	712899	6	4	4	1	0	827	1	4	0	128	18	0	0	100
fixed	4	2	7	714242	3	1	1	1	0	642	1	4	0	104	19	0	0	100
fixed	4	2	8	715647	2	3	3	1	0	934	1	4	0	120	20	0	0	100
fixed	4	2	9	717358	3	2	2	1	0	654	1	4	0	112	21	0	0	100
fixed	4	2	10	718708	1	4	4	1	0	604	1	4	0	128	22	0	0	100
fixed	4	2	11	719625	5	2	2	1	0	925	1	4	0	112	23	0	0	100
fixed	4	2	12	720889	4	3	3	1	0	704	1	4	0	120	24	0	0	100
fixed	4	3	1	722868	4	1	1	1	0	724	1	4	0	104	25	0	0	100
fixed	4	3	2	724512	1	2	2	1	0	895	1	4	0	112	26	0	0	100
fixed	4	3	3	726416	6	4	4	1	0	894	1	4	0	128	27	0	0	100
fixed	4	3	4	727820	2	1	1	1	0	779	1	4	0	104	28	0	0	100
fixed	4	3	5	729083	5	3	3	1	0	757	1	4	0	120	29	0	0	100
fixed	4	3	6	730874	6	4	4	2	0	865	2	4	0	128	30	0	0	100
fixed	4	3	7	732146	3	1	1	1	0	715	1	4	0	104	31	0	0	100
fixed	4	3	8	733803	2	3	3	1	0	821	1	4	0	120	32	0	0	100
fixed	4	3	9	735312	3	2	2	2	0	822	2	4	0	112	33	0	0	100
fixed	4	3	10	736432	1	4	4	1	0	701	1	4	0	128	34	0	0	100
fixed	4	3	11	737962	5	2	2	1	0	709	1	4	0	112	35	0	0	100
fixed	4	3	12	739505	4	3	3	1	0	988	1	4	0	120	36	0	0	100
fixed	4	4	1	741764	4	1	1	1	0	780	1	4	0	104	37	0	0	100
fixed	4	4	2	743224	1	2	2	1	0	734	1	4	0	112	38	0	0	100
fixed	4	4	3	744772	6	4	4	1	0	708	1	4	0	128	39	0	0	100
fixed	4	4	4	746143	2	1	1	1	0	706	1	4	0	104	40	0	0	100
fixed	4	4	5	747567	5	3	3	1	0	694	1	4	0	120	41	0	0	100
fixed	4	4	6	748953	6	4	4	1	0	643	1	4	0	128	42	0	0	100
fixed	4	4	7	750626	3	1	1	1	0	765	1	4	0	104	43	0	0	100
fixed	4	4	8	752383	2	3	3	1	0	818	1	4	0	120	44	0	0	100
fixed	4	4	9	754175	3	2	2	1	0	735	1	4	0	112	45	0	0	100
fixed	4	4	10	755212	1	4	4	1	0	1010	1	4	0	128	46	0	0	100
fixed	4	4	11	756637	5	2	2	1	0	790	1	4	0	112	47	0	0	100
fixed	4	4	12	758394	4	3	3	1	0	756	1	4	0	120	48	0	0	100
fixed	4	5	1	759758	4	1	1	1	0	682	1	4	0	104	49	0	0	100
fixed	4	5	2	760786	1	2	2	1	0	878	1	4	0	112	50	0	0	100
fixed	4	5	3	762150	6	4	4	1	0	916	1	4	0	128	51	0	0	100
fixed	4	5	4	763866	2	1	1	1	0	604	1	4	0	104	52	0	0	100
fixed	4	5	5	765364	5	3	3	1	0	965	1	4	0	120	53	0	0	100
fixed	4	5	6	766670	6	4	4	1	0	717	1	4	0	128	54	0	0	100
fixed	4	5	7	768260	3	1	1	1	0	1169	1	4	0	104	55	0	0	100
fixed	4	5	8	769740	2	3	3	1	0	1059	1	4	0	120	56	0	0	100
fixed	4	5	9	771291	3	2	2	1	0	681	1	4	0	112	57	0	0	100
fixed	4	5	10	772270	1	4	4	1	0	936	1	4	0	128	58	0	0	100
fixed	4	5	11	774036	5	2	2	1	0	917	1	4	0	112	59	0	0	100
fixed	4	5	12	775618	4	3	3	1	0	818	1	4	0	120	60	0	0	100
fixed	4	6	1	777034	4	1	1	1	0	1054	1	4	0	104	61	0	0	100
fixed	4	6	2	778649	1	2	2	1	0	762	1	4	0	112	62	0	0	100
fixed	4	6	3	780133	6	4	4	1	0	779	1	4	0	128	63	0	0	100
fixed	4	6	4	781219	2	1	0	1	2	0	3	4	0	104	63	0	1	98
fixed	4	6	5	784535	5	3	3	1	0	1088	1	4	0	120	64	0	1	98
fixed	4	6	6	785946	6	4	4	1	0	917	1	4	0	128	65	0	1	98
fixed	4	6	7	787831	3	1	1	1	0	1405	1	4	0	104	66	0	1	99
fixed	4	6	8	789848	2	3	3	1	0	983	1	4	0	120	67	0	1	99
fixed	4	6	9	791217	3	2	2	1	0	621	1	4	0	112	68	0	1	99
fixed	4	6	10	792501	1	4	4	1	0	647	1	4	0	128	69	0	1	99
fixed	4	6	11	793780	5	2	2	1	0	849	1	4	0	112	70	0	1	99
fixed	4	6	12	795146	4	3	3	1	0	639	1	4	0	120	71	0	1	99
fixed	4	7	1	796833	4	1	1	1	0	903	1	4	0	104	72	0	1	99
fixed	4	7	2	798588	1	2	2	1	0	1205	1	4	0	112	73	0	1	99
fixed	4	7	3	800591	6	4	4	1	0	960	1	4	0	128	74	0	1	99
fixed	4	7	4	802488	2	1	1	2	0	1304	2	4	0	104	75	0	1	99
fixed	4	7	5	804834	5	3	3	1	0	756	1	4	0	120	76	0	1	99
fixed	4	7	6	806607	6	4	4	1	0	833	1	4	0	128	77	0	1	99
fixed	4	7	7	808230	3	1	1	1	0	1013	1	4	0	104	78	0	1	99
fixed	4	7	8	809699	2	3	3	1	0	694	1	4	0	120	79	0	1	99
fixed	4	7	9	810913	3	2	2	1	0	667	1	4	0	112	80	0	1	99
fixed	4	7	10	812549	1	4	4	1	0	790	1	4	0	128	81	0	1	99
fixed	4	7	11	814179	5	2	2	1	0	905	1	4	0	112	82	0	1	99
fixed	4	7	12	815891	4	3	3	1	0	681	1	4	0	120	83	0	1	99
fixed	4	8	1	817700	4	1	1	1	0	811	1	4	0	104	84	0	1	99
fixed	4	8	2	819031	1	2	2	1	0	1388	1	4	0	112	85	0	1	99
fixed	4	8	3	821316	6	4	4	1	0	491	1	4	0	128	86	0	1	99
fixed	4	8	4	822792	2	1	1	2	0	1476	2	4	0	104	87	0	1	99
fixed	4	8	5	824876	5	3	3	1	0	740	1	4	0	120	88	0	1	99
fixed	4	8	6	826482	6	4	4	2	0	1088	2	4	0	128	89	0	1	99
fixed	4	8	7	827981	3	1	1	1	0	712	1	4	0	104	90	0	1	99
fixed	4	8	8	829368	2	3	3	1	0	894	1	4	0	120	91	0	1	99
fixed	4	8	9	830800	3	2	2	1	0	721	1	4	0	112	92	0	1	99
fixed	4	8	10	832482	1	4	4	1	0	810	1	4	0	128	93	0	1	99
fixed	4	8	11	834194	5	2	2	1	0	825	1	4	0	112	94	0	1	99
fixed	4	8	12	835797	4	3	3	1	0	829	1	4	0	120	95	0	1	99
fixed	4	9	1	837415	4	1	1	1	0	704	1	4	0	104	96	0	1	99
fixed	4	9	2	838421	1	2	2	1	0	806	1	4	0	112	97	0	1	99
fixed	4	9	3	839785	6	4	4	1	0	613	1	4	0	128	98	0	1	99
fixed	4	9	4	841378	2	1	1	1	0	1113	1	4	0	104	99	0	1	99
fixed	4	9	5	843031	5	3	3	1	0	883	1	4	0	120	100	0	1	99
fixed	4	9	6	844263	6	4	4	1	0	734	1	4	0	128	101	0	1	99
fixed	4	9	7	845864	3	1	1	1	0	723	1	4	0	104	102	0	1	99
fixed	4	9	8	847566	2	3	3	2	0	1131	2	4	0	120	103	0	1	99
fixed	4	9	9	849530	3	2	2	2	0	1263	2	4	0	112	104	0	1	99
fixed	4	9	10	851100	1	4	4	1	0	773	1	4	0	128	105	0	1	99
fixed	4	9	11	852913	5	2	2	1	0	1160	1	4	0	112	106	0	1	99
fixed	4	9	12	854925	4	3	3	1	0	1387	1	4	0	120	107	0	1	99
fixed	4	10	1	856913	4	1	1	1	0	655	1	4	0	104	108	0	1	99
fixed	4	10	2	858059	1	2	2	1	0	710	1	4	0	112	109	0	1	99
fixed	4	10	3	859438	6	4	4	1	0	612	1	4	0	128	110	0	1	99
fixed	4	10	4	860637	2	1	1	1	0	689	1	4	0	104	111	0	1	99
fixed	4	10	5	862302	5	3	3	1	0	795	1	4	0	120	112	0	1	99
fixed	4	10	6	863506	6	4	4	1	0	640	1	4	0	128	113	0	1	99
fixed	4	10	7	864463	3	1	1	1	0	719	1	4	0	104	114	0	1	99
fixed	4	10	8	865721	2	3	3	1	0	890	1	4	0	120	115	0	1	99
fixed	4	10	9	867289	3	2	2	1	0	719	1	4	0	112	116	0	1	99
fixed	4	10	10	868405	1	4	4	1	0	736	1	4	0	128	117	0	1	99
fixed	4	10	11	869756	5	2	2	1	0	911	1	4	0	112	118	0	1	99
fixed	4	10	12	871009	4	3	3	1	0	786	1	4	0	120	119	0	1	99
fixed	5	1	1	873251	4	1	1	1	0	555	1	4	0	136	1	0	0	100
fixed	5	1	2	874434	1	2	2	1	0	761	1	4	0	144	2	0	0	100
fixed	5	1	3	876137	6	4	4	1	0	969	1	4	0	160	3	0	0	100
fixed	5	1	4	877913	2	1	1	1	0	933	1	4	0	136	4	0	0	100
fixed	5	1	5	879305	5	3	3	2	0	1074	2	4	0	152	5	0	0	100
fixed	5	1	6	880806	6	4	4	2	0	1963	2	4	0	160	6	0	0	100
fixed	5	1	7	883482	3	1	1	1	0	889	1	4	0	136	7	0	0	100
fixed	5	1	8	884700	2	3	3	1	0	1038	1	4	0	152	8	0	0	100
fixed	5	1	9	886072	3	2	2	1	0	732	1	4	0	144	9	0	0	100
fixed	5	1	10	887205	1	4	4	1	0	828	1	4	0	160	10	0	0	100
fixed	5	1	11	888645	5	2	2	1	0	799	1	4	0	144	11	0	0	100
fixed	5	1	12	890352	4	3	3	2	0	799	2	4	0	152	12	0	0	100
fixed	5	2	1	891699	4	1	1	1	0	765	1	4	0	136	13	0	0	100
fixed	5	2	2	893261	1	2	2	1	0	932	1	4	0	144	14	0	0	100
fixed	5	2	3	894645	6	4	4	1	0	705	1	4	0	160	15	0	0	100
fixed	5	2	4	896107	2	1	1	1	0	906	1	4	0	136	16	0	0	100
fixed	5	2	5	897646	5	3	3	1	0	913	1	4	0	152	17	0	0	100
fixed	5	2	6	899496	6	4	4	1	0	708	1	4	0	160	18	0	0	100
fixed	5	2	7	900883	3	1	1	1	0	681	1	4	0	136	19	0	0	100
fixed	5	2	8	902394	2	3	3	1	0	824	1	4	0	152	20	0	0	100
fixed	5	2	9	903592	3	2	2	1	0	653	1	4	0	144	21	0	0	100
fixed	5	2	10	904943	1	4	4	1	0	645	1	4	0	160	22	0	0	100
fixed	5	2	11	906000	5	2	2	1	0	712	1	4	0	144	23	0	0	100
fixed	5	2	12	907690	4	3	3	1	0	840	1	4	0	152	24	0	0	100
fixed	5	3	1	909258	4	1	1	1	0	622	1	4	0	136	25	0	0	100
fixed	5	3	2	910872	1	2	2	1	0	866	1	4	0	144	26	0	0	100
fixed	5	3	3	912692	6	4	0	0	2	0	3	4	0	160	26	0	1	96
fixed	5	3	4	916035	2	1	1	1	0	663	1	4	0	136	27	0	1	96
fixed	5	3	5	917095	5	3	3	1	0	786	1	4	0	152	28	0	1	97
fixed	5	3	6	918726	6	4	4	1	0	749	1	4	0	160	29	0	1	97
fixed	5	3	7	920094	3	1	1	2	0	1131	2	4	0	136	30	0	1	97
fixed	5	3	8	921741	2	3	3	1	0	1285	1	4	0	152	31	0	1	97
fixed	5	3	9	923485	3	2	2	1	0	739	1	4	0	144	32	0	1	97
fixed	5	3	10	925209	1	4	4	1	0	778	1	4	0	160	33	0	1	97
fixed	5	3	11	926752	5	2	2	1	0	849	1	4	0	144	34	0	1	97
fixed	5	3	12	927925	4	3	3	1	0	783	1	4	0	152	35	0	1	97
fixed	5	4	1	929909	4	1	1	1	0	707	1	4	0	136	36	0	1	97
fixed	5	4	2	930953	1	2	2	1	0	823	1	4	0	144	37	0	1	97
fixed	5	4	3	932486	6	4	4	1	0	798	1	4	0	160	38	0	1	97
fixed	5	4	4	933645	2	1	1	1	0	933	1	4	0	136	39	0	1	98
fixed	5	4	5	935288	5	3	3	1	0	815	1	4	0	152	40	0	1	98
fixed	5	4	6	936958	6	4	4	1	0	816	1	4	0	160	41	0	1	98
fixed	5	4	7	938216	3	1	1	1	0	851	1	4	0	136	42	0	1	98
fixed	5	4	8	939729	2	3	3	1	0	1227	1	4	0	152	43	0	1	98
fixed	5	4	9	941918	3	2	2	1	0	751	1	4	0	144	44	0	1	98
fixed	5	4	10	943256	1	4	4	1	0	517	1	4	0	160	45	0	1	98
fixed	5	4	11	944182	5	2	2	1	0	807	1	4	0	144	46	0	1	98
fixed	5	4	12	946018	4	3	3	1	0	729	1	4	0	152	47	0	1	98
fixed	5	5	1	948003	4	1	1	1	0	740	1	4	0	136	48	0	1	98
fixed	5	5	2	949356	1	2	2	1	0	771	1	4	0	144	49	0	1	98
fixed	5	5	3	950438	6	4	4	1	0	678	1	4	0	160	50	0	1	98
fixed	5	5	4	951702	2	1	1	1	0	752	1	4	0	136	51	0	1	98
fixed	5	5	5	953221	5	3	3	1	0	1248	1	4	0	152	52	0	1	98
fixed	5	5	6	955228	6	4	4	1	0	651	1	4	0	160	53	0	1	98
fixed	5	5	7	956293	3	1	1	1	0	790	1	4	0	136	54	0	1	98
fixed	5	5	8	957839	2	3	3	2	0	1908	2	4	0	152	55	0	1	98
fixed	5	5	9	960404	3	2	2	1	0	639	1	4	0	144	56	0	1	98
fixed	5	5	10	961667	1	4	4	1	0	666	1	4	0	160	57	0	1	98
fixed	5	5	11	962988	5	2	2	1	0	794	1	4	0	144	58	0	1	98
fixed	5	5	12	964740	4	3	3	1	0	912	1	4	0	152	59	0	1	98
fixed	5	6	1	966632	4	1	1	1	0	712	1	4	0	136	60	0	1	98
fixed	5	6	2	968192	1	2	2	1	0	1078	1	4	0	144	61	0	1	98
fixed	5	6	3	970133	6	4	4	1	0	668	1	4	0	160	62	0	1	98
fixed	5	6	4	971636	2	1	1	1	0	764	1	4	0	136	63	0	1	98
fixed	5	6	5	972865	5	3	3	1	0	944	1	4	0	152	64	0	1	98
fixed	5	6	6	974520	6	4	4	1	0	689	1	4	0	160	65	0	1	98
fixed	5	6	7	975918	3	1	1	1	0	727	1	4	0	136	66	0	1	99
fixed	5	6	8	977516	2	3	3	1	0	971	1	4	0	152	67	0	1	99
fixed	5	6	9	979439	3	2	2	1	0	953	1	4	0	144	68	0	1	99
fixed	5	6	10	981421	1	4	4	1	0	573	1	4	0	160	69	0	1	99
fixed	5	6	11	982475	5	2	2	1	0	681	1	4	0	144	70	0	1	99
fixed	5	6	12	983793	4	3	3	1	0	753	1	4	0	152	71	0	1	99
fixed	5	7	1	985362	4	1	1	1	0	614	1	4	0	136	72	0	1	99
fixed	5	7	2	986977	1	2	2	1	0	714	1	4	0	144	73	0	1	99
fixed	5	7	3	988417	6	4	4	1	0	717	1	4	0	160	74	0	1	99
fixed	5	7	4	989717	2	1	1	1	0	1022	1	4	0	136	75	0	1	99
fixed	5	7	5	991059	5	3	3	1	0	941	1	4	0	152	76	0	1	99
fixed	5	7	6	992516	6	4	4	1	0	871	1	4	0	160	77	0	1	99
fixed	5	7	7	993882	3	1	1	1	0	693	1	4	0	136	78	0	1	99
fixed	5	7	8	995148	2	3	3	1	0	1224	1	4	0	152	79	0	1	99
fixed	5	7	9	997384	3	2	2	1	0	769	1	4	0	144	80	0	1	99
fixed	5	7	10	998587	1	4	4	1	0	638	1	4	0	160	81	0	1	99
fixed	5	7	11	1000159	5	2	2	1	0	1140	1	4	0	144	82	0	1	99
fixed	5	7	12	1001912	4	3	3	1	0	698	1	4	0	152	83	0	1	99
fixed	5	8	1	1003590	4	1	1	1	0	746	1	4	0	136	84	0	1	99
fixed	5	8	2	1005140	1	2	2	1	0	761	1	4	0	144	85	0	1	99
fixed	5	8	3	1006341	6	4	4	1	0	806	1	4	0	160	86	0	1	99
fixed	5	8	4	1008036	2	1	1	1	0	1246	1	4	0	136	87	0	1	99
fixed	5	8	5	1010062	5	3	3	2	0	952	2	4	0	152	88	0	1	99
fixed	5	8	6	1011657	6	4	4	1	0	660	1	4	0	160	89	0	1	99
fixed	5	8	7	1012939	3	1	1	2	0	1591	2	4	0	136	90	0	1	99
fixed	5	8	8	1014821	2	3	3	1	0	1095	1	4	0	152	91	0	1	99
fixed	5	8	9	1016895	3	2	2	1	0	767	1	4	0	144	92	0	1	99
fixed	5	8	10	1018088	1	4	4	1	0	677	1	4	0	160	93	0	1	99
fixed	5	8	11	1019297	5	2	2	1	0	913	1	4	0	144	94	0	1	99
fixed	5	8	12	1020849	4	3	3	1	0	1119	1	4	0	152	95	0	1	99
fixed	5	9	1	1023205	4	1	1	1	0	731	1	4	0	136	96	0	1	99
fixed	5	9	2	1024572	1	2	2	1	0	818	1	4	0	144	97	0	1	99
fixed	5	9	3	1026056	6	4	4	1	0	1275	1	4	0	160	98	0	1	99
fixed	5	9	4	1028193	2	1	1	1	0	904	1	4	0	136	99	0	1	99
fixed	5	9	5	1029780	5	3	3	1	0	773	1	4	0	152	100	0	1	99
fixed	5	9	6	1031494	6	4	4	1	0	788	1	4	0	160	101	0	1	99
fixed	5	9	7	1032888	3	1	1	2	0	882	2	4	0	136	102	0	1	99
fixed	5	9	8	1034796	2	3	3	1	0	937	1	4	0	152	103	0	1	99
fixed	5	9	9	1036043	3	2	2	1	0	828	1	4	0	144	104	0	1	99
fixed	5	9	10	1037837	1	4	4	1	0	744	1	4	0	160	105	0	1	99
fixed	5	9	11	1039412	5	2	2	1	0	797	1	4	0	144	106	0	1	99
fixed	5	9	12	1040815	4	3	3	1	0	706	1	4	0	152	107	0	1	99
fixed	5	10	1	1042134	4	1	1	1	0	714	1	4	0	136	108	0	1	99
fixed	5	10	2	1043408	1	2	2	1	0	1012	1	4	0	144	109	0	1	99
fixed	5	10	3	1044774	6	4	4	1	0	602	1	4	0	160	110	0	1	99
fixed	5	10	4	1046035	2	1	1	1	0	741	1	4	0	136	111	0	1	99
fixed	5	10	5	1047284	5	3	3	1	0	744	1	4	0	152	112	0	1	99
fixed	5	10	6	1048495	6	4	4	1	0	589	1	4	0	160	113	0	1	99
fixed	5	10	7	1049836	3	1	1	1	0	723	1	4	0	136	114	0	1	99
fixed	5	10	8	1051175	2	3	3	1	0	851	1	4	0	152	115	0	1	99
fixed	5	10	9	1052644	3	2	2	1	0	572	1	4	0	144	116	0	1	99
fixed	5	10	10	1054089	1	4	4	2	0	1104	2	4	0	160	117	0	1	99
fixed	5	10	11	1055598	5	2	2	1	0	1096	1	4	0	144	118	0	1	99
fixed	5	10	12	1057100	4	3	3	1	0	768	1	4	0	152	119	0	1	99
random	6	1	1	1226117	6	1	1	1	0	825	1	4	0	168	1	0	0	100
random	6	1	2	1227918	4	4	4	1	0	725	1	4	0	192	2	0	0	100
random	6	1	3	1229260	2	2	2	1	0	692	1	4	0	176	3	0	0	100
random	6	1	4	1230946	3	3	3	1	0	669	1	4	0	184	4	0	0	100
random	6	1	5	1231972	5	2	2	1	0	881	1	4	0	176	5	0	0	100
random	6	1	6	1233866	1	4	4	1	0	665	1	4	0	192	6	0	0	100
random	6	1	7	1235324	6	1	1	1	0	627	1	4	0	168	7	0	0	100
random	6	1	8	1236252	2	3	3	1	0	964	1	4	0	184	8	0	0	100
random	6	1	9	1237497	4	2	2	1	0	679	1	4	0	176	9	0	0	100
random	6	1	10	1238908	1	1	1	2	0	1996	2	4	0	168	10	0	0	100
random	6	1	11	1241349	5	4	4	1	0	604	1	4	0	192	11	0	0	100
random	6	1	12	1242331	3	3	3	1	0	979	1	4	0	184	12	0	0	100
random	6	1	13	1244213	5	2	2	1	0	1323	1	4	0	176	13	0	0	100
random	6	1	14	1246085	1	4	4	1	0	779	1	4	0	192	14	0	0	100
random	6	1	15	1247633	3	1	1	1	0	682	1	4	0	168	15	0	0	100
random	6	1	16	1248927	4	3	3	1	0	811	1	4	0	184	16	0	0	100
random	6	1	17	1250235	6	4	4	1	0	636	1	4	0	192	17	0	0	100
random	6	1	18	1251696	2	1	1	1	0	694	1	4	0	168	18	0	0	100
random	6	1	19	1253225	5	3	3	1	0	725	1	4	0	184	19	0	0	100
random	6	1	20	1254573	2	2	2	1	0	836	1	4	0	176	20	0	0	100
random	6	1	21	1255961	3	3	3	1	0	753	1	4	0	184	21	0	0	100
random	6	1	22	1257196	6	1	1	1	0	1013	1	4	0	168	22	0	0	100
random	6	1	23	1258904	4	2	2	1	0	957	1	4	0	176	23	0	0	100
random	6	1	24	1260783	1	4	4	1	0	637	1	4	0	192	24	0	0	100
random	6	1	25	1262391	4	3	3	1	0	1209	1	4	0	184	25	0	0	100
random	6	1	26	1264313	2	1	1	1	0	1023	1	4	0	168	26	0	0	100
random	6	1	27	1266021	5	2	2	1	0	879	1	4	0	176	27	0	0	100
random	6	1	28	1267927	6	4	4	1	0	615	1	4	0	192	28	0	0	100
random	6	1	29	1269239	1	3	3	1	0	887	1	4	0	184	29	0	0	100
random	6	1	30	1271129	5	2	2	1	0	943	1	4	0	176	30	0	0	100
random	6	1	31	1272468	2	1	1	1	0	950	1	4	0	168	31	0	0	100
random	6	1	32	1273854	3	3	3	1	0	787	1	4	0	184	32	0	0	100
random	6	1	33	1275288	6	4	4	1	0	638	1	4	0	192	33	0	0	100
random	6	1	34	1276931	4	2	2	1	0	673	1	4	0	176	34	0	0	100
random	6	1	35	1278039	3	4	4	1	0	1002	1	4	0	192	35	0	0	100
random	6	1	36	1279709	1	1	1	1	0	732	1	4	0	168	36	0	0	100
random	6	1	37	1281605	3	4	4	1	0	763	1	4	0	192	37	0	0	100
random	6	1	38	1283369	5	3	3	1	0	1041	1	4	0	184	38	0	0	100
random	6	1	39	1284858	6	1	1	1	0	794	1	4	0	168	39	0	0	100
random	6	1	40	1286151	1	2	2	1	0	730	1	4	0	176	40	0	0	100
random	6	1	41	1287390	2	3	3	2	0	1734	2	4	0	184	41	0	0	100
random	6	1	42	1289474	4	4	4	1	0	774	1	4	0	192	42	0	0	100
random	6	1	43	1291258	1	2	2	1	0	779	1	4	0	176	43	0	0	100
random	6	1	44	1292368	6	3	3	1	0	651	1	4	0	184	44	0	0	100
random	6	1	45	1294060	3	1	1	1	0	740	1	4	0	168	45	0	0	100
random	6	1	46	1295355	4	4	4	1	0	645	1	4	0	192	46	0	0	100
random	6	1	47	1296719	2	2	2	1	0	883	1	4	0	176	47	0	0	100
random	6	1	48	1298254	5	1	1	1	0	842	1	4	0	168	48	0	0	100
random	6	1	49	1299816	2	3	3	1	0	1040	1	4	0	184	49	0	0	100
random	6	1	50	1301766	3	1	1	1	0	806	1	4	0	168	50	0	0	100
random	6	1	51	1303257	1	4	4	1	0	654	1	4	0	192	51	0	0	100
random	6	1	52	1304227	5	3	3	1	0	885	1	4	0	184	52	0	0	100
random	6	1	53	1305975	3	2	2	1	0	691	1	4	0	176	53	0	0	100
random	6	1	54	1307647	6	4	4	1	0	620	1	4	0	192	54	0	0	100
random	6	1	55	1308638	4	2	2	2	0	1322	2	4	0	176	55	0	0	100
random	6	1	56	1310335	1	1	1	1	0	907	1	4	0	168	56	0	0	100
random	6	1	57	1312036	5	4	4	1	0	634	1	4	0	192	57	0	0	100
random	6	1	58	1313427	2	1	1	1	0	728	1	4	0	168	58	0	0	100
random	6	1	59	1315180	6	2	2	1	0	973	1	4	0	176	59	0	0	100
random	6	1	60	1316979	4	3	3	1	0	1065	1	4	0	184	60	0	0	100
random	6	1	61	1319214	1	2	2	1	0	738	1	4	0	176	61	0	0	100
random	6	1	62	1320737	6	4	4	1	0	650	1	4	0	192	62	0	0	100
random	6	1	63	1322283	4	1	1	1	0	873	1	4	0	168	63	0	0	100
random	6	1	64	1324088	2	2	2	1	0	732	1	4	0	176	64	0	0	100
random	6	1	65	1325274	4	3	3	1	0	914	1	4	0	184	65	0	0	100
random	6	1	66	1327049	3	1	1	1	0	830	1	4	0	168	66	0	0	100
random	6	1	67	1328460	1	3	3	1	0	859	1	4	0	184	67	0	0	100
random	6	1	68	1330349	5	4	4	1	0	739	1	4	0	192	68	0	0	100
random	6	1	69	1331968	2	2	2	1	0	774	1	4	0	176	69	0	0	100
random	6	1	70	1333459	3	1	1	2	0	1159	2	4	0	168	70	0	0	100
random	6	1	71	1335084	5	4	4	1	0	618	1	4	0	192	71	0	0	100
random	6	1	72	1336138	6	3	3	1	0	733	1	4	0	184	72	0	0	100
random	6	1	73	1338160	2	1	1	1	0	1008	1	4	0	168	73	0	0	100
random	6	1	74	1340003	5	3	3	1	0	914	1	4	0	184	74	0	0	100
random	6	1	75	1341403	1	4	4	1	0	702	1	4	0	192	75	0	0	100
random	6	1	76	1342485	6	2	2	1	0	680	1	4	0	176	76	0	0	100
random	6	1	77	1343644	2	1	1	1	0	735	1	4	0	168	77	0	0	100
random	6	1	78	1344738	4	4	4	1	0	697	1	4	0	192	78	0	0	100
random	6	1	79	1346072	3	2	2	1	0	897	1	4	0	176	79	0	0	100
random	6	1	80	1347434	4	3	3	1	0	615	1	4	0	184	80	0	0	100
random	6	1	81	1348817	1	4	4	1	0	788	1	4	0	192	81	0	0	100
random	6	1	82	1350435	5	1	1	1	0	864	1	4	0	168	82	0	0	100
random	6	1	83	1351784	3	2	2	1	0	967	1	4	0	176	83	0	0	100
random	6	1	84	1353255	6	3	3	1	0	809	1	4	0	184	84	0	0	100
random	6	1	85	1355002	3	2	2	1	0	1822	1	4	0	176	85	0	0	100
random	6	1	86	1357646	1	3	3	1	0	550	1	4	0	184	86	0	0	100
random	6	1	87	1358960	4	4	4	1	0	751	1	4	0	192	87	0	0	100
random	6	1	88	1360080	2	1	1	1	0	647	1	4	0	168	88	0	0	100
random	6	1	89	1361153	6	4	4	1	0	842	1	4	0	192	89	0	0	100
random	6	1	90	1362609	3	3	3	1	0	924	1	4	0	184	90	0	0	100
random	6	1	91	1364325	5	4	4	1	0	763	1	4	0	192	91	0	0	100
random	6	1	92	1365481	1	2	2	1	0	635	1	4	0	176	92	0	0	100
random	6	1	93	1367100	5	1	1	1	0	814	1	4	0	168	93	0	0	100
random	6	1	94	1368773	4	3	3	1	0	727	1	4	0	184	94	0	0	100
random	6	1	95	1370492	6	1	1	1	0	966	1	4	0	168	95	0	0	100
random	6	1	96	1371853	2	2	2	1	0	997	1	4	0	176	96	0	0	100
random	6	1	97	1373430	4	3	3	1	0	842	1	4	0	184	97	0	0	100
random	6	1	98	1375145	3	2	2	1	0	738	1	4	0	176	98	0	0	100
random	6	1	99	1376794	6	3	3	1	0	691	1	4	0	184	99	0	0	100
random	6	1	100	1378449	1	4	4	1	0	637	1	4	0	192	100	0	0	100
random	6	1	101	1379879	4	1	1	1	0	993	1	4	0	168	101	0	0	100
random	6	1	102	1381906	5	2	2	1	0	1315	1	4	0	176	102	0	0	100
random	6	1	103	1383688	2	4	4	1	0	711	1	4	0	192	103	0	0	100
random	6	1	104	1385229	3	1	1	1	0	934	1	4	0	168	104	0	0	100
random	6	1	105	1386941	1	3	3	1	0	1030	1	4	0	184	105	0	0	100
random	6	1	106	1388861	2	2	2	1	0	917	1	4	0	176	106	0	0	100
random	6	1	107	1390652	5	4	4	1	0	761	1	4	0	192	107	0	0	100
random	6	1	108	1391997	6	1	1	1	0	936	1	4	0	168	108	0	0	100
random	6	1	109	1393513	5	4	4	1	0	719	1	4	0	192	109	0	0	100
random	6	1	110	1395197	6	3	3	1	0	776	1	4	0	184	110	0	0	100
random	6	1	111	1396805	2	2	2	1	0	916	1	4	0	176	111	0	0	100
random	6	1	112	1398254	3	1	1	1	0	895	1	4	0	168	112	0	0	100
random	6	1	113	1400066	1	2	2	1	0	754	1	4	0	176	113	0	0	100
random	6	1	114	1401563	2	3	3	1	0	779	1	4	0	184	114	0	0	100
random	6	1	115	1403356	3	1	1	1	0	678	1	4	0	168	115	0	0	100
random	6	1	116	1404398	4	4	4	1	0	722	1	4	0	192	116	0	0	100
random	6	1	117	1405857	6	1	1	2	0	1541	2	4	0	168	117	0	0	100
random	6	1	118	1408113	5	3	3	1	0	845	1	4	0	184	118	0	0	100
random	6	1	119	1409570	1	4	4	1	0	983	1	4	0	192	119	0	0	100
random	6	1	120	1411269	4	2	2	1	0	808	1	4	0	176	120	0	0	100
fixed	7	1	1	1413109	4	1	1	1	0	729	1	4	0	200	1	0	0	100
fixed	7	1	2	1414230	1	2	2	1	0	802	1	4	0	208	2	0	0	100
fixed	7	1	3	1415920	6	4	4	1	0	698	1	4	0	224	3	0	0	100
fixed	7	1	4	1417509	2	1	1	1	0	831	1	4	0	200	4	0	0	100
fixed	7	1	5	1419173	5	3	3	1	0	728	1	4	0	216	5	0	0	100
fixed	7	1	6	1420695	6	4	4	1	0	672	1	4	0	224	6	0	0	100
fixed	7	1	7	1421829	3	1	1	2	0	1176	2	4	0	200	7	0	0	100
fixed	7	1	8	1423814	2	3	3	1	0	1436	1	4	0	216	8	0	0	100
fixed	7	1	9	1425641	3	2	2	1	0	726	1	4	0	208	9	0	0	100
fixed	7	1	10	1427021	1	4	4	1	0	660	1	4	0	224	10	0	0	100
fixed	7	1	11	1428076	5	2	2	1	0	848	1	4	0	208	11	0	0	100
fixed	7	1	12	1429449	4	3	3	1	0	813	1	4	0	216	12	0	0	100
fixed	7	2	1	1431289	4	1	1	1	0	1175	1	4	0	200	1	0	0	8
fixed	7	2	2	1433336	1	2	2	1	0	993	1	4	0	208	2	0	0	14
fixed	7	2	3	1434945	6	4	4	1	0	637	1	4	0	224	3	0	0	20
fixed	7	2	4	1436115	2	1	1	1	0	667	1	4	0	200	4	0	0	25
fixed	7	2	5	1437587	5	3	3	1	0	884	1	4	0	216	5	0	0	29
fixed	7	2	6	1439381	6	4	4	1	0	761	1	4	0	224	6	0	0	33
fixed	7	2	7	1441170	3	1	1	1	0	877	1	4	0	200	7	0	0	37
fixed	7	2	8	1442791	2	3	3	1	0	848	1	4	0	216	8	0	0	40
fixed	7	2	9	1444322	3	2	2	1	0	727	1	4	0	208	9	0	0	43
fixed	7	2	10	1445898	1	4	4	1	0	677	1	4	0	224	10	0	0	45
fixed	7	2	11	1447600	5	2	2	1	0	892	1	4	0	208	11	0	0	48
fixed	7	2	12	1448989	4	3	3	1	0	730	1	4	0	216	12	0	0	50
fixed	7	3	1	1450904	4	1	1	1	0	736	1	4	0	200	1	0	0	4
fixed	7	3	2	1452068	1	2	2	1	0	816	1	4	0	208	2	0	0	8
fixed	7	3	3	1453575	6	4	4	1	0	647	1	4	0	224	3	0	0	11
fixed	7	3	4	1455105	2	1	1	1	0	871	1	4	0	200	4	0	0	14
fixed	7	3	5	1456544	5	3	3	1	0	938	1	4	0	216	5	0	0	17
fixed	7	3	6	1458043	6	4	4	1	0	706	1	4	0	224	6	0	0	20
fixed	7	3	7	1459338	3	1	1	1	0	715	1	4	0	200	7	0	0	23
fixed	7	3	8	1460561	2	3	3	2	0	1367	2	4	0	216	8	0	0	25
fixed	7	3	9	1462961	3	2	2	1	0	794	1	4	0	208	9	0	0	27
fixed	7	3	10	1464742	1	4	4	1	0	678	1	4	0	224	10	0	0	29
fixed	7	3	11	1465780	5	2	2	2	0	1387	2	4	0	208	11	0	0	31
fixed	7	3	12	1467935	4	3	3	2	0	1527	2	4	0	216	12	0	0	33
fixed	7	4	1	1470569	4	1	1	1	0	895	1	4	0	200	1	0	0	3
fixed	7	4	2	1472032	1	2	2	1	0	850	1	4	0	208	2	0	0	5
fixed	7	4	3	1473545	6	4	4	1	0	721	1	4	0	224	3	0	0	8
fixed	7	4	4	1474701	2	1	1	1	0	865	1	4	0	200	4	0	0	10
fixed	7	4	5	1476026	5	3	3	1	0	929	1	4	0	216	5	0	0	12
fixed	7	4	6	1477665	6	4	4	1	0	763	1	4	0	224	6	0	0	14
fixed	7	4	7	1479257	3	1	1	1	0	703	1	4	0	200	7	0	0	16
fixed	7	4	8	1480415	2	3	3	1	0	863	1	4	0	216	8	0	0	18
fixed	7	4	9	1482088	3	2	2	1	0	760	1	4	0	208	9	0	0	20
fixed	7	4	10	1483746	1	4	4	1	0	674	1	4	0	224	10	0	0	22
fixed	7	4	11	1484937	5	2	2	1	0	943	1	4	0	208	11	0	0	23
fixed	7	4	12	1486438	4	3	3	2	0	1039	2	4	0	216	12	0	0	25
fixed	7	5	1	1488646	4	1	1	1	0	682	1	4	0	200	1	0	0	2
fixed	7	5	2	1489747	1	2	2	1	0	1107	1	4	0	208	2	0	0	4
fixed	7	5	3	1491277	6	4	4	1	0	691	1	4	0	224	3	0	0	6
fixed	7	5	4	1492349	2	1	1	1	0	869	1	4	0	200	4	0	0	8
fixed	7	5	5	1493863	5	3	3	1	0	1381	1	4	0	216	5	0	0	9
fixed	7	5	6	1496249	6	4	4	1	0	728	1	4	0	224	6	0	0	11
fixed	7	5	7	1497802	3	1	1	1	0	822	1	4	0	200	7	0	0	13
fixed	7	5	8	1499181	2	3	3	1	0	988	1	4	0	216	8	0	0	14
fixed	7	5	9	1501055	3	2	2	1	0	701	1	4	0	208	9	0	0	16
fixed	7	5	10	1502062	1	4	4	1	0	794	1	4	0	224	10	0	0	17
fixed	7	5	11	1503776	5	2	2	1	0	953	1	4	0	208	11	0	0	19
fixed	7	5	12	1505024	4	3	3	1	0	948	1	4	0	216	12	0	0	20
fixed	7	6	1	1507025	4	1	1	1	0	1151	1	4	0	200	1	0	0	2
fixed	7	6	2	1508771	1	2	2	1	0	870	1	4	0	208	2	0	0	3
fixed	7	6	3	1510626	6	4	4	1	0	711	1	4	0	224	3	0	0	5
fixed	7	6	4	1511920	2	1	1	1	0	1000	1	4	0	200	4	0	0	6
fixed	7	6	5	1513224	5	3	3	1	0	961	1	4	0	216	5	0	0	8
fixed	7	6	6	1514630	6	4	4	1	0	685	1	4	0	224	6	0	0	9
fixed	7	6	7	1516058	3	1	1	1	0	897	1	4	0	200	7	0	0	10
fixed	7	6	8	1517542	2	3	3	1	0	1090	1	4	0	216	8	0	0	12
fixed	7	6	9	1519024	3	2	2	1	0	643	1	4	0	208	9	0	0	13
fixed	7	6	10	1520530	1	4	4	1	0	732	1	4	0	224	10	0	0	14
fixed	7	6	11	1521811	5	2	2	1	0	805	1	4	0	208	11	0	0	15
fixed	7	6	12	1523447	4	3	3	2	0	1128	2	4	0	216	12	0	0	17
fixed	7	7	1	1525570	4	1	1	1	0	670	1	4	0	200	1	0	0	1
fixed	7	7	2	1527168	1	2	0	1	2	0	3	4	0	208	1	0	1	1
fixed	7	7	3	1530522	6	4	4	1	0	684	1	4	0	224	2	0	1	3
fixed	7	7	4	1531566	2	1	1	1	0	1088	1	4	0	200	3	0	1	4
fixed	7	7	5	1533214	5	3	3	1	0	826	1	4	0	216	4	0	1	5
fixed	7	7	6	1534949	6	4	4	1	0	721	1	4	0	224	5	0	1	6
fixed	7	7	7	1536338	3	1	1	1	0	750	1	4	0	200	6	0	1	8
fixed	7	7	8	1537618	2	3	3	1	0	1072	1	4	0	216	7	0	1	9
fixed	7	7	9	1539053	3	2	2	1	0	715	1	4	0	208	8	0	1	10
fixed	7	7	10	1540402	1	4	4	1	0	666	1	4	0	224	9	0	1	11
fixed	7	7	11	1541787	5	2	2	1	0	991	1	4	0	208	10	0	1	12
fixed	7	7	12	1543411	4	3	3	1	0	882	1	4	0	216	11	0	1	13
fixed	7	8	1	1545352	4	1	1	1	0	680	1	4	0	200	1	0	0	1
fixed	7	8	2	1546702	1	2	2	1	0	1135	1	4	0	208	2	0	0	2
fixed	7	8	3	1548395	6	4	4	1	0	767	1	4	0	224	3	0	0	3
fixed	7	8	4	1549883	2	1	1	1	0	760	1	4	0	200	4	0	0	5
fixed	7	8	5	1551382	5	3	3	2	0	929	2	4	0	216	5	0	0	6
fixed	7	8	6	1553090	6	4	4	1	0	768	1	4	0	224	6	0	0	7
fixed	7	8	7	1554676	3	1	1	1	0	1005	1	4	0	200	7	0	0	8
fixed	7	8	8	1556303	2	3	3	1	0	937	1	4	0	216	8	0	0	9
fixed	7	8	9	1557925	3	2	2	1	0	884	1	4	0	208	9	0	0	10
fixed	7	8	10	1559826	1	4	4	1	0	691	1	4	0	224	10	0	0	11
fixed	7	8	11	1561314	5	2	2	1	0	884	1	4	0	208	11	0	0	12
fixed	7	8	12	1563113	4	3	3	2	0	1032	2	4	0	216	12	0	0	13
fixed	7	9	1	1565067	4	1	1	1	0	1037	1	4	0	200	1	0	0	1
fixed	7	9	2	1566687	1	2	2	1	0	776	1	4	0	208	2	0	0	2
fixed	7	9	3	1568255	6	4	4	1	0	671	1	4	0	224	3	0	0	3
fixed	7	9	4	1569877	2	1	1	1	0	769	1	4	0	200	4	0	0	4
fixed	7	9	5	1571238	5	3	3	1	0	832	1	4	0	216	5	0	0	5
fixed	7	9	6	1572834	6	4	4	1	0	716	1	4	0	224	6	0	0	6
fixed	7	9	7	1573876	3	1	1	1	0	792	1	4	0	200	7	0	0	7
fixed	7	9	8	1575045	2	3	0	1	2	0	3	4	0	216	7	0	1	7
fixed	7	9	9	1578376	3	2	2	1	0	866	1	4	0	208	8	0	1	8
fixed	7	9	10	1580155	1	4	4	1	0	878	1	4	0	224	9	0	1	8
fixed	7	9	11	1581619	5	2	2	1	0	808	1	4	0	208	10	0	1	9
fixed	7	9	12	1582811	4	3	3	1	0	765	1	4	0	216	11	0	1	10
fixed	7	10	1	1584699	4	1	1	1	0	837	1	4	0	200	1	0	0	1
fixed	7	10	2	1585858	1	2	2	2	0	1373	2	4	0	208	2	0	0	2
fixed	7	10	3	1588119	6	4	4	1	0	805	1	4	0	224	3	0	0	3
fixed	7	10	4	1589655	2	1	1	1	0	716	1	4	0	200	4	0	0	4
fixed	7	10	5	1590886	5	3	3	1	0	880	1	4	0	216	5	0	0	4
fixed	7	10	6	1592124	6	4	4	1	0	779	1	4	0	224	6	0	0	5
fixed	7	10	7	1593847	3	1	1	1	0	786	1	4	0	200	7	0	0	6
fixed	7	10	8	1595216	2	3	3	1	0	872	1	4	0	216	8	0	0	7
fixed	7	10	9	1596695	3	2	2	1	0	873	1	4	0	208	9	0	0	8
fixed	7	10	10	1598457	1	4	4	1	0	655	1	4	0	224	10	0	0	8
fixed	7	10	11	1599540	5	2	2	1	0	1041	1	4	0	208	11	0	0	9
fixed	7	10	12	1601484	4	3	3	1	0	895	1	4	0	216	12	0	0	10
