type	block	sequ.	trial	time	Pos.	Color	Button	NumRsp	Resp_1	RT_1	R_Code	Resp_2	RT_2	Trigg.	n_hit	n_inc	n_miss	score_%

random	1	1	1	23941	6	1	1	1	0	1586	1	4	0	8	1	0	0	100
random	1	1	2	26498	4	4	4	1	0	1565	1	4	0	32	2	0	0	100
random	1	1	3	28901	2	2	2	1	0	1664	1	4	0	16	3	0	0	100
random	1	1	4	31440	3	3	3	1	0	941	1	4	0	24	4	0	0	100
random	1	1	5	32873	5	2	2	1	0	1408	1	4	0	16	5	0	0	100
random	1	1	6	34698	1	4	4	1	0	963	1	4	0	32	6	0	0	100
random	1	1	7	36033	6	1	0	1	2	0	3	4	0	8	6	0	1	86
random	1	1	8	39386	2	3	3	1	0	1716	1	4	0	24	7	0	1	88
random	1	1	9	41400	4	2	2	1	0	990	1	4	0	16	8	0	1	89
random	1	1	10	43002	1	1	1	1	0	1243	1	4	0	8	9	0	1	90
random	1	1	11	45171	5	4	4	1	0	1511	1	4	0	32	10	0	1	91
random	1	1	12	47498	3	3	3	1	0	1628	1	4	0	24	11	0	1	92
random	1	1	13	49805	5	2	2	1	0	1226	1	4	0	16	12	0	1	92
random	1	1	14	51766	1	4	4	1	0	1007	1	4	0	32	13	0	1	93
random	1	1	15	53511	3	1	1	1	0	1046	1	4	0	8	14	0	1	93
random	1	1	16	54909	4	3	3	1	0	1514	1	4	0	24	15	0	1	94
random	1	1	17	57046	6	4	4	1	0	976	1	4	0	32	16	0	1	94
random	1	1	18	58467	2	1	1	1	0	988	1	4	0	8	17	0	1	94
random	1	1	19	60359	5	3	3	1	0	1188	1	4	0	24	18	0	1	95
random	1	1	20	62475	2	2	2	1	0	914	1	4	0	16	19	0	1	95
random	1	1	21	64002	3	3	3	1	0	1441	1	4	0	24	20	0	1	95
random	1	1	22	65998	6	1	1	1	0	973	1	4	0	8	21	0	1	95
random	1	1	23	67470	4	2	2	1	0	1046	1	4	0	16	22	0	1	96
random	1	1	24	68996	1	4	4	1	0	710	1	4	0	32	23	0	1	96
random	1	1	25	70440	4	3	3	1	0	1712	1	4	0	24	24	0	1	96
random	1	1	26	72812	2	1	1	1	0	1180	1	4	0	8	25	0	1	96
random	1	1	27	74834	5	2	2	1	0	1078	1	4	0	16	26	0	1	96
random	1	1	28	76579	6	4	4	1	0	972	1	4	0	32	27	0	1	96
random	1	1	29	78439	1	3	0	1	2	0	3	4	0	24	27	0	2	93
random	1	1	30	81434	5	2	2	1	0	1143	1	4	0	16	28	0	2	93
random	1	1	31	83560	2	1	1	1	0	1037	1	4	0	8	29	0	2	94
random	1	1	32	85517	3	3	3	1	0	1562	1	4	0	24	30	0	2	94
random	1	1	33	87932	6	4	4	1	0	1027	1	4	0	32	31	0	2	94
random	1	1	34	89259	4	2	2	1	0	1051	1	4	0	16	32	0	2	94
random	1	1	35	91055	3	4	4	1	0	967	1	4	0	32	33	0	2	94
random	1	1	36	92964	1	1	1	1	0	838	1	4	0	8	34	0	2	94
random	1	1	37	94750	3	4	4	1	0	827	1	4	0	32	35	0	2	95
random	1	1	38	95943	5	3	3	1	0	1520	1	4	0	24	36	0	2	95
random	1	1	39	98084	6	1	1	1	0	1382	1	4	0	8	37	0	2	95
random	1	1	40	100274	1	2	2	1	0	1593	1	4	0	16	38	0	2	95
random	1	1	41	102403	2	3	3	1	0	1175	1	4	0	24	39	0	2	95
random	1	1	42	104248	4	4	4	1	0	921	1	4	0	32	40	0	2	95
random	1	1	43	105520	1	2	2	1	0	1099	1	4	0	16	41	0	2	95
random	1	1	44	107506	6	3	3	1	0	1335	1	4	0	24	42	0	2	95
random	1	1	45	109786	3	1	1	1	0	662	1	4	0	8	43	0	2	96
random	1	1	46	111058	4	4	4	1	0	856	1	4	0	32	44	0	2	96
random	1	1	47	112918	2	2	2	1	0	1057	1	4	0	16	45	0	2	96
random	1	1	48	114966	5	1	1	1	0	994	1	4	0	8	46	0	2	96
random	1	1	49	116971	2	3	3	1	0	1853	1	4	0	24	47	0	2	96
random	1	1	50	119746	3	1	1	1	0	952	1	4	0	8	48	0	2	96
random	1	1	51	121213	1	4	4	1	0	714	1	4	0	32	49	0	2	96
random	1	1	52	122436	5	3	3	1	0	1550	1	4	0	24	50	0	2	96
random	1	1	53	124646	3	2	2	1	0	761	1	4	0	16	51	0	2	96
random	1	1	54	126125	6	4	4	1	0	786	1	4	0	32	52	0	2	96
random	1	1	55	127505	4	2	2	1	0	1279	1	4	0	16	53	0	2	96
random	1	1	56	129565	1	1	1	1	0	962	1	4	0	8	54	0	2	96
random	1	1	57	131464	5	4	4	1	0	968	1	4	0	32	55	0	2	96
random	1	1	58	133049	2	1	1	1	0	1093	1	4	0	8	56	0	2	97
random	1	1	59	135142	6	2	2	1	0	1996	1	4	0	16	57	0	2	97
random	1	1	60	137457	4	3	3	1	0	1018	1	4	0	24	58	0	2	97
random	1	1	61	139025	1	2	2	1	0	1103	1	4	0	16	59	0	2	97
random	1	1	62	141020	6	4	4	1	0	923	1	4	0	32	60	0	2	97
random	1	1	63	142700	4	1	1	1	0	908	1	4	0	8	61	0	2	97
random	1	1	64	144017	2	2	2	1	0	1164	1	4	0	16	62	0	2	97
random	1	1	65	145478	4	3	3	1	0	830	1	4	0	24	63	0	2	97
random	1	1	66	146955	3	1	1	1	0	856	1	4	0	8	64	0	2	97
random	1	1	67	148831	1	3	3	1	0	1400	1	4	0	24	65	0	2	97
random	1	1	68	150586	5	4	4	1	0	974	1	4	0	32	66	0	2	97
random	1	1	69	152550	2	2	2	1	0	875	1	4	0	16	67	0	2	97
random	1	1	70	154319	3	1	1	1	0	952	1	4	0	8	68	0	2	97
random	1	1	71	156113	5	4	4	1	0	756	1	4	0	32	69	0	2	97
random	1	1	72	157442	6	3	3	1	0	1139	1	4	0	24	70	0	2	97
random	1	1	73	159626	2	1	1	1	0	927	1	4	0	8	71	0	2	97
random	1	1	74	161198	5	3	3	1	0	2228	1	4	0	24	72	0	2	97
random	1	1	75	163892	1	4	4	1	0	842	1	4	0	32	73	0	2	97
random	1	1	76	165276	6	2	2	1	0	984	1	4	0	16	74	0	2	97
random	1	1	77	166926	2	1	1	1	0	1042	1	4	0	8	75	0	2	97
random	1	1	78	168517	4	4	4	1	0	958	1	4	0	32	76	0	2	97
random	1	1	79	169956	3	2	2	1	0	857	1	4	0	16	77	0	2	97
random	1	1	80	171777	4	3	3	1	0	1260	1	4	0	24	78	0	2	98
random	1	1	81	173340	1	4	4	1	0	922	1	4	0	32	79	0	2	98
random	1	1	82	175035	5	1	1	1	0	594	1	4	0	8	80	0	2	98
random	1	1	83	176473	3	2	2	1	0	1141	1	4	0	16	81	0	2	98
random	1	1	84	178398	6	3	3	1	0	972	1	4	0	24	82	0	2	98
random	1	1	85	180059	3	2	2	1	0	1117	1	4	0	16	83	0	2	98
random	1	1	86	181931	1	3	3	1	0	1062	1	4	0	24	84	0	2	98
random	1	1	87	183926	4	4	4	1	0	914	1	4	0	32	85	0	2	98
random	1	1	88	185324	2	1	1	1	0	742	1	4	0	8	86	0	2	98
random	1	1	89	186376	6	4	4	1	0	818	1	4	0	32	87	0	2	98
random	1	1	90	187669	3	3	3	1	0	1115	1	4	0	24	88	0	2	98
random	1	1	91	189227	5	4	4	1	0	1009	1	4	0	32	89	0	2	98
random	1	1	92	190907	1	2	2	1	0	1442	1	4	0	16	90	0	2	98
random	1	1	93	192806	5	1	1	1	0	993	1	4	0	8	91	0	2	98
random	1	1	94	194117	4	3	3	1	0	1194	1	4	0	24	92	0	2	98
random	1	1	95	196288	6	1	1	1	0	990	1	4	0	8	93	0	2	98
random	1	1	96	198147	2	2	2	1	0	920	1	4	0	16	94	0	2	98
random	1	1	97	200326	4	3	3	1	0	1211	1	4	0	24	95	0	2	98
random	1	1	98	202018	3	2	2	1	0	851	1	4	0	16	96	0	2	98
random	1	1	99	203800	6	3	3	1	0	1136	1	4	0	24	97	0	2	98
random	1	1	100	205453	1	4	4	1	0	834	1	4	0	32	98	0	2	98
random	1	1	101	206721	4	1	1	1	0	757	1	4	0	8	99	0	2	98
random	1	1	102	208018	5	2	2	1	0	973	1	4	0	16	100	0	2	98
random	1	1	103	209957	2	4	4	1	0	779	1	4	0	32	101	0	2	98
random	1	1	104	211660	3	1	1	1	0	979	1	4	0	8	102	0	2	98
random	1	1	105	213063	1	3	3	1	0	1344	1	4	0	24	103	0	2	98
random	1	1	106	215123	2	2	2	1	0	913	1	4	0	16	104	0	2	98
random	1	1	107	216357	5	4	4	1	0	764	1	4	0	32	105	0	2	98
random	1	1	108	217950	6	1	1	1	0	808	1	4	0	8	106	0	2	98
random	1	1	109	219406	5	4	4	1	0	1003	1	4	0	32	107	0	2	98
random	1	1	110	221315	6	3	0	0	2	0	3	4	0	24	107	0	3	97
random	1	1	111	224276	2	2	2	1	0	925	1	4	0	16	108	0	3	97
random	1	1	112	226019	3	1	1	1	0	811	1	4	0	8	109	0	3	97
random	1	1	113	227492	1	2	2	1	0	1108	1	4	0	16	110	0	3	97
random	1	1	114	229449	2	3	3	1	0	1057	1	4	0	24	111	0	3	97
random	1	1	115	230937	3	1	1	1	0	786	1	4	0	8	112	0	3	97
random	1	1	116	232370	4	4	4	1	0	734	1	4	0	32	113	0	3	97
random	1	1	117	233531	6	1	1	1	0	1061	1	4	0	8	114	0	3	97
random	1	1	118	235012	5	3	3	1	0	1238	1	4	0	24	115	0	3	97
random	1	1	119	236607	1	4	4	1	0	835	1	4	0	32	116	0	3	97
random	1	1	120	238348	4	2	2	1	0	1033	1	4	0	16	117	0	3	98
fixed	2	1	1	240873	4	1	1	1	0	1109	1	4	0	40	1	0	0	100
fixed	2	1	2	242540	1	2	2	1	0	1631	1	4	0	48	2	0	0	100
fixed	2	1	3	245066	6	4	4	1	0	860	1	4	0	64	3	0	0	100
fixed	2	1	4	246832	2	1	1	1	0	1177	1	4	0	40	4	0	0	100
fixed	2	1	5	248911	5	3	3	1	0	1649	1	4	0	56	5	0	0	100
fixed	2	1	6	251004	6	4	4	1	0	841	1	4	0	64	6	0	0	100
fixed	2	1	7	252175	3	1	1	1	0	847	1	4	0	40	7	0	0	100
fixed	2	1	8	253602	2	3	3	1	0	1315	1	4	0	56	8	0	0	100
fixed	2	1	9	255844	3	2	2	1	0	819	1	4	0	48	9	0	0	100
fixed	2	1	10	257371	1	4	4	1	0	979	1	4	0	64	10	0	0	100
fixed	2	1	11	259253	5	2	2	1	0	1091	1	4	0	48	11	0	0	100
fixed	2	1	12	260834	4	3	3	1	0	1024	1	4	0	56	12	0	0	100
fixed	2	2	1	262579	4	1	1	1	0	998	1	4	0	40	13	0	0	100
fixed	2	2	2	263949	1	2	2	1	0	1820	1	4	0	48	14	0	0	100
fixed	2	2	3	266706	6	4	4	1	0	807	1	4	0	64	15	0	0	100
fixed	2	2	4	268518	2	1	1	1	0	907	1	4	0	40	16	0	0	100
fixed	2	2	5	269922	5	3	3	1	0	1167	1	4	0	56	17	0	0	100
fixed	2	2	6	271567	6	4	4	1	0	873	1	4	0	64	18	0	0	100
fixed	2	2	7	272893	3	1	1	1	0	849	1	4	0	40	19	0	0	100
fixed	2	2	8	274732	2	3	3	1	0	1324	1	4	0	56	20	0	0	100
fixed	2	2	9	276878	3	2	2	1	0	800	1	4	0	48	21	0	0	100
fixed	2	2	10	278704	1	4	4	1	0	827	1	4	0	64	22	0	0	100
fixed	2	2	11	280436	5	2	2	1	0	1426	1	4	0	48	23	0	0	100
fixed	2	2	12	282246	4	3	3	1	0	1069	1	4	0	56	24	0	0	100
fixed	2	3	1	283998	4	1	1	1	0	1651	1	4	0	40	25	0	0	100
fixed	2	3	2	286315	1	2	2	1	0	1201	1	4	0	48	26	0	0	100
fixed	2	3	3	288470	6	4	4	1	0	766	1	4	0	64	27	0	0	100
fixed	2	3	4	289929	2	1	1	1	0	1344	1	4	0	40	28	0	0	100
fixed	2	3	5	292272	5	3	3	1	0	1205	1	4	0	56	29	0	0	100
fixed	2	3	6	294325	6	4	4	1	0	774	1	4	0	64	30	0	0	100
fixed	2	3	7	295827	3	1	1	1	0	878	1	4	0	40	31	0	0	100
fixed	2	3	8	297003	2	3	3	1	0	1268	1	4	0	56	32	0	0	100
fixed	2	3	9	298587	3	2	2	1	0	985	1	4	0	48	33	0	0	100
fixed	2	3	10	300117	1	4	4	1	0	961	1	4	0	64	34	0	0	100
fixed	2	3	11	302033	5	2	2	1	0	1167	1	4	0	48	35	0	0	100
fixed	2	3	12	304193	4	3	3	1	0	1052	1	4	0	56	36	0	0	100
fixed	2	4	1	306403	4	1	1	1	0	878	1	4	0	40	37	0	0	100
fixed	2	4	2	308317	1	2	2	1	0	1101	1	4	0	48	38	0	0	100
fixed	2	4	3	310109	6	4	4	1	0	785	1	4	0	64	39	0	0	100
fixed	2	4	4	311345	2	1	1	1	0	981	1	4	0	40	40	0	0	100
fixed	2	4	5	313176	5	3	3	1	0	991	1	4	0	56	41	0	0	100
fixed	2	4	6	314576	6	4	4	1	0	924	1	4	0	64	42	0	0	100
fixed	2	4	7	315930	3	1	1	1	0	1027	1	4	0	40	43	0	0	100
fixed	2	4	8	317996	2	3	3	1	0	1171	1	4	0	56	44	0	0	100
fixed	2	4	9	319711	3	2	2	1	0	867	1	4	0	48	45	0	0	100
fixed	2	4	10	321186	1	4	4	1	0	1372	1	4	0	64	46	0	0	100
fixed	2	4	11	323282	5	2	2	1	0	1019	1	4	0	48	47	0	0	100
fixed	2	4	12	324615	4	3	3	1	0	1227	1	4	0	56	48	0	0	100
fixed	2	5	1	326953	4	1	1	1	0	831	1	4	0	40	49	0	0	100
fixed	2	5	2	328337	1	2	2	1	0	1037	1	4	0	48	50	0	0	100
fixed	2	5	3	330100	6	4	4	1	0	882	1	4	0	64	51	0	0	100
fixed	2	5	4	331862	2	1	1	1	0	856	1	4	0	40	52	0	0	100
fixed	2	5	5	333284	5	3	3	1	0	1043	1	4	0	56	53	0	0	100
fixed	2	5	6	335270	6	4	4	1	0	808	1	4	0	64	54	0	0	100
fixed	2	5	7	336571	3	1	1	1	0	945	1	4	0	40	55	0	0	100
fixed	2	5	8	338342	2	3	3	1	0	1150	1	4	0	56	56	0	0	100
fixed	2	5	9	340403	3	2	2	1	0	918	1	4	0	48	57	0	0	100
fixed	2	5	10	341773	1	4	4	1	0	836	1	4	0	64	58	0	0	100
fixed	2	5	11	343187	5	2	2	1	0	1392	1	4	0	48	59	0	0	100
fixed	2	5	12	345445	4	3	3	1	0	1665	1	4	0	56	60	0	0	100
fixed	2	6	1	348105	4	1	1	1	0	960	1	4	0	40	61	0	0	100
fixed	2	6	2	349850	1	2	2	1	0	2150	1	4	0	48	62	0	0	100
fixed	2	6	3	352956	6	4	4	1	0	850	1	4	0	64	63	0	0	100
fixed	2	6	4	354157	2	1	1	1	0	799	1	4	0	40	64	0	0	100
fixed	2	6	5	355919	5	3	3	1	0	1525	1	4	0	56	65	0	0	100
fixed	2	6	6	358347	6	4	4	1	0	854	1	4	0	64	66	0	0	100
fixed	2	6	7	360083	3	1	1	1	0	924	1	4	0	40	67	0	0	100
fixed	2	6	8	362038	2	3	3	1	0	1953	1	4	0	56	68	0	0	100
fixed	2	6	9	364379	3	2	2	1	0	846	1	4	0	48	69	0	0	100
fixed	2	6	10	365517	1	4	4	1	0	710	1	4	0	64	70	0	0	100
fixed	2	6	11	367229	5	2	2	1	0	1510	1	4	0	48	71	0	0	100
fixed	2	6	12	369723	4	3	3	1	0	828	1	4	0	56	72	0	0	100
fixed	2	7	1	371613	4	1	1	1	0	820	1	4	0	40	73	0	0	100
fixed	2	7	2	373147	1	2	2	1	0	1395	1	4	0	48	74	0	0	100
fixed	2	7	3	375333	6	4	4	1	0	871	1	4	0	64	75	0	0	100
fixed	2	7	4	376800	2	1	1	1	0	1496	1	4	0	40	76	0	0	100
fixed	2	7	5	379095	5	3	3	1	0	959	1	4	0	56	77	0	0	100
fixed	2	7	6	381075	6	4	4	1	0	699	1	4	0	64	78	0	0	100
fixed	2	7	7	382202	3	1	1	1	0	1044	1	4	0	40	79	0	0	100
fixed	2	7	8	384047	2	3	3	1	0	1005	1	4	0	56	80	0	0	100
fixed	2	7	9	385540	3	2	2	1	0	750	1	4	0	48	81	0	0	100
fixed	2	7	10	386816	1	4	4	1	0	696	1	4	0	64	82	0	0	100
fixed	2	7	11	388033	5	2	2	1	0	1229	1	4	0	48	83	0	0	100
fixed	2	7	12	390220	4	3	3	1	0	1184	1	4	0	56	84	0	0	100
fixed	2	8	1	392013	4	1	1	1	0	828	1	4	0	40	85	0	0	100
fixed	2	8	2	393501	1	2	2	1	0	909	1	4	0	48	86	0	0	100
fixed	2	8	3	395131	6	4	4	1	0	744	1	4	0	64	87	0	0	100
fixed	2	8	4	396780	2	1	1	1	0	1458	1	4	0	40	88	0	0	100
fixed	2	8	5	398898	5	3	3	1	0	968	1	4	0	56	89	0	0	100
fixed	2	8	6	400423	6	4	4	1	0	904	1	4	0	64	90	0	0	100
fixed	2	8	7	402064	3	1	1	1	0	1083	1	4	0	40	91	0	0	100
fixed	2	8	8	404048	2	3	3	1	0	1126	1	4	0	56	92	0	0	100
fixed	2	8	9	405670	3	2	2	1	0	922	1	4	0	48	93	0	0	100
fixed	2	8	10	407132	1	4	4	1	0	691	1	4	0	64	94	0	0	100
fixed	2	8	11	408253	5	2	2	1	0	956	1	4	0	48	95	0	0	100
fixed	2	8	12	410037	4	3	3	1	0	937	1	4	0	56	96	0	0	100
fixed	2	9	1	411828	4	1	1	1	0	765	1	4	0	40	97	0	0	100
fixed	2	9	2	413250	1	2	2	1	0	1032	1	4	0	48	98	0	0	100
fixed	2	9	3	415160	6	4	4	1	0	704	1	4	0	64	99	0	0	100
fixed	2	9	4	416360	2	1	1	1	0	957	1	4	0	40	100	0	0	100
fixed	2	9	5	417808	5	3	3	1	0	1143	1	4	0	56	101	0	0	100
fixed	2	9	6	419264	6	4	4	1	0	802	1	4	0	64	102	0	0	100
fixed	2	9	7	421003	3	1	0	0	2	0	3	4	0	40	102	0	1	99
fixed	2	9	8	423841	2	3	3	1	0	1856	1	4	0	56	103	0	1	99
fixed	2	9	9	426532	3	2	2	1	0	758	1	4	0	48	104	0	1	99
fixed	2	9	10	428092	1	4	4	1	0	756	1	4	0	64	105	0	1	99
fixed	2	9	11	429435	5	2	2	1	0	1011	1	4	0	48	106	0	1	99
fixed	2	9	12	431404	4	3	3	1	0	952	1	4	0	56	107	0	1	99
fixed	2	10	1	433281	4	1	1	1	0	1032	1	4	0	40	108	0	1	99
fixed	2	10	2	435073	1	2	2	1	0	1292	1	4	0	48	109	0	1	99
fixed	2	10	3	437329	6	4	4	1	0	709	1	4	0	64	110	0	1	99
fixed	2	10	4	438789	2	1	1	1	0	1111	1	4	0	40	111	0	1	99
fixed	2	10	5	440808	5	3	3	1	0	993	1	4	0	56	112	0	1	99
fixed	2	10	6	442798	6	4	4	1	0	701	1	4	0	64	113	0	1	99
fixed	2	10	7	444425	3	1	1	1	0	896	1	4	0	40	114	0	1	99
fixed	2	10	8	445629	2	3	3	1	0	1413	1	4	0	56	115	0	1	99
fixed	2	10	9	447398	3	2	2	1	0	866	1	4	0	48	116	0	1	99
fixed	2	10	10	448913	1	4	4	1	0	658	1	4	0	64	117	0	1	99
fixed	2	10	11	450394	5	2	2	1	0	1195	1	4	0	48	118	0	1	99
fixed	2	10	12	452589	4	3	3	1	0	1487	1	4	0	56	119	0	1	99
fixed	3	1	1	455567	4	1	1	1	0	1152	1	4	0	72	1	0	0	100
fixed	3	1	2	457099	1	2	2	1	0	1031	1	4	0	80	2	0	0	100
fixed	3	1	3	458808	6	4	4	1	0	663	1	4	0	96	3	0	0	100
fixed	3	1	4	460342	2	1	0	0	2	0	3	4	0	72	3	0	1	75
fixed	3	1	5	463791	5	3	3	1	0	1204	1	4	0	88	4	0	1	80
fixed	3	1	6	466043	6	4	4	1	0	716	1	4	0	96	5	0	1	83
fixed	3	1	7	467520	3	1	1	1	0	1022	1	4	0	72	6	0	1	86
fixed	3	1	8	469138	2	3	3	1	0	1513	1	4	0	88	7	0	1	88
fixed	3	1	9	471524	3	2	2	1	0	852	1	4	0	80	8	0	1	89
fixed	3	1	10	472966	1	4	4	1	0	615	1	4	0	96	9	0	1	90
fixed	3	1	11	474213	5	2	2	1	0	1186	1	4	0	80	10	0	1	91
fixed	3	1	12	475944	4	3	3	1	0	889	1	4	0	88	11	0	1	92
fixed	3	2	1	477489	4	1	1	1	0	887	1	4	0	72	12	0	1	92
fixed	3	2	2	479417	1	2	2	1	0	1286	1	4	0	80	13	0	1	93
fixed	3	2	3	481070	6	4	4	1	0	776	1	4	0	96	14	0	1	93
fixed	3	2	4	482694	2	1	1	1	0	1003	1	4	0	72	15	0	1	94
fixed	3	2	5	484131	5	3	3	1	0	1119	1	4	0	88	16	0	1	94
fixed	3	2	6	485938	6	4	4	1	0	850	1	4	0	96	17	0	1	94
fixed	3	2	7	487197	3	1	1	1	0	1060	1	4	0	72	18	0	1	95
fixed	3	2	8	489037	2	3	3	1	0	1262	1	4	0	88	19	0	1	95
fixed	3	2	9	491145	3	2	2	1	0	925	1	4	0	80	20	0	1	95
fixed	3	2	10	492948	1	4	4	1	0	697	1	4	0	96	21	0	1	95
fixed	3	2	11	493986	5	2	2	1	0	1053	1	4	0	80	22	0	1	96
fixed	3	2	12	495904	4	3	3	1	0	852	1	4	0	88	23	0	1	96
fixed	3	3	1	497839	4	1	1	1	0	745	1	4	0	72	24	0	1	96
fixed	3	3	2	499040	1	2	2	1	0	887	1	4	0	80	25	0	1	96
fixed	3	3	3	500837	6	4	4	1	0	635	1	4	0	96	26	0	1	96
fixed	3	3	4	501997	2	1	1	1	0	969	1	4	0	72	27	0	1	96
fixed	3	3	5	503521	5	3	3	1	0	961	1	4	0	88	28	0	1	97
fixed	3	3	6	505276	6	4	4	1	0	807	1	4	0	96	29	0	1	97
fixed	3	3	7	506619	3	1	1	1	0	742	1	4	0	72	30	0	1	97
fixed	3	3	8	507896	2	3	3	1	0	1271	1	4	0	88	31	0	1	97
fixed	3	3	9	509746	3	2	2	1	0	722	1	4	0	80	32	0	1	97
fixed	3	3	10	510949	1	4	4	1	0	839	1	4	0	96	33	0	1	97
fixed	3	3	11	512387	5	2	2	1	0	1098	1	4	0	80	34	0	1	97
fixed	3	3	12	514058	4	3	3	1	0	755	1	4	0	88	35	0	1	97
fixed	3	4	1	515516	4	1	1	1	0	1021	1	4	0	72	36	0	1	97
fixed	3	4	2	517108	1	2	2	1	0	954	1	4	0	80	37	0	1	97
fixed	3	4	3	518882	6	4	4	1	0	943	1	4	0	96	38	0	1	97
fixed	3	4	4	520286	2	1	1	1	0	1155	1	4	0	72	39	0	1	98
fixed	3	4	5	522481	5	3	3	1	0	1166	1	4	0	88	40	0	1	98
fixed	3	4	6	524208	6	4	4	1	0	797	1	4	0	96	41	0	1	98
fixed	3	4	7	525565	3	1	1	1	0	843	1	4	0	72	42	0	1	98
fixed	3	4	8	526885	2	3	3	1	0	1412	1	4	0	88	43	0	1	98
fixed	3	4	9	528598	3	2	2	1	0	827	1	4	0	80	44	0	1	98
fixed	3	4	10	529810	1	4	4	1	0	744	1	4	0	96	45	0	1	98
fixed	3	4	11	531408	5	2	2	1	0	1100	1	4	0	80	46	0	1	98
fixed	3	4	12	533386	4	3	0	1	2	0	3	4	0	88	46	0	2	96
fixed	3	5	1	537002	4	1	1	1	0	1071	1	4	0	72	47	0	2	96
fixed	3	5	2	538495	1	2	2	1	0	1208	1	4	0	80	48	0	2	96
fixed	3	5	3	540484	6	4	4	1	0	708	1	4	0	96	49	0	2	96
fixed	3	5	4	541907	2	1	1	1	0	791	1	4	0	72	50	0	2	96
fixed	3	5	5	543328	5	3	3	1	0	1123	1	4	0	88	51	0	2	96
fixed	3	5	6	545085	6	4	4	1	0	681	1	4	0	96	52	0	2	96
fixed	3	5	7	546370	3	1	1	1	0	890	1	4	0	72	53	0	2	96
fixed	3	5	8	548113	2	3	0	0	2	0	3	4	0	88	53	0	3	95
fixed	3	5	9	551238	3	2	2	1	0	12	1	4	0	80	54	0	3	95
fixed	3	5	10	552263	1	4	4	1	0	849	1	4	0	96	55	0	3	95
fixed	3	5	11	553546	5	2	2	1	0	1650	1	4	0	80	56	0	3	95
fixed	3	5	12	555644	4	3	3	1	0	802	1	4	0	88	57	0	3	95
fixed	3	6	1	557352	4	1	0	1	2	0	3	4	0	72	57	0	4	93
fixed	3	6	2	560461	1	2	2	1	0	981	1	4	0	80	58	0	4	94
fixed	3	6	3	561776	6	4	4	1	0	878	1	4	0	96	59	0	4	94
fixed	3	6	4	563099	2	1	1	1	0	845	1	4	0	72	60	0	4	94
fixed	3	6	5	564550	5	3	3	1	0	1072	1	4	0	88	61	0	4	94
fixed	3	6	6	566425	6	4	4	1	0	664	1	4	0	96	62	0	4	94
fixed	3	6	7	568115	3	1	1	1	0	937	1	4	0	72	63	0	4	94
fixed	3	6	8	569938	2	3	3	1	0	1364	1	4	0	88	64	0	4	94
fixed	3	6	9	572086	3	2	2	1	0	913	1	4	0	80	65	0	4	94
fixed	3	6	10	573735	1	4	4	1	0	707	1	4	0	96	66	0	4	94
fixed	3	6	11	574839	5	2	2	1	0	989	1	4	0	80	67	0	4	94
fixed	3	6	12	576365	4	3	3	1	0	891	1	4	0	88	68	0	4	94
fixed	3	7	1	578370	4	1	1	1	0	959	1	4	0	72	69	0	4	95
fixed	3	7	2	580369	1	2	2	1	0	762	1	4	0	80	70	0	4	95
fixed	3	7	3	581490	6	4	4	1	0	691	1	4	0	96	71	0	4	95
fixed	3	7	4	582891	2	1	1	1	0	807	1	4	0	72	72	0	4	95
fixed	3	7	5	584096	5	3	3	1	0	1148	1	4	0	88	73	0	4	95
fixed	3	7	6	586260	6	4	4	1	0	696	1	4	0	96	74	0	4	95
fixed	3	7	7	587346	3	1	1	1	0	867	1	4	0	72	75	0	4	95
fixed	3	7	8	588524	2	3	3	1	0	1913	1	4	0	88	76	0	4	95
fixed	3	7	9	591337	3	2	2	1	0	953	1	4	0	80	77	0	4	95
fixed	3	7	10	593264	1	4	4	1	0	1192	1	4	0	96	78	0	4	95
fixed	3	7	11	594842	5	2	2	1	0	1421	1	4	0	80	79	0	4	95
fixed	3	7	12	596712	4	3	3	1	0	1286	1	4	0	88	80	0	4	95
fixed	3	8	1	598587	4	1	1	1	0	942	1	4	0	72	81	0	4	95
fixed	3	8	2	600133	1	2	2	1	0	1181	1	4	0	80	82	0	4	95
fixed	3	8	3	601763	6	4	4	1	0	648	1	4	0	96	83	0	4	95
fixed	3	8	4	603374	2	1	1	1	0	916	1	4	0	72	84	0	4	95
fixed	3	8	5	605163	5	3	3	1	0	1536	1	4	0	88	85	0	4	96
fixed	3	8	6	607536	6	4	4	1	0	740	1	4	0	96	86	0	4	96
fixed	3	8	7	608732	3	1	1	1	0	945	1	4	0	72	87	0	4	96
fixed	3	8	8	610638	2	3	3	1	0	1384	1	4	0	88	88	0	4	96
fixed	3	8	9	612657	3	2	2	1	0	746	1	4	0	80	89	0	4	96
fixed	3	8	10	614044	1	4	4	1	0	968	1	4	0	96	90	0	4	96
fixed	3	8	11	615943	5	2	2	1	0	831	1	4	0	80	91	0	4	96
fixed	3	8	12	617614	4	3	3	1	0	1048	1	4	0	88	92	0	4	96
fixed	3	9	1	619722	4	1	1	1	0	807	1	4	0	72	93	0	4	96
fixed	3	9	2	621058	1	2	2	1	0	1062	1	4	0	80	94	0	4	96
fixed	3	9	3	622643	6	4	4	1	0	627	1	4	0	96	95	0	4	96
fixed	3	9	4	623570	2	1	1	1	0	1572	1	4	0	72	96	0	4	96
fixed	3	9	5	626082	5	3	3	1	0	1290	1	4	0	88	97	0	4	96
fixed	3	9	6	628300	6	4	4	1	0	996	1	4	0	96	98	0	4	96
fixed	3	9	7	630225	3	1	1	1	0	859	1	4	0	72	99	0	4	96
fixed	3	9	8	631426	2	3	3	1	0	1272	1	4	0	88	100	0	4	96
fixed	3	9	9	633590	3	2	2	1	0	844	1	4	0	80	101	0	4	96
fixed	3	9	10	635421	1	4	4	1	0	1567	1	4	0	96	102	0	4	96
fixed	3	9	11	637722	5	2	2	1	0	1237	1	4	0	80	103	0	4	96
fixed	3	9	12	639774	4	3	3	1	0	1086	1	4	0	88	104	0	4	96
fixed	3	10	1	642077	4	1	1	1	0	756	1	4	0	72	105	0	4	96
fixed	3	10	2	643397	1	2	2	1	0	964	1	4	0	80	106	0	4	96
fixed	3	10	3	644833	6	4	4	1	0	1111	1	4	0	96	107	0	4	96
fixed	3	10	4	646566	2	1	1	1	0	831	1	4	0	72	108	0	4	96
fixed	3	10	5	647716	5	3	3	1	0	1238	1	4	0	88	109	0	4	96
fixed	3	10	6	649633	6	4	4	1	0	908	1	4	0	96	110	0	4	96
fixed	3	10	7	651137	3	1	1	1	0	1021	1	4	0	72	111	0	4	97
fixed	3	10	8	652700	2	3	0	0	2	0	3	4	0	88	111	0	5	96
fixed	3	10	9	655952	3	2	2	1	0	1017	1	4	0	80	112	0	5	96
fixed	3	10	10	657905	1	4	4	1	0	886	1	4	0	96	113	0	5	96
fixed	3	10	11	659598	5	2	2	1	0	1303	1	4	0	80	114	0	5	96
fixed	3	10	12	661220	4	3	3	1	0	1178	1	4	0	88	115	0	5	96
fixed	4	1	1	774249	4	1	1	1	0	1534	1	4	0	104	1	0	0	100
fixed	4	1	2	776156	1	2	2	1	0	1021	1	4	0	112	2	0	0	100
fixed	4	1	3	777527	6	4	4	1	0	611	1	4	0	128	3	0	0	100
fixed	4	1	4	778543	2	1	1	1	0	928	1	4	0	104	4	0	0	100
fixed	4	1	5	780148	5	3	3	1	0	1212	1	4	0	120	5	0	0	100
fixed	4	1	6	781922	6	4	4	1	0	753	1	4	0	128	6	0	0	100
fixed	4	1	7	783406	3	1	1	1	0	842	1	4	0	104	7	0	0	100
fixed	4	1	8	784916	2	3	3	1	0	1290	1	4	0	120	8	0	0	100
fixed	4	1	9	787087	3	2	2	1	0	718	1	4	0	112	9	0	0	100
fixed	4	1	10	788141	1	4	4	1	0	682	1	4	0	128	10	0	0	100
fixed	4	1	11	789374	5	2	2	1	0	1214	1	4	0	112	11	0	0	100
fixed	4	1	12	791234	4	3	3	1	0	1063	1	4	0	120	12	0	0	100
fixed	4	2	1	793398	4	1	1	1	0	819	1	4	0	104	13	0	0	100
fixed	4	2	2	795142	1	2	2	1	0	873	1	4	0	112	14	0	0	100
fixed	4	2	3	797027	6	4	4	1	0	673	1	4	0	128	15	0	0	100
fixed	4	2	4	798597	2	1	1	1	0	959	1	4	0	104	16	0	0	100
fixed	4	2	5	800541	5	3	3	1	0	1093	1	4	0	120	17	0	0	100
fixed	4	2	6	802072	6	4	4	1	0	756	1	4	0	128	18	0	0	100
fixed	4	2	7	803600	3	1	1	1	0	851	1	4	0	104	19	0	0	100
fixed	4	2	8	805321	2	3	3	1	0	1282	1	4	0	120	20	0	0	100
fixed	4	2	9	807441	3	2	2	1	0	720	1	4	0	112	21	0	0	100
fixed	4	2	10	808845	1	4	4	1	0	773	1	4	0	128	22	0	0	100
fixed	4	2	11	810531	5	2	2	1	0	1326	1	4	0	112	23	0	0	100
fixed	4	2	12	812511	4	3	3	1	0	729	1	4	0	120	24	0	0	100
fixed	4	3	1	814032	4	1	1	1	0	817	1	4	0	104	25	0	0	100
fixed	4	3	2	815637	1	2	2	1	0	845	1	4	0	112	26	0	0	100
fixed	4	3	3	817085	6	4	4	1	0	648	1	4	0	128	27	0	0	100
fixed	4	3	4	818405	2	1	1	1	0	880	1	4	0	104	28	0	0	100
fixed	4	3	5	820082	5	3	3	1	0	1305	1	4	0	120	29	0	0	100
fixed	4	3	6	821842	6	4	4	1	0	1126	1	4	0	128	30	0	0	100
fixed	4	3	7	823471	3	1	1	1	0	905	1	4	0	104	31	0	0	100
fixed	4	3	8	824724	2	3	3	1	0	1420	1	4	0	120	32	0	0	100
fixed	4	3	9	826953	3	2	2	1	0	742	1	4	0	112	33	0	0	100
fixed	4	3	10	828494	1	4	4	1	0	1029	1	4	0	128	34	0	0	100
fixed	4	3	11	829895	5	2	2	1	0	929	1	4	0	112	35	0	0	100
fixed	4	3	12	831416	4	3	3	1	0	1137	1	4	0	120	36	0	0	100
fixed	4	4	1	833430	4	1	1	1	0	635	1	4	0	104	37	0	0	100
fixed	4	4	2	834644	1	2	2	1	0	856	1	4	0	112	38	0	0	100
fixed	4	4	3	835960	6	4	4	1	0	697	1	4	0	128	39	0	0	100
fixed	4	4	4	837312	2	1	1	1	0	831	1	4	0	104	40	0	0	100
fixed	4	4	5	838861	5	3	3	1	0	885	1	4	0	120	41	0	0	100
fixed	4	4	6	840331	6	4	4	1	0	767	1	4	0	128	42	0	0	100
fixed	4	4	7	841941	3	1	1	1	0	867	1	4	0	104	43	0	0	100
fixed	4	4	8	843793	2	3	3	1	0	1245	1	4	0	120	44	0	0	100
fixed	4	4	9	845444	3	2	2	1	0	687	1	4	0	112	45	0	0	100
fixed	4	4	10	846663	1	4	4	1	0	971	1	4	0	128	46	0	0	100
fixed	4	4	11	848091	5	2	2	1	0	975	1	4	0	112	47	0	0	100
fixed	4	4	12	849447	4	3	3	1	0	917	1	4	0	120	48	0	0	100
fixed	4	5	1	851090	4	1	1	1	0	751	1	4	0	104	49	0	0	100
fixed	4	5	2	852706	1	2	2	1	0	851	1	4	0	112	50	0	0	100
fixed	4	5	3	854457	6	4	4	1	0	777	1	4	0	128	51	0	0	100
fixed	4	5	4	855876	2	1	1	1	0	933	1	4	0	104	52	0	0	100
fixed	4	5	5	857322	5	3	3	1	0	1175	1	4	0	120	53	0	0	100
fixed	4	5	6	858815	6	4	4	1	0	816	1	4	0	128	54	0	0	100
fixed	4	5	7	860077	3	1	1	1	0	923	1	4	0	104	55	0	0	100
fixed	4	5	8	861871	2	3	3	1	0	1503	1	4	0	120	56	0	0	100
fixed	4	5	9	864035	3	2	2	1	0	644	1	4	0	112	57	0	0	100
fixed	4	5	10	865299	1	4	4	1	0	886	1	4	0	128	58	0	0	100
fixed	4	5	11	866762	5	2	2	1	0	920	1	4	0	112	59	0	0	100
fixed	4	5	12	868660	4	3	3	1	0	952	1	4	0	120	60	0	0	100
fixed	4	6	1	870220	4	1	1	1	0	989	1	4	0	104	61	0	0	100
fixed	4	6	2	872200	1	2	2	1	0	866	1	4	0	112	62	0	0	100
fixed	4	6	3	873392	6	4	4	1	0	655	1	4	0	128	63	0	0	100
fixed	4	6	4	874976	2	1	1	1	0	764	1	4	0	104	64	0	0	100
fixed	4	6	5	876629	5	3	3	1	0	1022	1	4	0	120	65	0	0	100
fixed	4	6	6	878444	6	4	4	1	0	825	1	4	0	128	66	0	0	100
fixed	4	6	7	880042	3	1	1	1	0	925	1	4	0	104	67	0	0	100
fixed	4	6	8	881684	2	3	3	1	0	1464	1	4	0	120	68	0	0	100
fixed	4	6	9	883537	3	2	2	1	0	697	1	4	0	112	69	0	0	100
fixed	4	6	10	885000	1	4	4	1	0	859	1	4	0	128	70	0	0	100
fixed	4	6	11	886730	5	2	2	1	0	834	1	4	0	112	71	0	0	100
fixed	4	6	12	888025	4	3	3	1	0	971	1	4	0	120	72	0	0	100
fixed	4	7	1	889968	4	1	1	1	0	849	1	4	0	104	73	0	0	100
fixed	4	7	2	891487	1	2	2	1	0	800	1	4	0	112	74	0	0	100
fixed	4	7	3	892599	6	4	4	1	0	850	1	4	0	128	75	0	0	100
fixed	4	7	4	894052	2	1	1	1	0	1036	1	4	0	104	76	0	0	100
fixed	4	7	5	895399	5	3	3	1	0	1019	1	4	0	120	77	0	0	100
fixed	4	7	6	897420	6	4	4	1	0	949	1	4	0	128	78	0	0	100
fixed	4	7	7	898906	3	1	1	1	0	1390	1	4	0	104	79	0	0	100
fixed	4	7	8	900827	2	3	3	1	0	981	1	4	0	120	80	0	0	100
fixed	4	7	9	902284	3	2	2	1	0	695	1	4	0	112	81	0	0	100
fixed	4	7	10	903977	1	4	4	1	0	896	1	4	0	128	82	0	0	100
fixed	4	7	11	905870	5	2	2	1	0	1752	1	4	0	112	83	0	0	100
fixed	4	7	12	907954	4	3	3	1	0	759	1	4	0	120	84	0	0	100
fixed	4	8	1	909600	4	1	1	1	0	753	1	4	0	104	85	0	0	100
fixed	4	8	2	911234	1	2	2	1	0	925	1	4	0	112	86	0	0	100
fixed	4	8	3	912773	6	4	4	1	0	675	1	4	0	128	87	0	0	100
fixed	4	8	4	914240	2	1	1	1	0	1029	1	4	0	104	88	0	0	100
fixed	4	8	5	915978	5	3	3	1	0	931	1	4	0	120	89	0	0	100
fixed	4	8	6	917910	6	4	4	1	0	689	1	4	0	128	90	0	0	100
fixed	4	8	7	919494	3	1	1	1	0	774	1	4	0	104	91	0	0	100
fixed	4	8	8	920779	2	3	3	1	0	1296	1	4	0	120	92	0	0	100
fixed	4	8	9	922657	3	2	2	1	0	728	1	4	0	112	93	0	0	100
fixed	4	8	10	924252	1	4	4	1	0	893	1	4	0	128	94	0	0	100
fixed	4	8	11	926076	5	2	2	1	0	1023	1	4	0	112	95	0	0	100
fixed	4	8	12	928045	4	3	3	1	0	788	1	4	0	120	96	0	0	100
fixed	4	9	1	929482	4	1	1	1	0	735	1	4	0	104	97	0	0	100
fixed	4	9	2	931042	1	2	2	1	0	789	1	4	0	112	98	0	0	100
fixed	4	9	3	932432	6	4	4	1	0	722	1	4	0	128	99	0	0	100
fixed	4	9	4	933734	2	1	1	1	0	1043	1	4	0	104	100	0	0	100
fixed	4	9	5	935568	5	3	3	1	0	941	1	4	0	120	101	0	0	100
fixed	4	9	6	937292	6	4	4	1	0	1293	1	4	0	128	102	0	0	100
fixed	4	9	7	939127	3	1	1	1	0	1007	1	4	0	104	103	0	0	100
fixed	4	9	8	940964	2	3	3	1	0	969	1	4	0	120	104	0	0	100
fixed	4	9	9	942556	3	2	2	1	0	950	1	4	0	112	105	0	0	100
fixed	4	9	10	944518	1	4	4	1	0	730	1	4	0	128	106	0	0	100
fixed	4	9	11	945556	5	2	2	1	0	886	1	4	0	112	107	0	0	100
fixed	4	9	12	947485	4	3	3	1	0	1029	1	4	0	120	108	0	0	100
fixed	4	10	1	949581	4	1	1	1	0	796	1	4	0	104	109	0	0	100
fixed	4	10	2	951217	1	2	2	1	0	862	1	4	0	112	110	0	0	100
fixed	4	10	3	952653	6	4	4	1	0	665	1	4	0	128	111	0	0	100
fixed	4	10	4	953941	2	1	1	1	0	1051	1	4	0	104	112	0	0	100
fixed	4	10	5	955329	5	3	3	1	0	920	1	4	0	120	113	0	0	100
fixed	4	10	6	956573	6	4	4	1	0	892	1	4	0	128	114	0	0	100
fixed	4	10	7	957755	3	1	1	1	0	1042	1	4	0	104	115	0	0	100
fixed	4	10	8	959125	2	3	3	1	0	1176	1	4	0	120	116	0	0	100
fixed	4	10	9	960695	3	2	2	1	0	669	1	4	0	112	117	0	0	100
fixed	4	10	10	961788	1	4	4	1	0	823	1	4	0	128	118	0	0	100
fixed	4	10	11	963307	5	2	2	1	0	1567	1	4	0	112	119	0	0	100
fixed	4	10	12	965192	4	3	3	1	0	1023	1	4	0	120	120	0	0	100
fixed	5	1	1	967690	4	1	1	1	0	581	1	4	0	136	1	0	0	100
fixed	5	1	2	968933	1	2	2	1	0	840	1	4	0	144	2	0	0	100
fixed	5	1	3	970564	6	4	4	1	0	1147	1	4	0	160	3	0	0	100
fixed	5	1	4	972314	2	1	1	1	0	969	1	4	0	136	4	0	0	100
fixed	5	1	5	973630	5	3	3	1	0	1145	1	4	0	152	5	0	0	100
fixed	5	1	6	975065	6	4	4	1	0	837	1	4	0	160	6	0	0	100
fixed	5	1	7	976786	3	1	1	1	0	932	1	4	0	136	7	0	0	100
fixed	5	1	8	978096	2	3	0	1	2	0	3	4	0	152	7	0	1	88
fixed	5	1	9	981213	3	2	2	1	0	696	1	4	0	144	8	0	1	89
fixed	5	1	10	982281	1	4	4	1	0	955	1	4	0	160	9	0	1	90
fixed	5	1	11	984243	5	2	2	1	0	896	1	4	0	144	10	0	1	91
fixed	5	1	12	985448	4	3	3	1	0	1021	1	4	0	152	11	0	1	92
fixed	5	2	1	987575	4	1	1	1	0	746	1	4	0	136	12	0	1	92
fixed	5	2	2	989136	1	2	2	1	0	1041	1	4	0	144	13	0	1	93
fixed	5	2	3	990591	6	4	4	1	0	1547	1	4	0	160	14	0	1	93
fixed	5	2	4	992559	2	1	1	1	0	856	1	4	0	136	15	0	1	94
fixed	5	2	5	994051	5	3	3	1	0	1017	1	4	0	152	16	0	1	94
fixed	5	2	6	995924	6	4	4	1	0	705	1	4	0	160	17	0	1	94
fixed	5	2	7	996928	3	1	1	1	0	942	1	4	0	136	18	0	1	95
fixed	5	2	8	998236	2	3	3	1	0	1207	1	4	0	152	19	0	1	95
fixed	5	2	9	999802	3	2	2	1	0	820	1	4	0	144	20	0	1	95
fixed	5	2	10	1001128	1	4	4	1	0	685	1	4	0	160	21	0	1	95
fixed	5	2	11	1002324	5	2	2	1	0	786	1	4	0	144	22	0	1	96
fixed	5	2	12	1004033	4	3	3	1	0	761	1	4	0	152	23	0	1	96
fixed	5	3	1	1005719	4	1	1	1	0	1066	1	4	0	136	24	0	1	96
fixed	5	3	2	1007654	1	2	2	1	0	1032	1	4	0	144	25	0	1	96
fixed	5	3	3	1009628	6	4	4	1	0	652	1	4	0	160	26	0	1	96
fixed	5	3	4	1010674	2	1	1	1	0	968	1	4	0	136	27	0	1	96
fixed	5	3	5	1011992	5	3	3	1	0	921	1	4	0	152	28	0	1	97
fixed	5	3	6	1013926	6	4	4	1	0	702	1	4	0	160	29	0	1	97
fixed	5	3	7	1015489	3	1	1	1	0	781	1	4	0	136	30	0	1	97
fixed	5	3	8	1016554	2	3	3	1	0	1135	1	4	0	152	31	0	1	97
fixed	5	3	9	1018154	3	2	2	1	0	683	1	4	0	144	32	0	1	97
fixed	5	3	10	1019369	1	4	4	1	0	728	1	4	0	160	33	0	1	97
fixed	5	3	11	1020629	5	2	2	1	0	923	1	4	0	144	34	0	1	97
fixed	5	3	12	1022414	4	3	3	1	0	903	1	4	0	152	35	0	1	97
fixed	5	4	1	1024198	4	1	1	1	0	907	1	4	0	136	36	0	1	97
fixed	5	4	2	1025580	1	2	2	1	0	921	1	4	0	144	37	0	1	97
fixed	5	4	3	1027031	6	4	4	1	0	700	1	4	0	160	38	0	1	97
fixed	5	4	4	1028675	2	1	1	1	0	902	1	4	0	136	39	0	1	98
fixed	5	4	5	1029971	5	3	3	1	0	975	1	4	0	152	40	0	1	98
fixed	5	4	6	1031504	6	4	4	1	0	782	1	4	0	160	41	0	1	98
fixed	5	4	7	1032694	3	1	1	1	0	980	1	4	0	136	42	0	1	98
fixed	5	4	8	1034435	2	3	3	2	0	1154	2	4	0	152	43	0	1	98
fixed	5	4	9	1036505	3	2	2	1	0	1074	1	4	0	144	44	0	1	98
fixed	5	4	10	1038573	1	4	4	1	0	891	1	4	0	160	45	0	1	98
fixed	5	4	11	1040008	5	2	2	1	0	918	1	4	0	144	46	0	1	98
fixed	5	4	12	1041873	4	3	3	1	0	855	1	4	0	152	47	0	1	98
fixed	5	5	1	1043946	4	1	1	1	0	1655	1	4	0	136	48	0	1	98
fixed	5	5	2	1046435	1	2	2	1	0	941	1	4	0	144	49	0	1	98
fixed	5	5	3	1048261	6	4	4	1	0	776	1	4	0	160	50	0	1	98
fixed	5	5	4	1049846	2	1	1	1	0	901	1	4	0	136	51	0	1	98
fixed	5	5	5	1051196	5	3	3	1	0	1116	1	4	0	152	52	0	1	98
fixed	5	5	6	1053133	6	4	4	1	0	874	1	4	0	160	53	0	1	98
fixed	5	5	7	1054868	3	1	1	1	0	1161	1	4	0	136	54	0	1	98
fixed	5	5	8	1056730	2	3	3	1	0	1233	1	4	0	152	55	0	1	98
fixed	5	5	9	1058928	3	2	2	1	0	837	1	4	0	144	56	0	1	98
fixed	5	5	10	1060578	1	4	4	1	0	911	1	4	0	160	57	0	1	98
fixed	5	5	11	1062229	5	2	2	1	0	2209	1	4	0	144	58	0	1	98
fixed	5	5	12	1065472	4	3	3	1	0	999	1	4	0	152	59	0	1	98
fixed	5	6	1	1067621	4	1	1	1	0	900	1	4	0	136	60	0	1	98
fixed	5	6	2	1069539	1	2	2	1	0	1043	1	4	0	144	61	0	1	98
fixed	5	6	3	1071531	6	4	4	1	0	654	1	4	0	160	62	0	1	98
fixed	5	6	4	1073133	2	1	1	1	0	803	1	4	0	136	63	0	1	98
fixed	5	6	5	1074482	5	3	3	1	0	906	1	4	0	152	64	0	1	98
fixed	5	6	6	1075761	6	4	4	1	0	867	1	4	0	160	65	0	1	98
fixed	5	6	7	1076956	3	1	1	1	0	1033	1	4	0	136	66	0	1	99
fixed	5	6	8	1078811	2	3	3	1	0	1019	1	4	0	152	67	0	1	99
fixed	5	6	9	1080526	3	2	2	1	0	858	1	4	0	144	68	0	1	99
fixed	5	6	10	1081842	1	4	4	1	0	866	1	4	0	160	69	0	1	99
fixed	5	6	11	1083265	5	2	2	1	0	974	1	4	0	144	70	0	1	99
fixed	5	6	12	1084593	4	3	3	1	0	853	1	4	0	152	71	0	1	99
fixed	5	7	1	1086049	4	1	1	1	0	1007	1	4	0	136	72	0	1	99
fixed	5	7	2	1087931	1	2	2	1	0	808	1	4	0	144	73	0	1	99
fixed	5	7	3	1089106	6	4	4	1	0	886	1	4	0	160	74	0	1	99
fixed	5	7	4	1091037	2	1	1	1	0	757	1	4	0	136	75	0	1	99
fixed	5	7	5	1092752	5	3	3	1	0	780	1	4	0	152	76	0	1	99
fixed	5	7	6	1093932	6	4	4	1	0	866	1	4	0	160	77	0	1	99
fixed	5	7	7	1095822	3	1	1	1	0	866	1	4	0	136	78	0	1	99
fixed	5	7	8	1097067	2	3	3	1	0	1461	1	4	0	152	79	0	1	99
fixed	5	7	9	1098841	3	2	2	1	0	698	1	4	0	144	80	0	1	99
fixed	5	7	10	1100356	1	4	4	1	0	730	1	4	0	160	81	0	1	99
fixed	5	7	11	1102095	5	2	2	1	0	1152	1	4	0	144	82	0	1	99
fixed	5	7	12	1103611	4	3	3	1	0	792	1	4	0	152	83	0	1	99
fixed	5	8	1	1105648	4	1	1	1	0	833	1	4	0	136	84	0	1	99
fixed	5	8	2	1106891	1	2	2	1	0	813	1	4	0	144	85	0	1	99
fixed	5	8	3	1108634	6	4	4	1	0	1035	1	4	0	160	86	0	1	99
fixed	5	8	4	1110624	2	1	1	1	0	919	1	4	0	136	87	0	1	99
fixed	5	8	5	1111908	5	3	3	1	0	881	1	4	0	152	88	0	1	99
fixed	5	8	6	1113475	6	4	4	1	0	734	1	4	0	160	89	0	1	99
fixed	5	8	7	1115124	3	1	1	1	0	912	1	4	0	136	90	0	1	99
fixed	5	8	8	1116700	2	3	3	1	0	1110	1	4	0	152	91	0	1	99
fixed	5	8	9	1118390	3	2	2	1	0	854	1	4	0	144	92	0	1	99
fixed	5	8	10	1119768	1	4	4	1	0	1235	1	4	0	160	93	0	1	99
fixed	5	8	11	1121786	5	2	2	1	0	894	1	4	0	144	94	0	1	99
fixed	5	8	12	1123315	4	3	3	1	0	981	1	4	0	152	95	0	1	99
fixed	5	9	1	1125212	4	1	1	1	0	709	1	4	0	136	96	0	1	99
fixed	5	9	2	1126418	1	2	2	1	0	810	1	4	0	144	97	0	1	99
fixed	5	9	3	1127982	6	4	4	1	0	1584	1	4	0	160	98	0	1	99
fixed	5	9	4	1129918	2	1	1	1	0	838	1	4	0	136	99	0	1	99
fixed	5	9	5	1131367	5	3	3	1	0	1104	1	4	0	152	100	0	1	99
fixed	5	9	6	1133494	6	4	4	1	0	782	1	4	0	160	101	0	1	99
fixed	5	9	7	1135103	3	1	1	1	0	802	1	4	0	136	102	0	1	99
fixed	5	9	8	1136258	2	3	3	1	0	1017	1	4	0	152	103	0	1	99
fixed	5	9	9	1137638	3	2	2	1	0	687	1	4	0	144	104	0	1	99
fixed	5	9	10	1139132	1	4	4	1	0	671	1	4	0	160	105	0	1	99
fixed	5	9	11	1140541	5	2	2	1	0	948	1	4	0	144	106	0	1	99
fixed	5	9	12	1141816	4	3	3	1	0	878	1	4	0	152	107	0	1	99
fixed	5	10	1	1143524	4	1	1	1	0	893	1	4	0	136	108	0	1	99
fixed	5	10	2	1144954	1	2	2	1	0	825	1	4	0	144	109	0	1	99
fixed	5	10	3	1146126	6	4	4	1	0	631	1	4	0	160	110	0	1	99
fixed	5	10	4	1147668	2	1	1	1	0	830	1	4	0	136	111	0	1	99
fixed	5	10	5	1149488	5	3	3	1	0	800	1	4	0	152	112	0	1	99
fixed	5	10	6	1150846	6	4	4	1	0	647	1	4	0	160	113	0	1	99
fixed	5	10	7	1151991	3	1	1	1	0	903	1	4	0	136	114	0	1	99
fixed	5	10	8	1153792	2	3	3	1	0	1339	1	4	0	152	115	0	1	99
fixed	5	10	9	1156110	3	2	2	1	0	848	1	4	0	144	116	0	1	99
fixed	5	10	10	1157989	1	4	4	1	0	905	1	4	0	160	117	0	1	99
fixed	5	10	11	1159564	5	2	0	1	2	0	3	4	0	144	117	0	2	98
fixed	5	10	12	1162926	4	3	0	1	2	0	3	4	0	152	117	0	3	98
random	6	1	1	1268562	6	1	1	1	0	1069	1	4	0	168	1	0	0	100
random	6	1	2	1270044	4	4	4	1	0	759	1	4	0	192	2	0	0	100
random	6	1	3	1271725	2	2	2	1	0	847	1	4	0	176	3	0	0	100
random	6	1	4	1273363	3	3	3	1	0	746	1	4	0	184	4	0	0	100
random	6	1	5	1275118	5	2	2	1	0	808	1	4	0	176	5	0	0	100
random	6	1	6	1276765	1	4	4	1	0	673	1	4	0	192	6	0	0	100
random	6	1	7	1277848	6	1	1	1	0	940	1	4	0	168	7	0	0	100
random	6	1	8	1279640	2	3	3	1	0	1128	1	4	0	184	8	0	0	100
random	6	1	9	1281126	4	2	2	1	0	521	1	4	0	176	9	0	0	100
random	6	1	10	1282401	1	1	1	1	0	771	1	4	0	168	10	0	0	100
random	6	1	11	1283763	5	4	4	1	0	706	1	4	0	192	11	0	0	100
random	6	1	12	1285071	3	3	3	1	0	978	1	4	0	184	12	0	0	100
random	6	1	13	1286759	5	2	2	1	0	922	1	4	0	176	13	0	0	100
random	6	1	14	1287992	1	4	4	1	0	742	1	4	0	192	14	0	0	100
random	6	1	15	1289347	3	1	1	1	0	909	1	4	0	168	15	0	0	100
random	6	1	16	1291046	4	3	3	1	0	869	1	4	0	184	16	0	0	100
random	6	1	17	1292260	6	4	4	1	0	737	1	4	0	192	17	0	0	100
random	6	1	18	1293498	2	1	1	1	0	853	1	4	0	168	18	0	0	100
random	6	1	19	1294847	5	3	3	1	0	980	1	4	0	184	19	0	0	100
random	6	1	20	1296821	2	2	2	1	0	688	1	4	0	176	20	0	0	100
random	6	1	21	1298349	3	3	3	1	0	904	1	4	0	184	21	0	0	100
random	6	1	22	1299862	6	1	1	1	0	791	1	4	0	168	22	0	0	100
random	6	1	23	1301081	4	2	2	1	0	1084	1	4	0	176	23	0	0	100
random	6	1	24	1302625	1	4	4	1	0	739	1	4	0	192	24	0	0	100
random	6	1	25	1304419	4	3	3	1	0	1110	1	4	0	184	25	0	0	100
random	6	1	26	1305971	2	1	1	1	0	908	1	4	0	168	26	0	0	100
random	6	1	27	1307800	5	2	2	1	0	903	1	4	0	176	27	0	0	100
random	6	1	28	1309639	6	4	4	1	0	914	1	4	0	192	28	0	0	100
random	6	1	29	1311290	1	3	3	1	0	867	1	4	0	184	29	0	0	100
random	6	1	30	1312688	5	2	2	1	0	784	1	4	0	176	30	0	0	100
random	6	1	31	1314132	2	1	1	1	0	963	1	4	0	168	31	0	0	100
random	6	1	32	1315895	3	3	3	1	0	976	1	4	0	184	32	0	0	100
random	6	1	33	1317556	6	4	4	1	0	818	1	4	0	192	33	0	0	100
random	6	1	34	1319041	4	2	2	1	0	723	1	4	0	176	34	0	0	100
random	6	1	35	1320743	3	4	4	1	0	907	1	4	0	192	35	0	0	100
random	6	1	36	1322251	1	1	1	1	0	723	1	4	0	168	36	0	0	100
random	6	1	37	1323683	3	4	4	1	0	822	1	4	0	192	37	0	0	100
random	6	1	38	1325046	5	3	3	1	0	1013	1	4	0	184	38	0	0	100
random	6	1	39	1327047	6	1	1	1	0	968	1	4	0	168	39	0	0	100
random	6	1	40	1328941	1	2	2	1	0	888	1	4	0	176	40	0	0	100
random	6	1	41	1330684	2	3	0	1	2	0	3	4	0	184	40	0	1	98
random	6	1	42	1333877	4	4	4	1	0	1047	1	4	0	192	41	0	1	98
random	6	1	43	1335225	1	2	2	1	0	1013	1	4	0	176	42	0	1	98
random	6	1	44	1336995	6	3	3	1	0	1027	1	4	0	184	43	0	1	98
random	6	1	45	1338897	3	1	1	1	0	1482	1	4	0	168	44	0	1	98
random	6	1	46	1341216	4	4	4	1	0	1120	1	4	0	192	45	0	1	98
random	6	1	47	1343125	2	2	2	1	0	951	1	4	0	176	46	0	1	98
random	6	1	48	1344668	5	1	1	1	0	1222	1	4	0	168	47	0	1	98
random	6	1	49	1347174	2	3	3	1	0	1075	1	4	0	184	48	0	1	98
random	6	1	50	1349056	3	1	1	1	0	1116	1	4	0	168	49	0	1	98
random	6	1	51	1351154	1	4	4	1	0	747	1	4	0	192	50	0	1	98
random	6	1	52	1352635	5	3	3	1	0	1036	1	4	0	184	51	0	1	98
random	6	1	53	1354308	3	2	2	1	0	781	1	4	0	176	52	0	1	98
random	6	1	54	1355852	6	4	4	1	0	772	1	4	0	192	53	0	1	98
random	6	1	55	1357347	4	2	2	1	0	1044	1	4	0	176	54	0	1	98
random	6	1	56	1359136	1	1	1	1	0	881	1	4	0	168	55	0	1	98
random	6	1	57	1360957	5	4	4	1	0	740	1	4	0	192	56	0	1	98
random	6	1	58	1362604	2	1	1	1	0	1078	1	4	0	168	57	0	1	98
random	6	1	59	1364162	6	2	2	1	0	956	1	4	0	176	58	0	1	98
random	6	1	60	1366127	4	3	3	1	0	777	1	4	0	184	59	0	1	98
random	6	1	61	1367724	1	2	2	1	0	845	1	4	0	176	60	0	1	98
random	6	1	62	1369098	6	4	4	1	0	795	1	4	0	192	61	0	1	98
random	6	1	63	1370546	4	1	1	1	0	773	1	4	0	168	62	0	1	98
random	6	1	64	1372355	2	2	2	1	0	1105	1	4	0	176	63	0	1	98
random	6	1	65	1374280	4	3	3	1	0	1128	1	4	0	184	64	0	1	98
random	6	1	66	1375730	3	1	1	1	0	1170	1	4	0	168	65	0	1	98
random	6	1	67	1377448	1	3	3	1	0	1265	1	4	0	184	66	0	1	99
random	6	1	68	1379519	5	4	4	1	0	753	1	4	0	192	67	0	1	99
random	6	1	69	1380608	2	2	2	1	0	763	1	4	0	176	68	0	1	99
random	6	1	70	1382249	3	1	1	1	0	798	1	4	0	168	69	0	1	99
random	6	1	71	1383709	5	4	4	1	0	688	1	4	0	192	70	0	1	99
random	6	1	72	1385201	6	3	3	1	0	865	1	4	0	184	71	0	1	99
random	6	1	73	1387138	2	1	1	1	0	959	1	4	0	168	72	0	1	99
random	6	1	74	1388969	5	3	3	1	0	1226	1	4	0	184	73	0	1	99
random	6	1	75	1390880	1	4	4	1	0	1184	1	4	0	192	74	0	1	99
random	6	1	76	1393084	6	2	2	1	0	851	1	4	0	176	75	0	1	99
random	6	1	77	1394290	2	1	1	1	0	968	1	4	0	168	76	0	1	99
random	6	1	78	1396067	4	4	4	1	0	1301	1	4	0	192	77	0	1	99
random	6	1	79	1397800	3	2	2	1	0	819	1	4	0	176	78	0	1	99
random	6	1	80	1399076	4	3	3	1	0	837	1	4	0	184	79	0	1	99
random	6	1	81	1400661	1	4	4	1	0	946	1	4	0	192	80	0	1	99
random	6	1	82	1402236	5	1	1	1	0	960	1	4	0	168	81	0	1	99
random	6	1	83	1404058	3	2	2	1	0	938	1	4	0	176	82	0	1	99
random	6	1	84	1405663	6	3	3	1	0	855	1	4	0	184	83	0	1	99
random	6	1	85	1407672	3	2	2	1	0	857	1	4	0	176	84	0	1	99
random	6	1	86	1409538	1	3	3	1	0	946	1	4	0	184	85	0	1	99
random	6	1	87	1411257	4	4	4	1	0	777	1	4	0	192	86	0	1	99
random	6	1	88	1412821	2	1	1	1	0	967	1	4	0	168	87	0	1	99
random	6	1	89	1414261	6	4	4	1	0	1306	1	4	0	192	88	0	1	99
random	6	1	90	1416570	3	3	3	1	0	984	1	4	0	184	89	0	1	99
random	6	1	91	1417942	5	4	4	1	0	822	1	4	0	192	90	0	1	99
random	6	1	92	1419495	1	2	2	1	0	757	1	4	0	176	91	0	1	99
random	6	1	93	1421259	5	1	1	1	0	1058	1	4	0	168	92	0	1	99
random	6	1	94	1423315	4	3	0	1	2	0	3	4	0	184	92	0	2	98
random	6	1	95	1426601	6	1	1	1	0	1743	1	4	0	168	93	0	2	98
random	6	1	96	1428946	2	2	2	1	0	796	1	4	0	176	94	0	2	98
random	6	1	97	1430762	4	3	3	1	0	1303	1	4	0	184	95	0	2	98
random	6	1	98	1432817	3	2	2	1	0	960	1	4	0	176	96	0	2	98
random	6	1	99	1434777	6	3	3	1	0	949	1	4	0	184	97	0	2	98
random	6	1	100	1436308	1	4	4	1	0	876	1	4	0	192	98	0	2	98
random	6	1	101	1438078	4	1	1	1	0	985	1	4	0	168	99	0	2	98
random	6	1	102	1440006	5	2	2	1	0	936	1	4	0	176	100	0	2	98
random	6	1	103	1441493	2	4	4	1	0	745	1	4	0	192	101	0	2	98
random	6	1	104	1442920	3	1	1	1	0	796	1	4	0	168	102	0	2	98
random	6	1	105	1444497	1	3	3	1	0	1017	1	4	0	184	103	0	2	98
random	6	1	106	1446479	2	2	2	1	0	950	1	4	0	176	104	0	2	98
random	6	1	107	1448201	5	4	4	1	0	797	1	4	0	192	105	0	2	98
random	6	1	108	1449840	6	1	1	1	0	887	1	4	0	168	106	0	2	98
random	6	1	109	1451413	5	4	4	1	0	860	1	4	0	192	107	0	2	98
random	6	1	110	1452572	6	3	3	1	0	1035	1	4	0	184	108	0	2	98
random	6	1	111	1454541	2	2	2	1	0	640	1	4	0	176	109	0	2	98
random	6	1	112	1456173	3	1	1	1	0	923	1	4	0	168	110	0	2	98
random	6	1	113	1457395	1	2	2	1	0	999	1	4	0	176	111	0	2	98
random	6	1	114	1459332	2	3	3	1	0	1117	1	4	0	184	112	0	2	98
random	6	1	115	1460999	3	1	1	1	0	1039	1	4	0	168	113	0	2	98
random	6	1	116	1462386	4	4	4	1	0	964	1	4	0	192	114	0	2	98
random	6	1	117	1464254	6	1	1	1	0	1173	1	4	0	168	115	0	2	98
random	6	1	118	1465990	5	3	3	1	0	1067	1	4	0	184	116	0	2	98
random	6	1	119	1467362	1	4	4	1	0	1129	1	4	0	192	117	0	2	98
random	6	1	120	1469384	4	2	2	1	0	748	1	4	0	176	118	0	2	98
fixed	7	1	1	1471092	4	1	1	1	0	923	1	4	0	200	1	0	0	100
fixed	7	1	2	1472410	1	2	2	1	0	939	1	4	0	208	2	0	0	100
fixed	7	1	3	1474218	6	4	4	1	0	758	1	4	0	224	3	0	0	100
fixed	7	1	4	1475551	2	1	1	1	0	870	1	4	0	200	4	0	0	100
fixed	7	1	5	1476736	5	3	3	1	0	972	1	4	0	216	5	0	0	100
fixed	7	1	6	1478325	6	4	4	1	0	817	1	4	0	224	6	0	0	100
fixed	7	1	7	1479816	3	1	1	1	0	1065	1	4	0	200	7	0	0	100
fixed	7	1	8	1481638	2	3	3	1	0	1044	1	4	0	216	8	0	0	100
fixed	7	1	9	1483537	3	2	2	1	0	1052	1	4	0	208	9	0	0	100
fixed	7	1	10	1485074	1	4	4	1	0	803	1	4	0	224	10	0	0	100
fixed	7	1	11	1486632	5	2	2	1	0	985	1	4	0	208	11	0	0	100
fixed	7	1	12	1487931	4	3	3	1	0	1090	1	4	0	216	12	0	0	100
fixed	7	2	1	1489974	4	1	1	1	0	803	1	4	0	200	1	0	0	8
fixed	7	2	2	1491223	1	2	2	1	0	935	1	4	0	208	2	0	0	14
fixed	7	2	3	1493161	6	4	4	1	0	637	1	4	0	224	3	0	0	20
fixed	7	2	4	1494728	2	1	1	1	0	882	1	4	0	200	4	0	0	25
fixed	7	2	5	1495927	5	3	3	1	0	1079	1	4	0	216	5	0	0	29
fixed	7	2	6	1497790	6	4	4	1	0	944	1	4	0	224	6	0	0	33
fixed	7	2	7	1499628	3	1	1	1	0	835	1	4	0	200	7	0	0	37
fixed	7	2	8	1500830	2	3	3	1	0	1296	1	4	0	216	8	0	0	40
fixed	7	2	9	1502865	3	2	2	1	0	905	1	4	0	208	9	0	0	43
fixed	7	2	10	1504498	1	4	4	1	0	844	1	4	0	224	10	0	0	45
fixed	7	2	11	1505906	5	2	2	1	0	1065	1	4	0	208	11	0	0	48
fixed	7	2	12	1507259	4	3	3	1	0	879	1	4	0	216	12	0	0	50
fixed	7	3	1	1509004	4	1	1	1	0	773	1	4	0	200	1	0	0	4
fixed	7	3	2	1510682	1	2	2	1	0	822	1	4	0	208	2	0	0	8
fixed	7	3	3	1512364	6	4	4	1	0	615	1	4	0	224	3	0	0	11
fixed	7	3	4	1513908	2	1	1	1	0	702	1	4	0	200	4	0	0	14
fixed	7	3	5	1515215	5	3	3	1	0	942	1	4	0	216	5	0	0	17
fixed	7	3	6	1516937	6	4	4	1	0	742	1	4	0	224	6	0	0	20
fixed	7	3	7	1518191	3	1	1	1	0	1336	1	4	0	200	7	0	0	23
fixed	7	3	8	1520163	2	3	3	1	0	1244	1	4	0	216	8	0	0	25
fixed	7	3	9	1522411	3	2	2	1	0	773	1	4	0	208	9	0	0	27
fixed	7	3	10	1523712	1	4	4	1	0	718	1	4	0	224	10	0	0	29
fixed	7	3	11	1525240	5	2	2	1	0	918	1	4	0	208	11	0	0	31
fixed	7	3	12	1526585	4	3	3	1	0	1124	1	4	0	216	12	0	0	33
fixed	7	4	1	1528836	4	1	1	1	0	1189	1	4	0	200	1	0	0	3
fixed	7	4	2	1530536	1	2	2	1	0	1309	1	4	0	208	2	0	0	5
fixed	7	4	3	1532726	6	4	4	1	0	808	1	4	0	224	3	0	0	8
fixed	7	4	4	1534004	2	1	1	1	0	778	1	4	0	200	4	0	0	10
fixed	7	4	5	1535670	5	3	3	1	0	828	1	4	0	216	5	0	0	12
fixed	7	4	6	1537091	6	4	4	1	0	823	1	4	0	224	6	0	0	14
fixed	7	4	7	1538356	3	1	1	1	0	1002	1	4	0	200	7	0	0	16
fixed	7	4	8	1540317	2	3	3	1	0	1231	1	4	0	216	8	0	0	18
fixed	7	4	9	1542578	3	2	0	1	2	0	3	4	0	208	8	0	1	18
fixed	7	4	10	1545829	1	4	4	1	0	1389	1	4	0	224	9	0	1	20
fixed	7	4	11	1547614	5	2	2	1	0	1362	1	4	0	208	10	0	1	21
fixed	7	4	12	1549835	4	3	3	1	0	756	1	4	0	216	11	0	1	23
fixed	7	5	1	1551174	4	1	1	1	0	995	1	4	0	200	1	0	0	2
fixed	7	5	2	1552836	1	2	2	1	0	861	1	4	0	208	2	0	0	4
fixed	7	5	3	1554441	6	4	4	1	0	649	1	4	0	224	3	0	0	6
fixed	7	5	4	1555498	2	1	1	1	0	940	1	4	0	200	4	0	0	8
fixed	7	5	5	1557081	5	3	3	1	0	801	1	4	0	216	5	0	0	9
fixed	7	5	6	1558525	6	4	4	1	0	739	1	4	0	224	6	0	0	11
fixed	7	5	7	1560254	3	1	1	1	0	907	1	4	0	200	7	0	0	13
fixed	7	5	8	1561502	2	3	3	1	0	1373	1	4	0	216	8	0	0	14
fixed	7	5	9	1563408	3	2	2	1	0	709	1	4	0	208	9	0	0	16
fixed	7	5	10	1564660	1	4	4	1	0	864	1	4	0	224	10	0	0	17
fixed	7	5	11	1566023	5	2	2	1	0	926	1	4	0	208	11	0	0	19
fixed	7	5	12	1567490	4	3	3	1	0	768	1	4	0	216	12	0	0	20
fixed	7	6	1	1568851	4	1	1	1	0	806	1	4	0	200	1	0	0	2
fixed	7	6	2	1569974	1	2	2	1	0	887	1	4	0	208	2	0	0	3
fixed	7	6	3	1571898	6	4	4	1	0	613	1	4	0	224	3	0	0	5
fixed	7	6	4	1572809	2	1	1	1	0	1070	1	4	0	200	4	0	0	6
fixed	7	6	5	1574467	5	3	3	1	0	792	1	4	0	216	5	0	0	8
fixed	7	6	6	1576080	6	4	4	1	0	724	1	4	0	224	6	0	0	9
fixed	7	6	7	1577413	3	1	1	1	0	1012	1	4	0	200	7	0	0	10
fixed	7	6	8	1579188	2	3	3	1	0	1313	1	4	0	216	8	0	0	12
fixed	7	6	9	1580984	3	2	2	1	0	716	1	4	0	208	9	0	0	13
fixed	7	6	10	1582598	1	4	4	1	0	760	1	4	0	224	10	0	0	14
fixed	7	6	11	1584117	5	2	2	1	0	1088	1	4	0	208	11	0	0	15
fixed	7	6	12	1585510	4	3	3	1	0	773	1	4	0	216	12	0	0	17
fixed	7	7	1	1587413	4	1	1	1	0	852	1	4	0	200	1	0	0	1
fixed	7	7	2	1589041	1	2	2	1	0	1007	1	4	0	208	2	0	0	3
fixed	7	7	3	1590377	6	4	4	1	0	895	1	4	0	224	3	0	0	4
fixed	7	7	4	1591651	2	1	1	1	0	1121	1	4	0	200	4	0	0	5
fixed	7	7	5	1593655	5	3	3	1	0	836	1	4	0	216	5	0	0	6
fixed	7	7	6	1595036	6	4	4	1	0	713	1	4	0	224	6	0	0	8
fixed	7	7	7	1596612	3	1	1	1	0	951	1	4	0	200	7	0	0	9
fixed	7	7	8	1598165	2	3	3	1	0	1077	1	4	0	216	8	0	0	10
fixed	7	7	9	1600251	3	2	2	1	0	788	1	4	0	208	9	0	0	11
fixed	7	7	10	1601773	1	4	4	1	0	780	1	4	0	224	10	0	0	12
fixed	7	7	11	1603576	5	2	2	1	0	912	1	4	0	208	11	0	0	13
fixed	7	7	12	1605281	4	3	3	1	0	959	1	4	0	216	12	0	0	14
fixed	7	8	1	1607312	4	1	1	1	0	1041	1	4	0	200	1	0	0	1
fixed	7	8	2	1608924	1	2	2	1	0	853	1	4	0	208	2	0	0	2
fixed	7	8	3	1610259	6	4	4	1	0	620	1	4	0	224	3	0	0	3
fixed	7	8	4	1611733	2	1	1	1	0	854	1	4	0	200	4	0	0	5
fixed	7	8	5	1613225	5	3	3	1	0	1055	1	4	0	216	5	0	0	6
fixed	7	8	6	1614944	6	4	4	1	0	790	1	4	0	224	6	0	0	7
fixed	7	8	7	1616061	3	1	1	1	0	1095	1	4	0	200	7	0	0	8
fixed	7	8	8	1617694	2	3	3	1	0	1002	1	4	0	216	8	0	0	9
fixed	7	8	9	1619276	3	2	2	1	0	718	1	4	0	208	9	0	0	10
fixed	7	8	10	1620391	1	4	4	1	0	696	1	4	0	224	10	0	0	11
fixed	7	8	11	1621631	5	2	2	1	0	1035	1	4	0	208	11	0	0	12
fixed	7	8	12	1623572	4	3	3	1	0	761	1	4	0	216	12	0	0	13
fixed	7	9	1	1625390	4	1	1	1	0	827	1	4	0	200	1	0	0	1
fixed	7	9	2	1626612	1	2	2	1	0	816	1	4	0	208	2	0	0	2
fixed	7	9	3	1628014	6	4	4	1	0	1284	1	4	0	224	3	0	0	3
fixed	7	9	4	1629845	2	1	1	1	0	1055	1	4	0	200	4	0	0	4
fixed	7	9	5	1631443	5	3	3	1	0	747	1	4	0	216	5	0	0	5
fixed	7	9	6	1632675	6	4	4	1	0	679	1	4	0	224	6	0	0	6
fixed	7	9	7	1633824	3	1	1	1	0	1470	1	4	0	200	7	0	0	7
fixed	7	9	8	1636061	2	3	0	1	2	0	3	4	0	216	7	0	1	7
fixed	7	9	9	1639534	3	2	2	1	0	997	1	4	0	208	8	0	1	8
fixed	7	9	10	1641511	1	4	4	1	0	873	1	4	0	224	9	0	1	8
fixed	7	9	11	1642792	5	2	2	1	0	747	1	4	0	208	10	0	1	9
fixed	7	9	12	1643965	4	3	3	1	0	857	1	4	0	216	11	0	1	10
fixed	7	10	1	1645539	4	1	1	1	0	862	1	4	0	200	1	0	0	1
fixed	7	10	2	1646858	1	2	2	1	0	830	1	4	0	208	2	0	0	2
fixed	7	10	3	1648217	6	4	4	1	0	717	1	4	0	224	3	0	0	3
fixed	7	10	4	1649330	2	1	1	1	0	973	1	4	0	200	4	0	0	4
fixed	7	10	5	1651022	5	3	3	1	0	798	1	4	0	216	5	0	0	4
fixed	7	10	6	1652297	6	4	4	1	0	800	1	4	0	224	6	0	0	5
fixed	7	10	7	1653962	3	1	1	1	0	785	1	4	0	200	7	0	0	6
fixed	7	10	8	1655283	2	3	3	1	0	841	1	4	0	216	8	0	0	7
fixed	7	10	9	1656749	3	2	2	1	0	1083	1	4	0	208	9	0	0	8
fixed	7	10	10	1658792	1	4	4	1	0	997	1	4	0	224	10	0	0	8
fixed	7	10	11	1660422	5	2	2	1	0	1000	1	4	0	208	11	0	0	9
fixed	7	10	12	1662085	4	3	3	1	0	1473	1	4	0	216	12	0	0	10
