type	block	sequ.	trial	time	Pos.	Color	Button	NumRsp	Resp_1	RT_1	R_Code	Resp_2	RT_2	Trigg.	n_hit	n_inc	n_miss	score_%

random	1	1	1	2979	6	1	1	1	0	619	1	4	0	8	1	0	0	100
random	1	1	2	4241	4	4	4	1	0	678	1	4	0	32	2	0	0	100
random	1	1	3	5473	2	2	2	1	0	873	1	4	0	16	3	0	0	100
random	1	1	4	6657	3	3	3	1	0	487	1	4	0	24	4	0	0	100
random	1	1	5	7972	5	2	2	1	0	744	1	4	0	16	5	0	0	100
random	1	1	6	9604	1	4	4	1	0	547	1	4	0	32	6	0	0	100
random	1	1	7	11118	6	1	1	1	0	482	1	4	0	8	7	0	0	100
random	1	1	8	12286	2	3	3	1	0	705	1	4	0	24	8	0	0	100
random	1	1	9	13619	4	2	2	1	0	441	1	4	0	16	9	0	0	100
random	1	1	10	14675	1	1	1	1	0	652	1	4	0	8	10	0	0	100
random	1	1	11	15696	5	4	4	1	0	608	1	4	0	32	11	0	0	100
random	1	1	12	17310	3	3	3	1	0	732	1	4	0	24	12	0	0	100
random	1	1	13	18702	5	2	2	1	0	729	1	4	0	16	13	0	0	100
random	1	1	14	19771	1	4	4	1	0	548	1	4	0	32	14	0	0	100
random	1	1	15	21010	3	1	1	1	0	775	1	4	0	8	15	0	0	100
random	1	1	16	22335	4	3	3	1	0	663	1	4	0	24	16	0	0	100
random	1	1	17	23736	6	4	4	1	0	668	1	4	0	32	17	0	0	100
random	1	1	18	24936	2	1	1	1	0	553	1	4	0	8	18	0	0	100
random	1	1	19	26161	5	3	3	1	0	677	1	4	0	24	19	0	0	100
random	1	1	20	27575	2	2	2	1	0	673	1	4	0	16	20	0	0	100
random	1	1	21	29250	3	3	3	2	0	1018	2	4	0	24	21	0	0	100
random	1	1	22	30859	6	1	1	1	0	607	1	4	0	8	22	0	0	100
random	1	1	23	32099	4	2	2	1	0	746	1	4	0	16	23	0	0	100
random	1	1	24	33649	1	4	4	1	0	624	1	4	0	32	24	0	0	100
random	1	1	25	34826	4	3	3	2	0	950	2	4	0	24	25	0	0	100
random	1	1	26	36699	2	1	1	1	0	623	1	4	0	8	26	0	0	100
random	1	1	27	38039	5	2	2	1	0	982	1	4	0	16	27	0	0	100
random	1	1	28	39766	6	4	4	1	0	525	1	4	0	32	28	0	0	100
random	1	1	29	41096	1	3	3	1	0	693	1	4	0	24	29	0	0	100
random	1	1	30	42757	5	2	2	1	0	727	1	4	0	16	30	0	0	100
random	1	1	31	44032	2	1	1	1	0	816	1	4	0	8	31	0	0	100
random	1	1	32	45303	3	3	3	1	0	706	1	4	0	24	32	0	0	100
random	1	1	33	46669	6	4	4	1	0	608	1	4	0	32	33	0	0	100
random	1	1	34	47766	4	2	2	1	0	698	1	4	0	16	34	0	0	100
random	1	1	35	48950	3	4	4	1	0	544	1	4	0	32	35	0	0	100
random	1	1	36	50274	1	1	1	1	0	600	1	4	0	8	36	0	0	100
random	1	1	37	51818	3	4	4	1	0	950	1	4	0	32	37	0	0	100
random	1	1	38	53703	5	3	3	1	0	758	1	4	0	24	38	0	0	100
random	1	1	39	54959	6	1	1	1	0	721	1	4	0	8	39	0	0	100
random	1	1	40	56232	1	2	2	1	0	668	1	4	0	16	40	0	0	100
random	1	1	41	57739	2	3	3	1	0	700	1	4	0	24	41	0	0	100
random	1	1	42	58762	4	4	4	1	0	865	1	4	0	32	42	0	0	100
random	1	1	43	60028	1	2	2	1	0	699	1	4	0	16	43	0	0	100
random	1	1	44	61022	6	3	3	1	0	656	1	4	0	24	44	0	0	100
random	1	1	45	62528	3	1	1	1	0	665	1	4	0	8	45	0	0	100
random	1	1	46	63958	4	4	4	1	0	589	1	4	0	32	46	0	0	100
random	1	1	47	65451	2	2	2	1	0	725	1	4	0	16	47	0	0	100
random	1	1	48	66864	5	1	1	1	0	810	1	4	0	8	48	0	0	100
random	1	1	49	68342	2	3	3	1	0	763	1	4	0	24	49	0	0	100
random	1	1	50	69606	3	1	1	1	0	717	1	4	0	8	50	0	0	100
random	1	1	51	70752	1	4	4	1	0	621	1	4	0	32	51	0	0	100
random	1	1	52	72341	5	3	3	1	0	761	1	4	0	24	52	0	0	100
random	1	1	53	74126	3	2	2	1	0	630	1	4	0	16	53	0	0	100
random	1	1	54	75634	6	4	4	1	0	550	1	4	0	32	54	0	0	100
random	1	1	55	76594	4	2	2	1	0	645	1	4	0	16	55	0	0	100
random	1	1	56	78239	1	1	1	1	0	784	1	4	0	8	56	0	0	100
random	1	1	57	79411	5	4	4	1	0	590	1	4	0	32	57	0	0	100
random	1	1	58	80546	2	1	1	1	0	678	1	4	0	8	58	0	0	100
random	1	1	59	81685	6	2	2	1	0	726	1	4	0	16	59	0	0	100
random	1	1	60	83088	4	3	3	1	0	698	1	4	0	24	60	0	0	100
random	1	1	61	84982	1	2	2	1	0	898	1	4	0	16	61	0	0	100
random	1	1	62	86565	6	4	4	1	0	567	1	4	0	32	62	0	0	100
random	1	1	63	87981	4	1	1	1	0	443	1	4	0	8	63	0	0	100
random	1	1	64	88875	2	2	2	1	0	685	1	4	0	16	64	0	0	100
random	1	1	65	90445	4	3	3	1	0	642	1	4	0	24	65	0	0	100
random	1	1	66	92123	3	1	1	1	0	668	1	4	0	8	66	0	0	100
random	1	1	67	93119	1	3	3	1	0	801	1	4	0	24	67	0	0	100
random	1	1	68	94848	5	4	4	1	0	552	1	4	0	32	68	0	0	100
random	1	1	69	95819	2	2	2	1	0	807	1	4	0	16	69	0	0	100
random	1	1	70	97405	3	1	1	1	0	764	1	4	0	8	70	0	0	100
random	1	1	71	98886	5	4	4	1	0	533	1	4	0	32	71	0	0	100
random	1	1	72	99825	6	3	3	1	0	789	1	4	0	24	72	0	0	100
random	1	1	73	101674	2	1	1	1	0	703	1	4	0	8	73	0	0	100
random	1	1	74	103002	5	3	3	1	0	639	1	4	0	24	74	0	0	100
random	1	1	75	104053	1	4	4	1	0	642	1	4	0	32	75	0	0	100
random	1	1	76	105139	6	2	2	1	0	652	1	4	0	16	76	0	0	100
random	1	1	77	106789	2	1	1	1	0	702	1	4	0	8	77	0	0	100
random	1	1	78	108004	4	4	4	1	0	539	1	4	0	32	78	0	0	100
random	1	1	79	109481	3	2	2	1	0	764	1	4	0	16	79	0	0	100
random	1	1	80	110986	4	3	3	1	0	661	1	4	0	24	80	0	0	100
random	1	1	81	112260	1	4	4	1	0	511	1	4	0	32	81	0	0	100
random	1	1	82	113056	5	1	1	1	0	741	1	4	0	8	82	0	0	100
random	1	1	83	114220	3	2	2	1	0	643	1	4	0	16	83	0	0	100
random	1	1	84	115461	6	3	3	1	0	743	1	4	0	24	84	0	0	100
random	1	1	85	116760	3	2	2	1	0	736	1	4	0	16	85	0	0	100
random	1	1	86	118441	1	3	3	1	0	721	1	4	0	24	86	0	0	100
random	1	1	87	119493	4	4	4	1	0	604	1	4	0	32	87	0	0	100
random	1	1	88	120867	2	1	1	1	0	498	1	4	0	8	88	0	0	100
random	1	1	89	121932	6	4	4	1	0	669	1	4	0	32	89	0	0	100
random	1	1	90	123356	3	3	3	1	0	649	1	4	0	24	90	0	0	100
random	1	1	91	124818	5	4	4	1	0	595	1	4	0	32	91	0	0	100
random	1	1	92	126162	1	2	2	1	0	914	1	4	0	16	92	0	0	100
random	1	1	93	127523	5	1	1	1	0	648	1	4	0	8	93	0	0	100
random	1	1	94	129110	4	3	3	1	0	717	1	4	0	24	94	0	0	100
random	1	1	95	130115	6	1	1	1	0	698	1	4	0	8	95	0	0	100
random	1	1	96	131114	2	2	2	1	0	816	1	4	0	16	96	0	0	100
random	1	1	97	132917	4	3	3	2	0	1235	2	4	0	24	97	0	0	100
random	1	1	98	134732	3	2	2	1	0	751	1	4	0	16	98	0	0	100
random	1	1	99	136434	6	3	3	1	0	791	1	4	0	24	99	0	0	100
random	1	1	100	137956	1	4	4	1	0	502	1	4	0	32	100	0	0	100
random	1	1	101	139086	4	1	1	1	0	742	1	4	0	8	101	0	0	100
random	1	1	102	140369	5	2	2	1	0	872	1	4	0	16	102	0	0	100
random	1	1	103	142001	2	4	4	1	0	475	1	4	0	32	103	0	0	100
random	1	1	104	143454	3	1	1	1	0	686	1	4	0	8	104	0	0	100
random	1	1	105	144718	1	3	3	1	0	760	1	4	0	24	105	0	0	100
random	1	1	106	145811	2	2	2	1	0	746	1	4	0	16	106	0	0	100
random	1	1	107	146874	5	4	4	1	0	605	1	4	0	32	107	0	0	100
random	1	1	108	148349	6	1	1	1	0	950	1	4	0	8	108	0	0	100
random	1	1	109	150009	5	4	4	1	0	623	1	4	0	32	109	0	0	100
random	1	1	110	151635	6	3	3	1	0	867	1	4	0	24	110	0	0	100
random	1	1	111	152874	2	2	2	1	0	782	1	4	0	16	111	0	0	100
random	1	1	112	154168	3	1	1	1	0	719	1	4	0	8	112	0	0	100
random	1	1	113	155925	1	2	2	1	0	813	1	4	0	16	113	0	0	100
random	1	1	114	157492	2	3	3	1	0	442	1	4	0	24	114	0	0	100
random	1	1	115	158498	3	1	1	1	0	624	1	4	0	8	115	0	0	100
random	1	1	116	159957	4	4	4	1	0	562	1	4	0	32	116	0	0	100
random	1	1	117	160845	6	1	1	1	0	773	1	4	0	8	117	0	0	100
random	1	1	118	162158	5	3	3	1	0	749	1	4	0	24	118	0	0	100
random	1	1	119	163649	1	4	4	1	0	622	1	4	0	32	119	0	0	100
random	1	1	120	165263	4	2	2	1	0	745	1	4	0	16	120	0	0	100
fixed	2	1	1	166965	4	1	1	1	0	745	1	4	0	40	1	0	0	100
fixed	2	1	2	168291	1	2	2	1	0	689	1	4	0	48	2	0	0	100
fixed	2	1	3	169388	6	4	4	1	0	563	1	4	0	64	3	0	0	100
fixed	2	1	4	170374	2	1	1	1	0	753	1	4	0	40	4	0	0	100
fixed	2	1	5	171490	5	3	3	1	0	658	1	4	0	56	5	0	0	100
fixed	2	1	6	172978	6	4	4	1	0	619	1	4	0	64	6	0	0	100
fixed	2	1	7	174439	3	1	1	1	0	677	1	4	0	40	7	0	0	100
fixed	2	1	8	176092	2	3	3	1	0	727	1	4	0	56	8	0	0	100
fixed	2	1	9	177599	3	2	2	1	0	487	1	4	0	48	9	0	0	100
fixed	2	1	10	178588	1	4	4	1	0	413	1	4	0	64	10	0	0	100
fixed	2	1	11	179482	5	2	2	1	0	695	1	4	0	48	11	0	0	100
fixed	2	1	12	180621	4	3	3	1	0	703	1	4	0	56	12	0	0	100
fixed	2	2	1	182539	4	1	1	1	0	702	1	4	0	40	13	0	0	100
fixed	2	2	2	183880	1	2	2	1	0	653	1	4	0	48	14	0	0	100
fixed	2	2	3	185306	6	4	4	1	0	561	1	4	0	64	15	0	0	100
fixed	2	2	4	186734	2	1	1	1	0	676	1	4	0	40	16	0	0	100
fixed	2	2	5	188367	5	3	3	1	0	623	1	4	0	56	17	0	0	100
fixed	2	2	6	189634	6	4	4	1	0	602	1	4	0	64	18	0	0	100
fixed	2	2	7	190896	3	1	1	1	0	780	1	4	0	40	19	0	0	100
fixed	2	2	8	192535	2	3	3	1	0	719	1	4	0	56	20	0	0	100
fixed	2	2	9	193848	3	2	2	1	0	655	1	4	0	48	21	0	0	100
fixed	2	2	10	195079	1	4	4	1	0	507	1	4	0	64	22	0	0	100
fixed	2	2	11	196269	5	2	2	1	0	648	1	4	0	48	23	0	0	100
fixed	2	2	12	197335	4	3	3	1	0	811	1	4	0	56	24	0	0	100
fixed	2	3	1	199113	4	1	1	1	0	688	1	4	0	40	25	0	0	100
fixed	2	3	2	200368	1	2	2	1	0	707	1	4	0	48	26	0	0	100
fixed	2	3	3	201385	6	4	4	1	0	599	1	4	0	64	27	0	0	100
fixed	2	3	4	202873	2	1	1	1	0	656	1	4	0	40	28	0	0	100
fixed	2	3	5	204505	5	3	3	1	0	660	1	4	0	56	29	0	0	100
fixed	2	3	6	205949	6	4	4	1	0	590	1	4	0	64	30	0	0	100
fixed	2	3	7	207342	3	1	1	1	0	868	1	4	0	40	31	0	0	100
fixed	2	3	8	208707	2	3	3	2	0	898	2	4	0	56	32	0	0	100
fixed	2	3	9	210028	3	2	2	1	0	642	1	4	0	48	33	0	0	100
fixed	2	3	10	211163	1	4	4	1	0	537	1	4	0	64	34	0	0	100
fixed	2	3	11	212712	5	2	2	1	0	640	1	4	0	48	35	0	0	100
fixed	2	3	12	213764	4	3	3	1	0	635	1	4	0	56	36	0	0	100
fixed	2	4	1	214968	4	1	1	1	0	808	1	4	0	40	37	0	0	100
fixed	2	4	2	216673	1	2	2	1	0	752	1	4	0	48	38	0	0	100
fixed	2	4	3	218050	6	4	4	1	0	510	1	4	0	64	39	0	0	100
fixed	2	4	4	219299	2	1	1	1	0	713	1	4	0	40	40	0	0	100
fixed	2	4	5	220811	5	3	3	2	0	1209	2	4	0	56	41	0	0	100
fixed	2	4	6	222930	6	4	4	1	0	615	1	4	0	64	42	0	0	100
fixed	2	4	7	224240	3	1	1	1	0	743	1	4	0	40	43	0	0	100
fixed	2	4	8	225707	2	3	3	1	0	754	1	4	0	56	44	0	0	100
fixed	2	4	9	227330	3	2	2	1	0	740	1	4	0	48	45	0	0	100
fixed	2	4	10	228797	1	4	4	1	0	519	1	4	0	64	46	0	0	100
fixed	2	4	11	229994	5	2	2	1	0	668	1	4	0	48	47	0	0	100
fixed	2	4	12	231364	4	3	3	1	0	770	1	4	0	56	48	0	0	100
fixed	2	5	1	233079	4	1	1	1	0	793	1	4	0	40	49	0	0	100
fixed	2	5	2	234862	1	2	2	1	0	734	1	4	0	48	50	0	0	100
fixed	2	5	3	236512	6	4	4	1	0	576	1	4	0	64	51	0	0	100
fixed	2	5	4	237488	2	1	1	1	0	934	1	4	0	40	52	0	0	100
fixed	2	5	5	239332	5	3	3	1	0	736	1	4	0	56	53	0	0	100
fixed	2	5	6	240656	6	4	4	1	0	704	1	4	0	64	54	0	0	100
fixed	2	5	7	242114	3	1	1	1	0	611	1	4	0	40	55	0	0	100
fixed	2	5	8	243540	2	3	3	1	0	678	1	4	0	56	56	0	0	100
fixed	2	5	9	245058	3	2	2	1	0	726	1	4	0	48	57	0	0	100
fixed	2	5	10	246561	1	4	4	1	0	430	1	4	0	64	58	0	0	100
fixed	2	5	11	247324	5	2	2	1	0	710	1	4	0	48	59	0	0	100
fixed	2	5	12	248626	4	3	3	1	0	623	1	4	0	56	60	0	0	100
fixed	2	6	1	249987	4	1	1	1	0	645	1	4	0	40	61	0	0	100
fixed	2	6	2	251413	1	2	2	1	0	649	1	4	0	48	62	0	0	100
fixed	2	6	3	252710	6	4	4	1	0	490	1	4	0	64	63	0	0	100
fixed	2	6	4	254195	2	1	1	1	0	715	1	4	0	40	64	0	0	100
fixed	2	6	5	255310	5	3	3	1	0	804	1	4	0	56	65	0	0	100
fixed	2	6	6	257140	6	4	4	1	0	662	1	4	0	64	66	0	0	100
fixed	2	6	7	258437	3	1	1	1	0	696	1	4	0	40	67	0	0	100
fixed	2	6	8	259822	2	3	3	1	0	957	1	4	0	56	68	0	0	100
fixed	2	6	9	261805	3	2	2	1	0	737	1	4	0	48	69	0	0	100
fixed	2	6	10	263488	1	4	4	1	0	641	1	4	0	64	70	0	0	100
fixed	2	6	11	265049	5	2	2	1	0	639	1	4	0	48	71	0	0	100
fixed	2	6	12	266435	4	3	3	1	0	549	1	4	0	56	72	0	0	100
fixed	2	7	1	267998	4	1	1	1	0	642	1	4	0	40	73	0	0	100
fixed	2	7	2	269328	1	2	2	1	0	834	1	4	0	48	74	0	0	100
fixed	2	7	3	270684	6	4	4	1	0	553	1	4	0	64	75	0	0	100
fixed	2	7	4	272040	2	1	1	1	0	655	1	4	0	40	76	0	0	100
fixed	2	7	5	273511	5	3	3	1	0	761	1	4	0	56	77	0	0	100
fixed	2	7	6	274824	6	4	4	1	0	641	1	4	0	64	78	0	0	100
fixed	2	7	7	276039	3	1	1	1	0	702	1	4	0	40	79	0	0	100
fixed	2	7	8	277786	2	3	3	1	0	883	1	4	0	56	80	0	0	100
fixed	2	7	9	278964	3	2	2	1	0	570	1	4	0	48	81	0	0	100
fixed	2	7	10	279845	1	4	4	1	0	452	1	4	0	64	82	0	0	100
fixed	2	7	11	281194	5	2	2	1	0	660	1	4	0	48	83	0	0	100
fixed	2	7	12	282387	4	3	3	1	0	681	1	4	0	56	84	0	0	100
fixed	2	8	1	283637	4	1	1	1	0	580	1	4	0	40	85	0	0	100
fixed	2	8	2	284595	1	2	2	1	0	827	1	4	0	48	86	0	0	100
fixed	2	8	3	286450	6	4	4	1	0	701	1	4	0	64	87	0	0	100
fixed	2	8	4	288033	2	1	1	1	0	874	1	4	0	40	88	0	0	100
fixed	2	8	5	289259	5	3	3	1	0	910	1	4	0	56	89	0	0	100
fixed	2	8	6	290923	6	4	4	1	0	631	1	4	0	64	90	0	0	100
fixed	2	8	7	292017	3	1	1	1	0	777	1	4	0	40	91	0	0	100
fixed	2	8	8	293551	2	3	3	1	0	760	1	4	0	56	92	0	0	100
fixed	2	8	9	295112	3	2	2	1	0	798	1	4	0	48	93	0	0	100
fixed	2	8	10	296245	1	4	4	1	0	686	1	4	0	64	94	0	0	100
fixed	2	8	11	297620	5	2	2	1	0	755	1	4	0	48	95	0	0	100
fixed	2	8	12	298921	4	3	3	1	0	781	1	4	0	56	96	0	0	100
fixed	2	9	1	300879	4	1	1	1	0	761	1	4	0	40	97	0	0	100
fixed	2	9	2	302281	1	2	2	1	0	670	1	4	0	48	98	0	0	100
fixed	2	9	3	303746	6	4	4	1	0	552	1	4	0	64	99	0	0	100
fixed	2	9	4	304644	2	1	1	1	0	770	1	4	0	40	100	0	0	100
fixed	2	9	5	306172	5	3	3	1	0	714	1	4	0	56	101	0	0	100
fixed	2	9	6	307667	6	4	4	1	0	658	1	4	0	64	102	0	0	100
fixed	2	9	7	308842	3	1	1	1	0	745	1	4	0	40	103	0	0	100
fixed	2	9	8	310264	2	3	3	1	0	804	1	4	0	56	104	0	0	100
fixed	2	9	9	311382	3	2	2	1	0	645	1	4	0	48	105	0	0	100
fixed	2	9	10	312427	1	4	4	1	0	624	1	4	0	64	106	0	0	100
fixed	2	9	11	313943	5	2	2	1	0	944	1	4	0	48	107	0	0	100
fixed	2	9	12	315197	4	3	3	1	0	643	1	4	0	56	108	0	0	100
fixed	2	10	1	316751	4	1	1	1	0	777	1	4	0	40	109	0	0	100
fixed	2	10	2	318311	1	2	2	1	0	759	1	4	0	48	110	0	0	100
fixed	2	10	3	319846	6	4	4	1	0	622	1	4	0	64	111	0	0	100
fixed	2	10	4	320826	2	1	1	1	0	708	1	4	0	40	112	0	0	100
fixed	2	10	5	322512	5	3	3	1	0	725	1	4	0	56	113	0	0	100
fixed	2	10	6	323756	6	4	4	1	0	561	1	4	0	64	114	0	0	100
fixed	2	10	7	324845	3	1	1	1	0	722	1	4	0	40	115	0	0	100
fixed	2	10	8	325920	2	3	3	1	0	749	1	4	0	56	116	0	0	100
fixed	2	10	9	327511	3	2	2	1	0	665	1	4	0	48	117	0	0	100
fixed	2	10	10	328975	1	4	4	1	0	628	1	4	0	64	118	0	0	100
fixed	2	10	11	330504	5	2	2	1	0	811	1	4	0	48	119	0	0	100
fixed	2	10	12	332318	4	3	3	1	0	638	1	4	0	56	120	0	0	100
fixed	3	1	1	334409	4	1	1	1	0	613	1	4	0	72	1	0	0	100
fixed	3	1	2	335665	1	2	2	1	0	800	1	4	0	80	2	0	0	100
fixed	3	1	3	337489	6	4	4	1	0	579	1	4	0	96	3	0	0	100
fixed	3	1	4	339010	2	1	1	1	0	819	1	4	0	72	4	0	0	100
fixed	3	1	5	340442	5	3	3	1	0	926	1	4	0	88	5	0	0	100
fixed	3	1	6	342384	6	4	4	1	0	716	1	4	0	96	6	0	0	100
fixed	3	1	7	343534	3	1	1	2	0	1355	2	4	0	72	7	0	0	100
fixed	3	1	8	345371	2	3	3	1	0	845	1	4	0	88	8	0	0	100
fixed	3	1	9	347076	3	2	2	1	0	949	1	4	0	80	9	0	0	100
fixed	3	1	10	348707	1	4	4	1	0	528	1	4	0	96	10	0	0	100
fixed	3	1	11	349854	5	2	2	1	0	775	1	4	0	80	11	0	0	100
fixed	3	1	12	351354	4	3	3	1	0	760	1	4	0	88	12	0	0	100
fixed	3	2	1	352990	4	1	1	1	0	794	1	4	0	72	13	0	0	100
fixed	3	2	2	354181	1	2	2	1	0	856	1	4	0	80	14	0	0	100
fixed	3	2	3	355849	6	4	4	1	0	593	1	4	0	96	15	0	0	100
fixed	3	2	4	356973	2	1	1	1	0	818	1	4	0	72	16	0	0	100
fixed	3	2	5	358760	5	3	3	1	0	806	1	4	0	88	17	0	0	100
fixed	3	2	6	359861	6	4	4	1	0	623	1	4	0	96	18	0	0	100
fixed	3	2	7	360911	3	1	1	1	0	659	1	4	0	72	19	0	0	100
fixed	3	2	8	362280	2	3	3	1	0	841	1	4	0	88	20	0	0	100
fixed	3	2	9	363504	3	2	2	1	0	829	1	4	0	80	21	0	0	100
fixed	3	2	10	365107	1	4	4	1	0	657	1	4	0	96	22	0	0	100
fixed	3	2	11	366671	5	2	2	1	0	775	1	4	0	80	23	0	0	100
fixed	3	2	12	367790	4	3	3	1	0	1056	1	4	0	88	24	0	0	100
fixed	3	3	1	369514	4	1	1	1	0	582	1	4	0	72	25	0	0	100
fixed	3	3	2	370554	1	2	2	1	0	714	1	4	0	80	26	0	0	100
fixed	3	3	3	371815	6	4	4	1	0	605	1	4	0	96	27	0	0	100
fixed	3	3	4	373449	2	1	1	1	0	784	1	4	0	72	28	0	0	100
fixed	3	3	5	374646	5	3	3	1	0	933	1	4	0	88	29	0	0	100
fixed	3	3	6	376555	6	4	4	1	0	604	1	4	0	96	30	0	0	100
fixed	3	3	7	377639	3	1	1	1	0	895	1	4	0	72	31	0	0	100
fixed	3	3	8	378839	2	3	3	1	0	923	1	4	0	88	32	0	0	100
fixed	3	3	9	380799	3	2	2	1	0	697	1	4	0	80	33	0	0	100
fixed	3	3	10	381923	1	4	4	1	0	593	1	4	0	96	34	0	0	100
fixed	3	3	11	382961	5	2	2	1	0	765	1	4	0	80	35	0	0	100
fixed	3	3	12	384765	4	3	3	1	0	704	1	4	0	88	36	0	0	100
fixed	3	4	1	386606	4	1	1	1	0	762	1	4	0	72	37	0	0	100
fixed	3	4	2	388268	1	2	2	1	0	788	1	4	0	80	38	0	0	100
fixed	3	4	3	389927	6	4	4	1	0	638	1	4	0	96	39	0	0	100
fixed	3	4	4	390991	2	1	1	1	0	905	1	4	0	72	40	0	0	100
fixed	3	4	5	392617	5	3	3	1	0	916	1	4	0	88	41	0	0	100
fixed	3	4	6	394480	6	4	4	1	0	597	1	4	0	96	42	0	0	100
fixed	3	4	7	395764	3	1	1	1	0	775	1	4	0	72	43	0	0	100
fixed	3	4	8	397287	2	3	3	1	0	910	1	4	0	88	44	0	0	100
fixed	3	4	9	398934	3	2	2	1	0	712	1	4	0	80	45	0	0	100
fixed	3	4	10	400066	1	4	4	1	0	641	1	4	0	96	46	0	0	100
fixed	3	4	11	401563	5	2	2	1	0	681	1	4	0	80	47	0	0	100
fixed	3	4	12	402969	4	3	3	2	0	1006	2	4	0	88	48	0	0	100
fixed	3	5	1	405135	4	1	1	1	0	842	1	4	0	72	49	0	0	100
fixed	3	5	2	406379	1	2	2	1	0	925	1	4	0	80	50	0	0	100
fixed	3	5	3	408268	6	4	4	2	0	1533	2	4	0	96	51	0	0	100
fixed	3	5	4	410721	2	1	1	1	0	893	1	4	0	72	52	0	0	100
fixed	3	5	5	412085	5	3	3	1	0	803	1	4	0	88	53	0	0	100
fixed	3	5	6	413543	6	4	4	1	0	566	1	4	0	96	54	0	0	100
fixed	3	5	7	414874	3	1	1	1	0	733	1	4	0	72	55	0	0	100
fixed	3	5	8	416065	2	3	3	1	0	723	1	4	0	88	56	0	0	100
fixed	3	5	9	417530	3	2	2	1	0	629	1	4	0	80	57	0	0	100
fixed	3	5	10	418720	1	4	4	1	0	634	1	4	0	96	58	0	0	100
fixed	3	5	11	419708	5	2	2	1	0	945	1	4	0	80	59	0	0	100
fixed	3	5	12	421666	4	3	3	1	0	854	1	4	0	88	60	0	0	100
fixed	3	6	1	423430	4	1	1	1	0	771	1	4	0	72	61	0	0	100
fixed	3	6	2	424690	1	2	2	1	0	846	1	4	0	80	62	0	0	100
fixed	3	6	3	426317	6	4	4	1	0	625	1	4	0	96	63	0	0	100
fixed	3	6	4	427726	2	1	1	1	0	861	1	4	0	72	64	0	0	100
fixed	3	6	5	428959	5	3	3	1	0	785	1	4	0	88	65	0	0	100
fixed	3	6	6	430369	6	4	4	1	0	1469	1	4	0	96	66	0	0	100
fixed	3	6	7	432786	3	1	1	1	0	774	1	4	0	72	67	0	0	100
fixed	3	6	8	434579	2	3	3	1	0	1395	1	4	0	88	68	0	0	100
fixed	3	6	9	436514	3	2	2	1	0	625	1	4	0	80	69	0	0	100
fixed	3	6	10	437472	1	4	4	1	0	808	1	4	0	96	70	0	0	100
fixed	3	6	11	438619	5	2	2	1	0	768	1	4	0	80	71	0	0	100
fixed	3	6	12	440089	4	3	3	1	0	681	1	4	0	88	72	0	0	100
fixed	3	7	1	441524	4	1	1	1	0	788	1	4	0	72	73	0	0	100
fixed	3	7	2	442751	1	2	2	1	0	793	1	4	0	80	74	0	0	100
fixed	3	7	3	444412	6	4	4	1	0	626	1	4	0	96	75	0	0	100
fixed	3	7	4	445438	2	1	1	3	0	1943	2	4	0	72	76	0	0	100
fixed	3	7	5	447708	5	3	3	1	0	742	1	4	0	88	77	0	0	100
fixed	3	7	6	448763	6	4	4	1	0	730	1	4	0	96	78	0	0	100
fixed	3	7	7	449837	3	1	1	1	0	733	1	4	0	72	79	0	0	100
fixed	3	7	8	451336	2	3	3	1	0	789	1	4	0	88	80	0	0	100
fixed	3	7	9	452941	3	2	2	1	0	769	1	4	0	80	81	0	0	100
fixed	3	7	10	454595	1	4	4	1	0	563	1	4	0	96	82	0	0	100
fixed	3	7	11	455844	5	2	2	1	0	694	1	4	0	80	83	0	0	100
fixed	3	7	12	457055	4	3	3	1	0	691	1	4	0	88	84	0	0	100
fixed	3	8	1	458700	4	1	1	1	0	669	1	4	0	72	85	0	0	100
fixed	3	8	2	459889	1	2	2	1	0	699	1	4	0	80	86	0	0	100
fixed	3	8	3	461312	6	4	4	1	0	583	1	4	0	96	87	0	0	100
fixed	3	8	4	462490	2	1	1	1	0	716	1	4	0	72	88	0	0	100
fixed	3	8	5	463780	5	3	3	1	0	830	1	4	0	88	89	0	0	100
fixed	3	8	6	465382	6	4	4	1	0	626	1	4	0	96	90	0	0	100
fixed	3	8	7	466716	3	1	1	1	0	737	1	4	0	72	91	0	0	100
fixed	3	8	8	468306	2	3	3	1	0	974	1	4	0	88	92	0	0	100
fixed	3	8	9	470210	3	2	2	1	0	637	1	4	0	80	93	0	0	100
fixed	3	8	10	471344	1	4	4	1	0	662	1	4	0	96	94	0	0	100
fixed	3	8	11	472939	5	2	2	1	0	890	1	4	0	80	95	0	0	100
fixed	3	8	12	474483	4	3	3	2	0	1537	2	4	0	88	96	0	0	100
fixed	3	9	1	476660	4	1	1	1	0	676	1	4	0	72	97	0	0	100
fixed	3	9	2	477890	1	2	2	1	0	976	1	4	0	80	98	0	0	100
fixed	3	9	3	479617	6	4	4	1	0	599	1	4	0	96	99	0	0	100
fixed	3	9	4	481226	2	1	1	1	0	1587	1	4	0	72	100	0	0	100
fixed	3	9	5	483311	5	3	3	1	0	747	1	4	0	88	101	0	0	100
fixed	3	9	6	484479	6	4	4	1	0	857	1	4	0	96	102	0	0	100
fixed	3	9	7	485811	3	1	1	1	0	897	1	4	0	72	103	0	0	100
fixed	3	9	8	487285	2	3	3	1	0	826	1	4	0	88	104	0	0	100
fixed	3	9	9	488856	3	2	2	1	0	856	1	4	0	80	105	0	0	100
fixed	3	9	10	490379	1	4	4	1	0	719	1	4	0	96	106	0	0	100
fixed	3	9	11	492107	5	2	2	1	0	710	1	4	0	80	107	0	0	100
fixed	3	9	12	493742	4	3	3	1	0	945	1	4	0	88	108	0	0	100
fixed	3	10	1	495289	4	1	1	1	0	703	1	4	0	72	109	0	0	100
fixed	3	10	2	496440	1	2	2	1	0	798	1	4	0	80	110	0	0	100
fixed	3	10	3	497840	6	4	4	1	0	668	1	4	0	96	111	0	0	100
fixed	3	10	4	499267	2	1	1	1	0	743	1	4	0	72	112	0	0	100
fixed	3	10	5	500916	5	3	3	1	0	833	1	4	0	88	113	0	0	100
fixed	3	10	6	502255	6	4	4	1	0	800	1	4	0	96	114	0	0	100
fixed	3	10	7	504045	3	1	1	1	0	908	1	4	0	72	115	0	0	100
fixed	3	10	8	505980	2	3	3	1	0	1026	1	4	0	88	116	0	0	100
fixed	3	10	9	507359	3	2	2	1	0	584	1	4	0	80	117	0	0	100
fixed	3	10	10	508910	1	4	4	1	0	734	1	4	0	96	118	0	0	100
fixed	3	10	11	510346	5	2	2	1	0	874	1	4	0	80	119	0	0	100
fixed	3	10	12	511887	4	3	3	1	0	784	1	4	0	88	120	0	0	100
fixed	4	1	1	616016	4	1	1	1	0	654	1	4	0	104	1	0	0	100
fixed	4	1	2	617359	1	2	2	1	0	1061	1	4	0	112	2	0	0	100
fixed	4	1	3	619441	6	4	4	1	0	501	1	4	0	128	3	0	0	100
fixed	4	1	4	620404	2	1	1	1	0	636	1	4	0	104	4	0	0	100
fixed	4	1	5	621691	5	3	3	1	0	758	1	4	0	120	5	0	0	100
fixed	4	1	6	623259	6	4	4	1	0	667	1	4	0	128	6	0	0	100
fixed	4	1	7	624504	3	1	1	1	0	478	1	4	0	104	7	0	0	100
fixed	4	1	8	625630	2	3	3	1	0	703	1	4	0	120	8	0	0	100
fixed	4	1	9	627120	3	2	2	1	0	648	1	4	0	112	9	0	0	100
fixed	4	1	10	628539	1	4	4	1	0	484	1	4	0	128	10	0	0	100
fixed	4	1	11	629852	5	2	2	1	0	692	1	4	0	112	11	0	0	100
fixed	4	1	12	631527	4	3	3	1	0	589	1	4	0	120	12	0	0	100
fixed	4	2	1	633244	4	1	1	1	0	580	1	4	0	104	13	0	0	100
fixed	4	2	2	634794	1	2	2	2	0	1571	2	4	0	112	14	0	0	100
fixed	4	2	3	636774	6	4	4	1	0	623	1	4	0	128	15	0	0	100
fixed	4	2	4	638151	2	1	1	1	0	653	1	4	0	104	16	0	0	100
fixed	4	2	5	639766	5	3	3	1	0	640	1	4	0	120	17	0	0	100
fixed	4	2	6	641346	6	4	4	1	0	685	1	4	0	128	18	0	0	100
fixed	4	2	7	642917	3	1	1	1	0	658	1	4	0	104	19	0	0	100
fixed	4	2	8	644492	2	3	3	1	0	840	1	4	0	120	20	0	0	100
fixed	4	2	9	645723	3	2	2	1	0	819	1	4	0	112	21	0	0	100
fixed	4	2	10	646874	1	4	4	1	0	515	1	4	0	128	22	0	0	100
fixed	4	2	11	648238	5	2	2	1	0	721	1	4	0	112	23	0	0	100
fixed	4	2	12	649273	4	3	3	1	0	677	1	4	0	120	24	0	0	100
fixed	4	3	1	650954	4	1	1	1	0	670	1	4	0	104	25	0	0	100
fixed	4	3	2	652568	1	2	2	1	0	810	1	4	0	112	26	0	0	100
fixed	4	3	3	653958	6	4	4	1	0	703	1	4	0	128	27	0	0	100
fixed	4	3	4	655248	2	1	1	1	0	664	1	4	0	104	28	0	0	100
fixed	4	3	5	656912	5	3	3	1	0	722	1	4	0	120	29	0	0	100
fixed	4	3	6	658100	6	4	4	1	0	808	1	4	0	128	30	0	0	100
fixed	4	3	7	659918	3	1	1	1	0	699	1	4	0	104	31	0	0	100
fixed	4	3	8	661194	2	3	3	1	0	740	1	4	0	120	32	0	0	100
fixed	4	3	9	662597	3	2	2	1	0	497	1	4	0	112	33	0	0	100
fixed	4	3	10	663551	1	4	4	1	0	592	1	4	0	128	34	0	0	100
fixed	4	3	11	664969	5	2	2	1	0	708	1	4	0	112	35	0	0	100
fixed	4	3	12	666297	4	3	3	1	0	1116	1	4	0	120	36	0	0	100
fixed	4	4	1	667996	4	1	1	1	0	996	1	4	0	104	37	0	0	100
fixed	4	4	2	669587	1	2	2	1	0	777	1	4	0	112	38	0	0	100
fixed	4	4	3	671376	6	4	4	1	0	605	1	4	0	128	39	0	0	100
fixed	4	4	4	672687	2	1	1	1	0	710	1	4	0	104	40	0	0	100
fixed	4	4	5	674017	5	3	3	1	0	685	1	4	0	120	41	0	0	100
fixed	4	4	6	675707	6	4	4	1	0	822	1	4	0	128	42	0	0	100
fixed	4	4	7	677257	3	1	1	1	0	988	1	4	0	104	43	0	0	100
fixed	4	4	8	679140	2	3	3	1	0	684	1	4	0	120	44	0	0	100
fixed	4	4	9	680659	3	2	2	1	0	620	1	4	0	112	45	0	0	100
fixed	4	4	10	681838	1	4	4	1	0	754	1	4	0	128	46	0	0	100
fixed	4	4	11	683006	5	2	2	1	0	737	1	4	0	112	47	0	0	100
fixed	4	4	12	684197	4	3	3	1	0	646	1	4	0	120	48	0	0	100
fixed	4	5	1	685456	4	1	1	1	0	1161	1	4	0	104	49	0	0	100
fixed	4	5	2	686996	1	2	2	1	0	728	1	4	0	112	50	0	0	100
fixed	4	5	3	688735	6	4	4	1	0	654	1	4	0	128	51	0	0	100
fixed	4	5	4	690233	2	1	1	1	0	790	1	4	0	104	52	0	0	100
fixed	4	5	5	691893	5	3	3	1	0	744	1	4	0	120	53	0	0	100
fixed	4	5	6	693252	6	4	4	1	0	743	1	4	0	128	54	0	0	100
fixed	4	5	7	694392	3	1	1	1	0	734	1	4	0	104	55	0	0	100
fixed	4	5	8	695436	2	3	3	1	0	842	1	4	0	120	56	0	0	100
fixed	4	5	9	697045	3	2	2	1	0	758	1	4	0	112	57	0	0	100
fixed	4	5	10	698837	1	4	4	1	0	658	1	4	0	128	58	0	0	100
fixed	4	5	11	699917	5	2	2	1	0	2429	1	4	0	112	59	0	0	100
fixed	4	5	12	703053	4	3	3	1	0	744	1	4	0	120	60	0	0	100
fixed	4	6	1	705020	4	1	1	1	0	836	1	4	0	104	61	0	0	100
fixed	4	6	2	706484	1	2	2	1	0	982	1	4	0	112	62	0	0	100
fixed	4	6	3	708070	6	4	4	1	0	683	1	4	0	128	63	0	0	100
fixed	4	6	4	709145	2	1	1	1	0	829	1	4	0	104	64	0	0	100
fixed	4	6	5	710316	5	3	3	1	0	748	1	4	0	120	65	0	0	100
fixed	4	6	6	712035	6	4	4	1	0	763	1	4	0	128	66	0	0	100
fixed	4	6	7	713761	3	1	1	1	0	746	1	4	0	104	67	0	0	100
fixed	4	6	8	715021	2	3	3	1	0	773	1	4	0	120	68	0	0	100
fixed	4	6	9	716522	3	2	2	1	0	733	1	4	0	112	69	0	0	100
fixed	4	6	10	717923	1	4	4	1	0	722	1	4	0	128	70	0	0	100
fixed	4	6	11	719539	5	2	2	1	0	789	1	4	0	112	71	0	0	100
fixed	4	6	12	720935	4	3	3	1	0	682	1	4	0	120	72	0	0	100
fixed	4	7	1	722747	4	1	1	1	0	901	1	4	0	104	73	0	0	100
fixed	4	7	2	723950	1	2	2	1	0	938	1	4	0	112	74	0	0	100
fixed	4	7	3	725579	6	4	4	1	0	1102	1	4	0	128	75	0	0	100
fixed	4	7	4	727303	2	1	1	1	0	701	1	4	0	104	76	0	0	100
fixed	4	7	5	728567	5	3	3	1	0	943	1	4	0	120	77	0	0	100
fixed	4	7	6	730105	6	4	4	1	0	846	1	4	0	128	78	0	0	100
fixed	4	7	7	731483	3	1	1	1	0	771	1	4	0	104	79	0	0	100
fixed	4	7	8	733263	2	3	3	1	0	800	1	4	0	120	80	0	0	100
fixed	4	7	9	734625	3	2	2	1	0	782	1	4	0	112	81	0	0	100
fixed	4	7	10	735708	1	4	4	1	0	793	1	4	0	128	82	0	0	100
fixed	4	7	11	737213	5	2	2	1	0	745	1	4	0	112	83	0	0	100
fixed	4	7	12	738706	4	3	3	1	0	1273	1	4	0	120	84	0	0	100
fixed	4	8	1	741126	4	1	1	1	0	971	1	4	0	104	85	0	0	100
fixed	4	8	2	742809	1	2	2	1	0	836	1	4	0	112	86	0	0	100
fixed	4	8	3	744605	6	4	4	1	0	632	1	4	0	128	87	0	0	100
fixed	4	8	4	745922	2	1	1	1	0	728	1	4	0	104	88	0	0	100
fixed	4	8	5	747477	5	3	3	1	0	798	1	4	0	120	89	0	0	100
fixed	4	8	6	748961	6	4	4	1	0	815	1	4	0	128	90	0	0	100
fixed	4	8	7	750481	3	1	1	1	0	758	1	4	0	104	91	0	0	100
fixed	4	8	8	752089	2	3	3	1	0	771	1	4	0	120	92	0	0	100
fixed	4	8	9	753432	3	2	2	1	0	1466	1	4	0	112	93	0	0	100
fixed	4	8	10	755437	1	4	4	1	0	605	1	4	0	128	94	0	0	100
fixed	4	8	11	756854	5	2	2	1	0	769	1	4	0	112	95	0	0	100
fixed	4	8	12	758165	4	3	3	1	0	649	1	4	0	120	96	0	0	100
fixed	4	9	1	759671	4	1	1	1	0	913	1	4	0	104	97	0	0	100
fixed	4	9	2	760977	1	2	2	1	0	810	1	4	0	112	98	0	0	100
fixed	4	9	3	762327	6	4	4	1	0	793	1	4	0	128	99	0	0	100
fixed	4	9	4	764004	2	1	1	1	0	666	1	4	0	104	100	0	0	100
fixed	4	9	5	765062	5	3	3	1	0	869	1	4	0	120	101	0	0	100
fixed	4	9	6	766962	6	4	4	1	0	821	1	4	0	128	102	0	0	100
fixed	4	9	7	768620	3	1	1	1	0	775	1	4	0	104	103	0	0	100
fixed	4	9	8	770080	2	3	3	1	0	704	1	4	0	120	104	0	0	100
fixed	4	9	9	771481	3	2	2	1	0	757	1	4	0	112	105	0	0	100
fixed	4	9	10	772792	1	4	4	1	0	726	1	4	0	128	106	0	0	100
fixed	4	9	11	774434	5	2	2	1	0	704	1	4	0	112	107	0	0	100
fixed	4	9	12	775813	4	3	3	1	0	822	1	4	0	120	108	0	0	100
fixed	4	10	1	777832	4	1	1	1	0	848	1	4	0	104	109	0	0	100
fixed	4	10	2	779035	1	2	2	1	0	1197	1	4	0	112	110	0	0	100
fixed	4	10	3	780739	6	4	4	1	0	565	1	4	0	128	111	0	0	100
fixed	4	10	4	781596	2	1	1	1	0	785	1	4	0	104	112	0	0	100
fixed	4	10	5	782918	5	3	3	1	0	953	1	4	0	120	113	0	0	100
fixed	4	10	6	784711	6	4	4	1	0	837	1	4	0	128	114	0	0	100
fixed	4	10	7	785871	3	1	1	1	0	868	1	4	0	104	115	0	0	100
fixed	4	10	8	787374	2	3	3	1	0	1228	1	4	0	120	116	0	0	100
fixed	4	10	9	788983	3	2	2	1	0	736	1	4	0	112	117	0	0	100
fixed	4	10	10	790353	1	4	4	1	0	686	1	4	0	128	118	0	0	100
fixed	4	10	11	791541	5	2	2	1	0	668	1	4	0	112	119	0	0	100
fixed	4	10	12	793001	4	3	3	1	0	838	1	4	0	120	120	0	0	100
fixed	5	1	1	795005	4	1	1	1	0	721	1	4	0	136	1	0	0	100
fixed	5	1	2	796429	1	2	2	1	0	732	1	4	0	144	2	0	0	100
fixed	5	1	3	797654	6	4	4	1	0	737	1	4	0	160	3	0	0	100
fixed	5	1	4	798875	2	1	1	1	0	781	1	4	0	136	4	0	0	100
fixed	5	1	5	800147	5	3	3	1	0	1255	1	4	0	152	5	0	0	100
fixed	5	1	6	802165	6	4	4	1	0	650	1	4	0	160	6	0	0	100
fixed	5	1	7	803198	3	1	1	1	0	726	1	4	0	136	7	0	0	100
fixed	5	1	8	804620	2	3	3	1	0	730	1	4	0	152	8	0	0	100
fixed	5	1	9	805731	3	2	2	1	0	619	1	4	0	144	9	0	0	100
fixed	5	1	10	807312	1	4	4	1	0	704	1	4	0	160	10	0	0	100
fixed	5	1	11	808336	5	2	2	1	0	597	1	4	0	144	11	0	0	100
fixed	5	1	12	809416	4	3	3	1	0	775	1	4	0	152	12	0	0	100
fixed	5	2	1	811147	4	1	1	2	0	1373	2	4	0	136	13	0	0	100
fixed	5	2	2	813451	1	2	2	1	0	763	1	4	0	144	14	0	0	100
fixed	5	2	3	815160	6	4	4	1	0	747	1	4	0	160	15	0	0	100
fixed	5	2	4	816266	2	1	1	1	0	964	1	4	0	136	16	0	0	100
fixed	5	2	5	818191	5	3	3	1	0	787	1	4	0	152	17	0	0	100
fixed	5	2	6	819498	6	4	4	1	0	779	1	4	0	160	18	0	0	100
fixed	5	2	7	820814	3	1	1	1	0	972	1	4	0	136	19	0	0	100
fixed	5	2	8	822678	2	3	3	1	0	837	1	4	0	152	20	0	0	100
fixed	5	2	9	824256	3	2	2	1	0	834	1	4	0	144	21	0	0	100
fixed	5	2	10	825537	1	4	4	1	0	820	1	4	0	160	22	0	0	100
fixed	5	2	11	826964	5	2	2	1	0	960	1	4	0	144	23	0	0	100
fixed	5	2	12	828481	4	3	3	1	0	911	1	4	0	152	24	0	0	100
fixed	5	3	1	830662	4	1	1	1	0	898	1	4	0	136	25	0	0	100
fixed	5	3	2	832494	1	2	2	1	0	1141	1	4	0	144	26	0	0	100
fixed	5	3	3	834037	6	4	4	1	0	732	1	4	0	160	27	0	0	100
fixed	5	3	4	835487	2	1	1	1	0	679	1	4	0	136	28	0	0	100
fixed	5	3	5	836498	5	3	3	1	0	763	1	4	0	152	29	0	0	100
fixed	5	3	6	837746	6	4	4	1	0	734	1	4	0	160	30	0	0	100
fixed	5	3	7	839037	3	1	1	1	0	704	1	4	0	136	31	0	0	100
fixed	5	3	8	840376	2	3	3	1	0	751	1	4	0	152	32	0	0	100
fixed	5	3	9	841796	3	2	2	1	0	651	1	4	0	144	33	0	0	100
fixed	5	3	10	842974	1	4	4	1	0	697	1	4	0	160	34	0	0	100
fixed	5	3	11	844541	5	2	2	1	0	711	1	4	0	144	35	0	0	100
fixed	5	3	12	846065	4	3	3	1	0	822	1	4	0	152	36	0	0	100
fixed	5	4	1	847537	4	1	1	1	0	832	1	4	0	136	37	0	0	100
fixed	5	4	2	849201	1	2	2	1	0	730	1	4	0	144	38	0	0	100
fixed	5	4	3	850819	6	4	4	1	0	677	1	4	0	160	39	0	0	100
fixed	5	4	4	852365	2	1	1	1	0	963	1	4	0	136	40	0	0	100
fixed	5	4	5	854103	5	3	3	1	0	778	1	4	0	152	41	0	0	100
fixed	5	4	6	855746	6	4	4	1	0	812	1	4	0	160	42	0	0	100
fixed	5	4	7	857570	3	1	1	1	0	1247	1	4	0	136	43	0	0	100
fixed	5	4	8	859513	2	3	3	2	0	1204	2	4	0	152	44	0	0	100
fixed	5	4	9	861621	3	2	2	1	0	483	1	4	0	144	45	0	0	100
fixed	5	4	10	862995	1	4	4	1	0	481	1	4	0	160	46	0	0	100
fixed	5	4	11	863807	5	2	2	1	0	879	1	4	0	144	47	0	0	100
fixed	5	4	12	865348	4	3	3	1	0	621	1	4	0	152	48	0	0	100
fixed	5	5	1	867085	4	1	1	1	0	972	1	4	0	136	49	0	0	100
fixed	5	5	2	869029	1	2	2	1	0	898	1	4	0	144	50	0	0	100
fixed	5	5	3	870459	6	4	4	1	0	669	1	4	0	160	51	0	0	100
fixed	5	5	4	872019	2	1	1	1	0	763	1	4	0	136	52	0	0	100
fixed	5	5	5	873156	5	3	3	1	0	1275	1	4	0	152	53	0	0	100
fixed	5	5	6	875467	6	4	4	1	0	681	1	4	0	160	54	0	0	100
fixed	5	5	7	876539	3	1	1	1	0	947	1	4	0	136	55	0	0	100
fixed	5	5	8	878346	2	3	3	1	0	815	1	4	0	152	56	0	0	100
fixed	5	5	9	879918	3	2	2	1	0	636	1	4	0	144	57	0	0	100
fixed	5	5	10	881308	1	4	4	1	0	522	1	4	0	160	58	0	0	100
fixed	5	5	11	882538	5	2	2	1	0	653	1	4	0	144	59	0	0	100
fixed	5	5	12	884058	4	3	3	1	0	861	1	4	0	152	60	0	0	100
fixed	5	6	1	886064	4	1	1	1	0	528	1	4	0	136	61	0	0	100
fixed	5	6	2	887613	1	2	2	2	0	983	2	4	0	144	62	0	0	100
fixed	5	6	3	889007	6	4	4	1	0	523	1	4	0	160	63	0	0	100
fixed	5	6	4	890075	2	1	1	1	0	622	1	4	0	136	64	0	0	100
fixed	5	6	5	891678	5	3	3	1	0	666	1	4	0	152	65	0	0	100
fixed	5	6	6	893034	6	4	4	1	0	689	1	4	0	160	66	0	0	100
fixed	5	6	7	894551	3	1	1	1	0	768	1	4	0	136	67	0	0	100
fixed	5	6	8	896142	2	3	3	1	0	781	1	4	0	152	68	0	0	100
fixed	5	6	9	897738	3	2	2	1	0	706	1	4	0	144	69	0	0	100
fixed	5	6	10	898784	1	4	4	1	0	1581	1	4	0	160	70	0	0	100
fixed	5	6	11	901380	5	2	2	1	0	776	1	4	0	144	71	0	0	100
fixed	5	6	12	902914	4	3	3	1	0	879	1	4	0	152	72	0	0	100
fixed	5	7	1	904393	4	1	1	2	0	2016	2	4	0	136	73	0	0	100
fixed	5	7	2	907265	1	2	2	1	0	750	1	4	0	144	74	0	0	100
fixed	5	7	3	908494	6	4	4	1	0	666	1	4	0	160	75	0	0	100
fixed	5	7	4	909510	2	1	1	1	0	863	1	4	0	136	76	0	0	100
fixed	5	7	5	910917	5	3	3	1	0	876	1	4	0	152	77	0	0	100
fixed	5	7	6	912688	6	4	4	1	0	689	1	4	0	160	78	0	0	100
fixed	5	7	7	913917	3	1	1	1	0	740	1	4	0	136	79	0	0	100
fixed	5	7	8	915405	2	3	3	1	0	1333	1	4	0	152	80	0	0	100
fixed	5	7	9	917592	3	2	2	1	0	457	1	4	0	144	81	0	0	100
fixed	5	7	10	918701	1	4	4	1	0	770	1	4	0	160	82	0	0	100
fixed	5	7	11	919783	5	2	2	1	0	948	1	4	0	144	83	0	0	100
fixed	5	7	12	921715	4	3	3	1	0	1602	1	4	0	152	84	0	0	100
fixed	5	8	1	924191	4	1	1	1	0	889	1	4	0	136	85	0	0	100
fixed	5	8	2	925506	1	2	2	1	0	866	1	4	0	144	86	0	0	100
fixed	5	8	3	926818	6	4	4	1	0	746	1	4	0	160	87	0	0	100
fixed	5	8	4	928406	2	1	1	1	0	663	1	4	0	136	88	0	0	100
fixed	5	8	5	930083	5	3	3	1	0	688	1	4	0	152	89	0	0	100
fixed	5	8	6	931655	6	4	4	1	0	629	1	4	0	160	90	0	0	100
fixed	5	8	7	932875	3	1	1	1	0	1090	1	4	0	136	91	0	0	100
fixed	5	8	8	934950	2	3	3	1	0	721	1	4	0	152	92	0	0	100
fixed	5	8	9	936656	3	2	2	1	0	793	1	4	0	144	93	0	0	100
fixed	5	8	10	938426	1	4	4	1	0	702	1	4	0	160	94	0	0	100
fixed	5	8	11	939570	5	2	2	1	0	942	1	4	0	144	95	0	0	100
fixed	5	8	12	941157	4	3	3	1	0	635	1	4	0	152	96	0	0	100
fixed	5	9	1	942653	4	1	1	1	0	915	1	4	0	136	97	0	0	100
fixed	5	9	2	944447	1	2	2	1	0	775	1	4	0	144	98	0	0	100
fixed	5	9	3	945599	6	4	4	1	0	1215	1	4	0	160	99	0	0	100
fixed	5	9	4	947797	2	1	1	1	0	745	1	4	0	136	100	0	0	100
fixed	5	9	5	948901	5	3	3	1	0	1658	1	4	0	152	101	0	0	100
fixed	5	9	6	950943	6	4	4	1	0	788	1	4	0	160	102	0	0	100
fixed	5	9	7	952195	3	1	1	1	0	791	1	4	0	136	103	0	0	100
fixed	5	9	8	953617	2	3	3	1	0	731	1	4	0	152	104	0	0	100
fixed	5	9	9	954769	3	2	2	1	0	458	1	4	0	144	105	0	0	100
fixed	5	9	10	956260	1	4	4	1	0	531	1	4	0	160	106	0	0	100
fixed	5	9	11	957211	5	2	2	1	0	827	1	4	0	144	107	0	0	100
fixed	5	9	12	958884	4	3	3	1	0	964	1	4	0	152	108	0	0	100
fixed	5	10	1	960514	4	1	1	1	0	631	1	4	0	136	109	0	0	100
fixed	5	10	2	962017	1	2	2	1	0	935	1	4	0	144	110	0	0	100
fixed	5	10	3	963943	6	4	4	1	0	766	1	4	0	160	111	0	0	100
fixed	5	10	4	965718	2	1	1	1	0	1018	1	4	0	136	112	0	0	100
fixed	5	10	5	967073	5	3	3	1	0	945	1	4	0	152	113	0	0	100
fixed	5	10	6	968552	6	4	4	1	0	1586	1	4	0	160	114	0	0	100
fixed	5	10	7	971132	3	1	1	1	0	693	1	4	0	136	115	0	0	100
fixed	5	10	8	972681	2	3	3	1	0	907	1	4	0	152	116	0	0	100
fixed	5	10	9	974374	3	2	2	1	0	652	1	4	0	144	117	0	0	100
fixed	5	10	10	975939	1	4	4	1	0	593	1	4	0	160	118	0	0	100
fixed	5	10	11	977546	5	2	2	1	0	845	1	4	0	144	119	0	0	100
fixed	5	10	12	978685	4	3	3	1	0	869	1	4	0	152	120	0	0	100
random	6	1	1	1066455	6	1	1	1	0	879	1	4	0	168	1	0	0	100
random	6	1	2	1068329	4	4	4	1	0	656	1	4	0	192	2	0	0	100
random	6	1	3	1069746	2	2	2	2	0	924	2	4	0	176	3	0	0	100
random	6	1	4	1071422	3	3	3	1	0	717	1	4	0	184	4	0	0	100
random	6	1	5	1072453	5	2	2	1	0	721	1	4	0	176	5	0	0	100
random	6	1	6	1073789	1	4	4	1	0	601	1	4	0	192	6	0	0	100
random	6	1	7	1075274	6	1	1	1	0	682	1	4	0	168	7	0	0	100
random	6	1	8	1076300	2	3	3	1	0	751	1	4	0	184	8	0	0	100
random	6	1	9	1078039	4	2	2	1	0	605	1	4	0	176	9	0	0	100
random	6	1	10	1079152	1	1	1	1	0	686	1	4	0	168	10	0	0	100
random	6	1	11	1080638	5	4	4	1	0	559	1	4	0	192	11	0	0	100
random	6	1	12	1081660	3	3	3	1	0	835	1	4	0	184	12	0	0	100
random	6	1	13	1083148	5	2	2	1	0	556	1	4	0	176	13	0	0	100
random	6	1	14	1084462	1	4	4	1	0	637	1	4	0	192	14	0	0	100
random	6	1	15	1085478	3	1	1	1	0	666	1	4	0	168	15	0	0	100
random	6	1	16	1086960	4	3	3	1	0	787	1	4	0	184	16	0	0	100
random	6	1	17	1088176	6	4	4	1	0	743	1	4	0	192	17	0	0	100
random	6	1	18	1089812	2	1	1	1	0	826	1	4	0	168	18	0	0	100
random	6	1	19	1091244	5	3	3	1	0	782	1	4	0	184	19	0	0	100
random	6	1	20	1092565	2	2	2	1	0	702	1	4	0	176	20	0	0	100
random	6	1	21	1094286	3	3	3	1	0	693	1	4	0	184	21	0	0	100
random	6	1	22	1095466	6	1	1	1	0	787	1	4	0	168	22	0	0	100
random	6	1	23	1097079	4	2	2	1	0	839	1	4	0	176	23	0	0	100
random	6	1	24	1098833	1	4	4	1	0	469	1	4	0	192	24	0	0	100
random	6	1	25	1100140	4	3	3	1	0	861	1	4	0	184	25	0	0	100
random	6	1	26	1101436	2	1	1	1	0	750	1	4	0	168	26	0	0	100
random	6	1	27	1102611	5	2	2	1	0	772	1	4	0	176	27	0	0	100
random	6	1	28	1103950	6	4	4	1	0	555	1	4	0	192	28	0	0	100
random	6	1	29	1105521	1	3	3	1	0	817	1	4	0	184	29	0	0	100
random	6	1	30	1106963	5	2	2	1	0	564	1	4	0	176	30	0	0	100
random	6	1	31	1107887	2	1	1	1	0	773	1	4	0	168	31	0	0	100
random	6	1	32	1109483	3	3	3	1	0	657	1	4	0	184	32	0	0	100
random	6	1	33	1110613	6	4	4	1	0	625	1	4	0	192	33	0	0	100
random	6	1	34	1111668	4	2	2	1	0	628	1	4	0	176	34	0	0	100
random	6	1	35	1112601	3	4	4	1	0	717	1	4	0	192	35	0	0	100
random	6	1	36	1113639	1	1	1	1	0	713	1	4	0	168	36	0	0	100
random	6	1	37	1115594	3	4	4	1	0	734	1	4	0	192	37	0	0	100
random	6	1	38	1117076	5	3	3	1	0	800	1	4	0	184	38	0	0	100
random	6	1	39	1118715	6	1	1	1	0	715	1	4	0	168	39	0	0	100
random	6	1	40	1119951	1	2	2	1	0	758	1	4	0	176	40	0	0	100
random	6	1	41	1121313	2	3	3	1	0	652	1	4	0	184	41	0	0	100
random	6	1	42	1122571	4	4	4	1	0	543	1	4	0	192	42	0	0	100
random	6	1	43	1123859	1	2	2	1	0	665	1	4	0	176	43	0	0	100
random	6	1	44	1125061	6	3	3	2	0	1086	2	4	0	184	44	0	0	100
random	6	1	45	1126643	3	1	1	1	0	706	1	4	0	168	45	0	0	100
random	6	1	46	1128286	4	4	4	1	0	509	1	4	0	192	46	0	0	100
random	6	1	47	1129629	2	2	2	1	0	756	1	4	0	176	47	0	0	100
random	6	1	48	1130687	5	1	1	1	0	799	1	4	0	168	48	0	0	100
random	6	1	49	1132753	2	3	3	1	0	1159	1	4	0	184	49	0	0	100
random	6	1	50	1134777	3	1	1	1	0	658	1	4	0	168	50	0	0	100
random	6	1	51	1136162	1	4	4	1	0	567	1	4	0	192	51	0	0	100
random	6	1	52	1137696	5	3	3	1	0	782	1	4	0	184	52	0	0	100
random	6	1	53	1138813	3	2	2	1	0	495	1	4	0	176	53	0	0	100
random	6	1	54	1140162	6	4	4	1	0	654	1	4	0	192	54	0	0	100
random	6	1	55	1141147	4	2	2	1	0	644	1	4	0	176	55	0	0	100
random	6	1	56	1142608	1	1	1	1	0	742	1	4	0	168	56	0	0	100
random	6	1	57	1143921	5	4	4	1	0	703	1	4	0	192	57	0	0	100
random	6	1	58	1145131	2	1	1	1	0	651	1	4	0	168	58	0	0	100
random	6	1	59	1146598	6	2	2	1	0	1102	1	4	0	176	59	0	0	100
random	6	1	60	1148646	4	3	3	1	0	534	1	4	0	184	60	0	0	100
random	6	1	61	1149962	1	2	2	1	0	710	1	4	0	176	61	0	0	100
random	6	1	62	1151446	6	4	4	1	0	584	1	4	0	192	62	0	0	100
random	6	1	63	1152522	4	1	1	1	0	682	1	4	0	168	63	0	0	100
random	6	1	64	1153488	2	2	2	1	0	1729	1	4	0	176	64	0	0	100
random	6	1	65	1155648	4	3	3	1	0	614	1	4	0	184	65	0	0	100
random	6	1	66	1157064	3	1	1	1	0	754	1	4	0	168	66	0	0	100
random	6	1	67	1158116	1	3	3	1	0	813	1	4	0	184	67	0	0	100
random	6	1	68	1159242	5	4	4	1	0	534	1	4	0	192	68	0	0	100
random	6	1	69	1160231	2	2	2	1	0	700	1	4	0	176	69	0	0	100
random	6	1	70	1161783	3	1	1	1	0	818	1	4	0	168	70	0	0	100
random	6	1	71	1163212	5	4	4	1	0	613	1	4	0	192	71	0	0	100
random	6	1	72	1164252	6	3	3	1	0	977	1	4	0	184	72	0	0	100
random	6	1	73	1165934	2	1	1	1	0	706	1	4	0	168	73	0	0	100
random	6	1	74	1167601	5	3	3	1	0	756	1	4	0	184	74	0	0	100
random	6	1	75	1169284	1	4	4	1	0	597	1	4	0	192	75	0	0	100
random	6	1	76	1170314	6	2	2	1	0	665	1	4	0	176	76	0	0	100
random	6	1	77	1171401	2	1	1	1	0	683	1	4	0	168	77	0	0	100
random	6	1	78	1172749	4	4	4	1	0	561	1	4	0	192	78	0	0	100
random	6	1	79	1174250	3	2	2	1	0	706	1	4	0	176	79	0	0	100
random	6	1	80	1175752	4	3	3	1	0	739	1	4	0	184	80	0	0	100
random	6	1	81	1177329	1	4	4	1	0	655	1	4	0	192	81	0	0	100
random	6	1	82	1178697	5	1	1	1	0	805	1	4	0	168	82	0	0	100
random	6	1	83	1179899	3	2	2	1	0	715	1	4	0	176	83	0	0	100
random	6	1	84	1181017	6	3	3	1	0	644	1	4	0	184	84	0	0	100
random	6	1	85	1182609	3	2	2	1	0	696	1	4	0	176	85	0	0	100
random	6	1	86	1183832	1	3	3	1	0	620	1	4	0	184	86	0	0	100
random	6	1	87	1184854	4	4	4	1	0	705	1	4	0	192	87	0	0	100
random	6	1	88	1185985	2	1	1	1	0	761	1	4	0	168	88	0	0	100
random	6	1	89	1187583	6	4	4	1	0	606	1	4	0	192	89	0	0	100
random	6	1	90	1189187	3	3	3	1	0	842	1	4	0	184	90	0	0	100
random	6	1	91	1191004	5	4	4	1	0	820	1	4	0	192	91	0	0	100
random	6	1	92	1192704	1	2	2	1	0	756	1	4	0	176	92	0	0	100
random	6	1	93	1194046	5	1	1	1	0	756	1	4	0	168	93	0	0	100
random	6	1	94	1195661	4	3	3	1	0	759	1	4	0	184	94	0	0	100
random	6	1	95	1197230	6	1	1	2	0	1277	2	4	0	168	95	0	0	100
random	6	1	96	1199403	2	2	2	1	0	921	1	4	0	176	96	0	0	100
random	6	1	97	1201438	4	3	3	1	0	842	1	4	0	184	97	0	0	100
random	6	1	98	1202714	3	2	2	1	0	660	1	4	0	176	98	0	0	100
random	6	1	99	1204089	6	3	3	1	0	754	1	4	0	184	99	0	0	100
random	6	1	100	1205814	1	4	4	1	0	529	1	4	0	192	100	0	0	100
random	6	1	101	1207133	4	1	1	1	0	817	1	4	0	168	101	0	0	100
random	6	1	102	1208815	5	2	2	1	0	666	1	4	0	176	102	0	0	100
random	6	1	103	1210381	2	4	4	1	0	648	1	4	0	192	103	0	0	100
random	6	1	104	1211366	3	1	1	1	0	750	1	4	0	168	104	0	0	100
random	6	1	105	1212532	1	3	3	1	0	764	1	4	0	184	105	0	0	100
random	6	1	106	1214301	2	2	2	1	0	665	1	4	0	176	106	0	0	100
random	6	1	107	1215734	5	4	4	1	0	469	1	4	0	192	107	0	0	100
random	6	1	108	1216513	6	1	1	1	0	732	1	4	0	168	108	0	0	100
random	6	1	109	1217929	5	4	4	1	0	736	1	4	0	192	109	0	0	100
random	6	1	110	1219681	6	3	3	1	0	1157	1	4	0	184	110	0	0	100
random	6	1	111	1221184	2	2	2	1	0	542	1	4	0	176	111	0	0	100
random	6	1	112	1222582	3	1	1	1	0	691	1	4	0	168	112	0	0	100
random	6	1	113	1223772	1	2	2	1	0	753	1	4	0	176	113	0	0	100
random	6	1	114	1224847	2	3	3	1	0	667	1	4	0	184	114	0	0	100
random	6	1	115	1226307	3	1	1	1	0	573	1	4	0	168	115	0	0	100
random	6	1	116	1227335	4	4	4	1	0	545	1	4	0	192	116	0	0	100
random	6	1	117	1228585	6	1	1	1	0	949	1	4	0	168	117	0	0	100
random	6	1	118	1230060	5	3	3	1	0	854	1	4	0	184	118	0	0	100
random	6	1	119	1231911	1	4	4	1	0	656	1	4	0	192	119	0	0	100
random	6	1	120	1233592	4	2	2	1	0	617	1	4	0	176	120	0	0	100
fixed	7	1	1	1235219	4	1	1	1	0	859	1	4	0	200	1	0	0	100
fixed	7	1	2	1236389	1	2	2	1	0	834	1	4	0	208	2	0	0	100
fixed	7	1	3	1237977	6	4	4	1	0	591	1	4	0	224	3	0	0	100
fixed	7	1	4	1239527	2	1	1	1	0	685	1	4	0	200	4	0	0	100
fixed	7	1	5	1240560	5	3	3	1	0	866	1	4	0	216	5	0	0	100
fixed	7	1	6	1242064	6	4	4	1	0	618	1	4	0	224	6	0	0	100
fixed	7	1	7	1243049	3	1	1	1	0	672	1	4	0	200	7	0	0	100
fixed	7	1	8	1244256	2	3	3	1	0	869	1	4	0	216	8	0	0	100
fixed	7	1	9	1246104	3	2	2	1	0	823	1	4	0	208	9	0	0	100
fixed	7	1	10	1247230	1	4	4	1	0	663	1	4	0	224	10	0	0	100
fixed	7	1	11	1248805	5	2	2	1	0	924	1	4	0	208	11	0	0	100
fixed	7	1	12	1250356	4	3	3	1	0	730	1	4	0	216	12	0	0	100
fixed	7	2	1	1252046	4	1	1	1	0	771	1	4	0	200	1	0	0	8
fixed	7	2	2	1253820	1	2	2	1	0	1008	1	4	0	208	2	0	0	14
fixed	7	2	3	1255248	6	4	4	1	0	556	1	4	0	224	3	0	0	20
fixed	7	2	4	1256319	2	1	1	1	0	646	1	4	0	200	4	0	0	25
fixed	7	2	5	1257926	5	3	3	1	0	690	1	4	0	216	5	0	0	29
fixed	7	2	6	1259450	6	4	4	1	0	673	1	4	0	224	6	0	0	33
fixed	7	2	7	1261053	3	1	1	1	0	669	1	4	0	200	7	0	0	37
fixed	7	2	8	1262345	2	3	3	1	0	743	1	4	0	216	8	0	0	40
fixed	7	2	9	1263420	3	2	2	1	0	586	1	4	0	208	9	0	0	43
fixed	7	2	10	1264695	1	4	4	1	0	491	1	4	0	224	10	0	0	45
fixed	7	2	11	1266156	5	2	2	1	0	677	1	4	0	208	11	0	0	48
fixed	7	2	12	1267320	4	3	3	1	0	604	1	4	0	216	12	0	0	50
fixed	7	3	1	1268971	4	1	1	1	0	766	1	4	0	200	1	0	0	4
fixed	7	3	2	1270416	1	2	2	1	0	777	1	4	0	208	2	0	0	8
fixed	7	3	3	1271490	6	4	4	1	0	580	1	4	0	224	3	0	0	11
fixed	7	3	4	1272645	2	1	1	1	0	594	1	4	0	200	4	0	0	14
fixed	7	3	5	1273881	5	3	3	2	0	1086	2	4	0	216	5	0	0	17
fixed	7	3	6	1275275	6	4	4	1	0	659	1	4	0	224	6	0	0	20
fixed	7	3	7	1276718	3	1	1	1	0	830	1	4	0	200	7	0	0	23
fixed	7	3	8	1277843	2	3	3	1	0	734	1	4	0	216	8	0	0	25
fixed	7	3	9	1279447	3	2	2	1	0	554	1	4	0	208	9	0	0	27
fixed	7	3	10	1281044	1	4	4	1	0	543	1	4	0	224	10	0	0	29
fixed	7	3	11	1281916	5	2	2	1	0	658	1	4	0	208	11	0	0	31
fixed	7	3	12	1283276	4	3	3	1	0	648	1	4	0	216	12	0	0	33
fixed	7	4	1	1284993	4	1	1	1	0	679	1	4	0	200	1	0	0	3
fixed	7	4	2	1286356	1	2	2	1	0	846	1	4	0	208	2	0	0	5
fixed	7	4	3	1287815	6	4	4	1	0	600	1	4	0	224	3	0	0	8
fixed	7	4	4	1289276	2	1	1	1	0	674	1	4	0	200	4	0	0	10
fixed	7	4	5	1290887	5	3	3	1	0	790	1	4	0	216	5	0	0	12
fixed	7	4	6	1292676	6	4	4	1	0	634	1	4	0	224	6	0	0	14
fixed	7	4	7	1294025	3	1	1	1	0	881	1	4	0	200	7	0	0	16
fixed	7	4	8	1295786	2	3	3	1	0	742	1	4	0	216	8	0	0	18
fixed	7	4	9	1297410	3	2	2	1	0	513	1	4	0	208	9	0	0	20
fixed	7	4	10	1298219	1	4	4	1	0	536	1	4	0	224	10	0	0	22
fixed	7	4	11	1299268	5	2	2	1	0	715	1	4	0	208	11	0	0	23
fixed	7	4	12	1300518	4	3	3	1	0	870	1	4	0	216	12	0	0	25
fixed	7	5	1	1301985	4	1	1	1	0	840	1	4	0	200	1	0	0	2
fixed	7	5	2	1303122	1	2	2	1	0	799	1	4	0	208	2	0	0	4
fixed	7	5	3	1304385	6	4	4	1	0	594	1	4	0	224	3	0	0	6
fixed	7	5	4	1305686	2	1	1	1	0	715	1	4	0	200	4	0	0	8
fixed	7	5	5	1306734	5	3	3	1	0	759	1	4	0	216	5	0	0	9
fixed	7	5	6	1308351	6	4	4	1	0	538	1	4	0	224	6	0	0	11
fixed	7	5	7	1309585	3	1	1	1	0	654	1	4	0	200	7	0	0	13
fixed	7	5	8	1310805	2	3	3	1	0	882	1	4	0	216	8	0	0	14
fixed	7	5	9	1312489	3	2	2	1	0	531	1	4	0	208	9	0	0	16
fixed	7	5	10	1314021	1	4	4	1	0	594	1	4	0	224	10	0	0	17
fixed	7	5	11	1315014	5	2	2	1	0	1072	1	4	0	208	11	0	0	19
fixed	7	5	12	1317018	4	3	3	1	0	763	1	4	0	216	12	0	0	20
fixed	7	6	1	1318609	4	1	1	1	0	904	1	4	0	200	1	0	0	2
fixed	7	6	2	1320092	1	2	2	1	0	721	1	4	0	208	2	0	0	3
fixed	7	6	3	1321823	6	4	4	1	0	576	1	4	0	224	3	0	0	5
fixed	7	6	4	1323356	2	1	1	1	0	743	1	4	0	200	4	0	0	6
fixed	7	6	5	1324884	5	3	3	1	0	910	1	4	0	216	5	0	0	8
fixed	7	6	6	1326349	6	4	4	1	0	648	1	4	0	224	6	0	0	9
fixed	7	6	7	1327338	3	1	1	1	0	806	1	4	0	200	7	0	0	10
fixed	7	6	8	1329135	2	3	3	1	0	970	1	4	0	216	8	0	0	12
fixed	7	6	9	1331104	3	2	2	1	0	606	1	4	0	208	9	0	0	13
fixed	7	6	10	1332437	1	4	4	1	0	646	1	4	0	224	10	0	0	14
fixed	7	6	11	1333603	5	2	2	1	0	973	1	4	0	208	11	0	0	15
fixed	7	6	12	1335364	4	3	3	1	0	906	1	4	0	216	12	0	0	17
fixed	7	7	1	1337088	4	1	1	1	0	913	1	4	0	200	1	0	0	1
fixed	7	7	2	1338849	1	2	2	1	0	919	1	4	0	208	2	0	0	3
fixed	7	7	3	1340614	6	4	4	1	0	716	1	4	0	224	3	0	0	4
fixed	7	7	4	1341809	2	1	1	1	0	713	1	4	0	200	4	0	0	5
fixed	7	7	5	1343221	5	3	3	1	0	829	1	4	0	216	5	0	0	6
fixed	7	7	6	1344719	6	4	4	1	0	606	1	4	0	224	6	0	0	8
fixed	7	7	7	1346109	3	1	1	1	0	763	1	4	0	200	7	0	0	9
fixed	7	7	8	1347511	2	3	3	1	0	663	1	4	0	216	8	0	0	10
fixed	7	7	9	1349090	3	2	2	1	0	765	1	4	0	208	9	0	0	11
fixed	7	7	10	1350667	1	4	4	1	0	514	1	4	0	224	10	0	0	12
fixed	7	7	11	1351958	5	2	2	2	0	1083	2	4	0	208	11	0	0	13
fixed	7	7	12	1354006	4	3	3	1	0	733	1	4	0	216	12	0	0	14
fixed	7	8	1	1355399	4	1	1	1	0	489	1	4	0	200	1	0	0	1
fixed	7	8	2	1356535	1	2	2	1	0	825	1	4	0	208	2	0	0	2
fixed	7	8	3	1357736	6	4	4	1	0	566	1	4	0	224	3	0	0	3
fixed	7	8	4	1359085	2	1	1	1	0	774	1	4	0	200	4	0	0	5
fixed	7	8	5	1360689	5	3	3	1	0	810	1	4	0	216	5	0	0	6
fixed	7	8	6	1361825	6	4	4	1	0	641	1	4	0	224	6	0	0	7
fixed	7	8	7	1363231	3	1	1	1	0	670	1	4	0	200	7	0	0	8
fixed	7	8	8	1364817	2	3	3	1	0	707	1	4	0	216	8	0	0	9
fixed	7	8	9	1366451	3	2	2	1	0	662	1	4	0	208	9	0	0	10
fixed	7	8	10	1368123	1	4	4	1	0	607	1	4	0	224	10	0	0	11
fixed	7	8	11	1369685	5	2	2	1	0	716	1	4	0	208	11	0	0	12
fixed	7	8	12	1371128	4	3	3	1	0	623	1	4	0	216	12	0	0	13
fixed	7	9	1	1372942	4	1	1	1	0	818	1	4	0	200	1	0	0	1
fixed	7	9	2	1374210	1	2	2	1	0	692	1	4	0	208	2	0	0	2
fixed	7	9	3	1375430	6	4	4	1	0	609	1	4	0	224	3	0	0	3
fixed	7	9	4	1376489	2	1	1	1	0	748	1	4	0	200	4	0	0	4
fixed	7	9	5	1378266	5	3	3	1	0	713	1	4	0	216	5	0	0	5
fixed	7	9	6	1379721	6	4	4	1	0	716	1	4	0	224	6	0	0	6
fixed	7	9	7	1381297	3	1	1	1	0	1312	1	4	0	200	7	0	0	7
fixed	7	9	8	1383343	2	3	3	1	0	954	1	4	0	216	8	0	0	8
fixed	7	9	9	1385135	3	2	2	1	0	598	1	4	0	208	9	0	0	9
fixed	7	9	10	1386445	1	4	4	1	0	598	1	4	0	224	10	0	0	9
fixed	7	9	11	1387794	5	2	2	1	0	1053	1	4	0	208	11	0	0	10
fixed	7	9	12	1389407	4	3	3	1	0	1017	1	4	0	216	12	0	0	11
fixed	7	10	1	1391454	4	1	1	1	0	762	1	4	0	200	1	0	0	1
fixed	7	10	2	1393253	1	2	2	1	0	814	1	4	0	208	2	0	0	2
fixed	7	10	3	1394808	6	4	4	1	0	669	1	4	0	224	3	0	0	3
fixed	7	10	4	1396291	2	1	1	1	0	918	1	4	0	200	4	0	0	4
fixed	7	10	5	1397841	5	3	3	1	0	844	1	4	0	216	5	0	0	4
fixed	7	10	6	1399261	6	4	4	1	0	736	1	4	0	224	6	0	0	5
fixed	7	10	7	1400305	3	1	1	1	0	820	1	4	0	200	7	0	0	6
fixed	7	10	8	1401988	2	3	3	1	0	732	1	4	0	216	8	0	0	7
fixed	7	10	9	1403196	3	2	2	1	0	665	1	4	0	208	9	0	0	8
fixed	7	10	10	1404786	1	4	4	1	0	597	1	4	0	224	10	0	0	8
fixed	7	10	11	1405992	5	2	2	1	0	747	1	4	0	208	11	0	0	9
fixed	7	10	12	1407564	4	3	3	1	0	800	1	4	0	216	12	0	0	10
