type	block	sequ.	trial	time	Pos.	Color	Button	NumRsp	Resp_1	RT_1	R_Code	Resp_2	RT_2	Trigg.	n_hit	n_inc	n_miss	score_%

random	1	1	1	30449	6	1	1	2	0	2012	2	4	0	8	1	0	0	100
random	1	1	2	33380	4	4	4	1	0	1856	1	4	0	32	2	0	0	100
random	1	1	3	36013	2	2	2	1	0	1417	1	4	0	16	3	0	0	100
random	1	1	4	38071	3	3	3	1	0	882	1	4	0	24	4	0	0	100
random	1	1	5	39809	5	2	0	1	2	0	3	4	0	16	4	0	1	80
random	1	1	6	42600	1	4	4	1	0	818	1	4	0	32	5	0	1	83
random	1	1	7	44152	6	1	1	1	0	904	1	4	0	8	6	0	1	86
random	1	1	8	45355	2	3	3	1	0	1861	1	4	0	24	7	0	1	88
random	1	1	9	47737	4	2	2	1	0	841	1	4	0	16	8	0	1	89
random	1	1	10	49201	1	1	1	1	0	802	1	4	0	8	9	0	1	90
random	1	1	11	50760	5	4	4	1	0	545	1	4	0	32	10	0	1	91
random	1	1	12	52044	3	3	3	1	0	1034	1	4	0	24	11	0	1	92
random	1	1	13	54075	5	2	2	1	0	668	1	4	0	16	12	0	1	92
random	1	1	14	55688	1	4	4	1	0	864	1	4	0	32	13	0	1	93
random	1	1	15	57470	3	1	1	1	0	756	1	4	0	8	14	0	1	93
random	1	1	16	58746	4	3	3	1	0	1038	1	4	0	24	15	0	1	94
random	1	1	17	60213	6	4	4	1	0	624	1	4	0	32	16	0	1	94
random	1	1	18	61865	2	1	1	1	0	714	1	4	0	8	17	0	1	94
random	1	1	19	63119	5	3	0	0	2	0	3	4	0	24	17	0	2	89
random	1	1	20	66627	2	2	2	1	0	888	1	4	0	16	18	0	2	90
random	1	1	21	68425	3	3	3	1	0	812	1	4	0	24	19	0	2	90
random	1	1	22	69738	6	1	1	1	0	829	1	4	0	8	20	0	2	91
random	1	1	23	70926	4	2	2	1	0	922	1	4	0	16	21	0	2	91
random	1	1	24	72885	1	4	4	1	0	647	1	4	0	32	22	0	2	92
random	1	1	25	74125	4	3	3	1	0	906	1	4	0	24	23	0	2	92
random	1	1	26	76014	2	1	1	1	0	682	1	4	0	8	24	0	2	92
random	1	1	27	77083	5	2	2	1	0	797	1	4	0	16	25	0	2	93
random	1	1	28	78539	6	4	4	1	0	600	1	4	0	32	26	0	2	93
random	1	1	29	80079	1	3	3	1	0	582	1	4	0	24	27	0	2	93
random	1	1	30	81533	5	2	0	1	2	0	3	4	0	16	27	0	3	90
random	1	1	31	84889	2	1	1	1	0	723	1	4	0	8	28	0	3	90
random	1	1	32	86083	3	3	3	1	0	680	1	4	0	24	29	0	3	91
random	1	1	33	87177	6	4	4	1	0	906	1	4	0	32	30	0	3	91
random	1	1	34	88818	4	2	0	1	2	0	3	4	0	16	30	0	4	88
random	1	1	35	91623	3	4	4	1	0	742	1	4	0	32	31	0	4	89
random	1	1	36	93145	1	1	1	1	0	725	1	4	0	8	32	0	4	89
random	1	1	37	94509	3	4	4	1	0	1803	1	4	0	32	33	0	4	89
random	1	1	38	97338	5	3	3	1	0	1028	1	4	0	24	34	0	4	89
random	1	1	39	98945	6	1	1	1	0	744	1	4	0	8	35	0	4	90
random	1	1	40	100328	1	2	2	1	0	981	1	4	0	16	36	0	4	90
random	1	1	41	101775	2	3	3	1	0	791	1	4	0	24	37	0	4	90
random	1	1	42	103175	4	4	4	1	0	605	1	4	0	32	38	0	4	90
random	1	1	43	104169	1	2	2	1	0	1026	1	4	0	16	39	0	4	91
random	1	1	44	105595	6	3	3	1	0	470	1	4	0	24	40	0	4	91
random	1	1	45	106654	3	1	1	1	0	545	1	4	0	8	41	0	4	91
random	1	1	46	108156	4	4	4	1	0	714	1	4	0	32	42	0	4	91
random	1	1	47	109369	2	2	2	1	0	790	1	4	0	16	43	0	4	91
random	1	1	48	110744	5	1	1	1	0	796	1	4	0	8	44	0	4	92
random	1	1	49	112102	2	3	3	1	0	954	1	4	0	24	45	0	4	92
random	1	1	50	113643	3	1	1	1	0	721	1	4	0	8	46	0	4	92
random	1	1	51	115212	1	4	4	1	0	558	1	4	0	32	47	0	4	92
random	1	1	52	116699	5	3	3	1	0	943	1	4	0	24	48	0	4	92
random	1	1	53	118203	3	2	2	1	0	1072	1	4	0	16	49	0	4	92
random	1	1	54	120233	6	4	4	1	0	490	1	4	0	32	50	0	4	93
random	1	1	55	121663	4	2	2	1	0	1245	1	4	0	16	51	0	4	93
random	1	1	56	123833	1	1	1	1	0	705	1	4	0	8	52	0	4	93
random	1	1	57	124912	5	4	4	1	0	604	1	4	0	32	53	0	4	93
random	1	1	58	126189	2	1	1	1	0	821	1	4	0	8	54	0	4	93
random	1	1	59	127822	6	2	2	1	0	832	1	4	0	16	55	0	4	93
random	1	1	60	129527	4	3	3	1	0	712	1	4	0	24	56	0	4	93
random	1	1	61	131416	1	2	2	1	0	968	1	4	0	16	57	0	4	93
random	1	1	62	132853	6	4	4	1	0	635	1	4	0	32	58	0	4	94
random	1	1	63	134105	4	1	1	1	0	774	1	4	0	8	59	0	4	94
random	1	1	64	135727	2	2	2	1	0	865	1	4	0	16	60	0	4	94
random	1	1	65	137184	4	3	3	1	0	932	1	4	0	24	61	0	4	94
random	1	1	66	139059	3	1	1	1	0	620	1	4	0	8	62	0	4	94
random	1	1	67	140320	1	3	3	1	0	911	1	4	0	24	63	0	4	94
random	1	1	68	141708	5	4	4	1	0	724	1	4	0	32	64	0	4	94
random	1	1	69	143374	2	2	2	1	0	878	1	4	0	16	65	0	4	94
random	1	1	70	145159	3	1	1	1	0	650	1	4	0	8	66	0	4	94
random	1	1	71	146139	5	4	4	1	0	824	1	4	0	32	67	0	4	94
random	1	1	72	147609	6	3	3	2	0	1074	2	4	0	24	68	0	4	94
random	1	1	73	149327	2	1	1	1	0	873	1	4	0	8	69	0	4	95
random	1	1	74	150827	5	3	3	1	0	1266	1	4	0	24	70	0	4	95
random	1	1	75	152474	1	4	4	1	0	684	1	4	0	32	71	0	4	95
random	1	1	76	154038	6	2	2	1	0	858	1	4	0	16	72	0	4	95
random	1	1	77	155319	2	1	1	1	0	700	1	4	0	8	73	0	4	95
random	1	1	78	156989	4	4	4	1	0	661	1	4	0	32	74	0	4	95
random	1	1	79	158329	3	2	2	1	0	788	1	4	0	16	75	0	4	95
random	1	1	80	159924	4	3	3	1	0	985	1	4	0	24	76	0	4	95
random	1	1	81	161627	1	4	4	1	0	696	1	4	0	32	77	0	4	95
random	1	1	82	163243	5	1	1	1	0	684	1	4	0	8	78	0	4	95
random	1	1	83	164281	3	2	2	1	0	792	1	4	0	16	79	0	4	95
random	1	1	84	165451	6	3	3	1	0	822	1	4	0	24	80	0	4	95
random	1	1	85	167521	3	2	2	1	0	999	1	4	0	16	81	0	4	95
random	1	1	86	169192	1	3	3	1	0	1024	1	4	0	24	82	0	4	95
random	1	1	87	171034	4	4	4	1	0	946	1	4	0	32	83	0	4	95
random	1	1	88	172890	2	1	1	1	0	516	1	4	0	8	84	0	4	95
random	1	1	89	174058	6	4	4	1	0	906	1	4	0	32	85	0	4	96
random	1	1	90	175592	3	3	3	1	0	1105	1	4	0	24	86	0	4	96
random	1	1	91	177213	5	4	4	1	0	1028	1	4	0	32	87	0	4	96
random	1	1	92	179133	1	2	2	1	0	627	1	4	0	16	88	0	4	96
random	1	1	93	180210	5	1	1	1	0	661	1	4	0	8	89	0	4	96
random	1	1	94	181714	4	3	3	1	0	1254	1	4	0	24	90	0	4	96
random	1	1	95	183953	6	1	1	1	0	751	1	4	0	8	91	0	4	96
random	1	1	96	185464	2	2	2	1	0	919	1	4	0	16	92	0	4	96
random	1	1	97	187286	4	3	3	1	0	1113	1	4	0	24	93	0	4	96
random	1	1	98	189384	3	2	2	1	0	817	1	4	0	16	94	0	4	96
random	1	1	99	190894	6	3	3	1	0	825	1	4	0	24	95	0	4	96
random	1	1	100	192123	1	4	4	1	0	789	1	4	0	32	96	0	4	96
random	1	1	101	193315	4	1	1	1	0	530	1	4	0	8	97	0	4	96
random	1	1	102	194753	5	2	2	1	0	869	1	4	0	16	98	0	4	96
random	1	1	103	196415	2	4	4	1	0	695	1	4	0	32	99	0	4	96
random	1	1	104	197562	3	1	1	1	0	694	1	4	0	8	100	0	4	96
random	1	1	105	198977	1	3	3	1	0	1019	1	4	0	24	101	0	4	96
random	1	1	106	200391	2	2	2	1	0	623	1	4	0	16	102	0	4	96
random	1	1	107	201754	5	4	4	1	0	741	1	4	0	32	103	0	4	96
random	1	1	108	202840	6	1	1	1	0	503	1	4	0	8	104	0	4	96
random	1	1	109	204195	5	4	4	1	0	725	1	4	0	32	105	0	4	96
random	1	1	110	205564	6	3	3	1	0	971	1	4	0	24	106	0	4	96
random	1	1	111	206958	2	2	2	1	0	585	1	4	0	16	107	0	4	96
random	1	1	112	208156	3	1	1	1	0	494	1	4	0	8	108	0	4	96
random	1	1	113	209460	1	2	2	1	0	966	1	4	0	16	109	0	4	96
random	1	1	114	211155	2	3	3	1	0	351	1	4	0	24	110	0	4	96
random	1	1	115	212264	3	1	1	1	0	616	1	4	0	8	111	0	4	97
random	1	1	116	213859	4	4	4	1	0	636	1	4	0	32	112	0	4	97
random	1	1	117	215024	6	1	1	1	0	723	1	4	0	8	113	0	4	97
random	1	1	118	216465	5	3	3	1	0	718	1	4	0	24	114	0	4	97
random	1	1	119	217530	1	4	4	1	0	809	1	4	0	32	115	0	4	97
random	1	1	120	218741	4	2	2	1	0	918	1	4	0	16	116	0	4	97
fixed	2	1	1	221101	4	1	1	1	0	961	1	4	0	40	1	0	0	100
fixed	2	1	2	222921	1	2	2	1	0	868	1	4	0	48	2	0	0	100
fixed	2	1	3	224480	6	4	4	1	0	674	1	4	0	64	3	0	0	100
fixed	2	1	4	226147	2	1	1	1	0	795	1	4	0	40	4	0	0	100
fixed	2	1	5	227829	5	3	3	1	0	661	1	4	0	56	5	0	0	100
fixed	2	1	6	228823	6	4	4	1	0	650	1	4	0	64	6	0	0	100
fixed	2	1	7	229936	3	1	1	1	0	732	1	4	0	40	7	0	0	100
fixed	2	1	8	231193	2	3	3	1	0	1086	1	4	0	56	8	0	0	100
fixed	2	1	9	233143	3	2	2	1	0	556	1	4	0	48	9	0	0	100
fixed	2	1	10	234650	1	4	4	1	0	700	1	4	0	64	10	0	0	100
fixed	2	1	11	236110	5	2	2	1	0	846	1	4	0	48	11	0	0	100
fixed	2	1	12	237627	4	3	3	1	0	653	1	4	0	56	12	0	0	100
fixed	2	2	1	239231	4	1	1	1	0	633	1	4	0	40	13	0	0	100
fixed	2	2	2	240312	1	2	2	1	0	884	1	4	0	48	14	0	0	100
fixed	2	2	3	241568	6	4	4	1	0	710	1	4	0	64	15	0	0	100
fixed	2	2	4	242780	2	1	1	1	0	539	1	4	0	40	16	0	0	100
fixed	2	2	5	243745	5	3	3	1	0	738	1	4	0	56	17	0	0	100
fixed	2	2	6	245316	6	4	4	1	0	672	1	4	0	64	18	0	0	100
fixed	2	2	7	246777	3	1	1	1	0	642	1	4	0	40	19	0	0	100
fixed	2	2	8	248434	2	3	3	1	0	739	1	4	0	56	20	0	0	100
fixed	2	2	9	249916	3	2	2	1	0	581	1	4	0	48	21	0	0	100
fixed	2	2	10	251511	1	4	4	1	0	649	1	4	0	64	22	0	0	100
fixed	2	2	11	252477	5	2	0	1	2	0	3	4	0	48	22	0	1	96
fixed	2	2	12	255435	4	3	3	1	0	707	1	4	0	56	23	0	1	96
fixed	2	3	1	257442	4	1	1	1	0	910	1	4	0	40	24	0	1	96
fixed	2	3	2	258937	1	2	2	1	0	1415	1	4	0	48	25	0	1	96
fixed	2	3	3	260955	6	4	4	1	0	601	1	4	0	64	26	0	1	96
fixed	2	3	4	262578	2	1	1	1	0	621	1	4	0	40	27	0	1	96
fixed	2	3	5	264165	5	3	3	1	0	634	1	4	0	56	28	0	1	97
fixed	2	3	6	265511	6	4	4	1	0	664	1	4	0	64	29	0	1	97
fixed	2	3	7	266826	3	1	1	1	0	769	1	4	0	40	30	0	1	97
fixed	2	3	8	267965	2	3	3	1	0	1048	1	4	0	56	31	0	1	97
fixed	2	3	9	269511	3	2	2	1	0	527	1	4	0	48	32	0	1	97
fixed	2	3	10	270996	1	4	4	1	0	488	1	4	0	64	33	0	1	97
fixed	2	3	11	272441	5	2	2	2	0	1651	2	4	0	48	34	0	1	97
fixed	2	3	12	274895	4	3	3	1	0	835	1	4	0	56	35	0	1	97
fixed	2	4	1	276840	4	1	1	1	0	832	1	4	0	40	36	0	1	97
fixed	2	4	2	278068	1	2	2	1	0	933	1	4	0	48	37	0	1	97
fixed	2	4	3	279960	6	4	4	1	0	757	1	4	0	64	38	0	1	97
fixed	2	4	4	281080	2	1	1	1	0	757	1	4	0	40	39	0	1	98
fixed	2	4	5	282633	5	3	3	1	0	724	1	4	0	56	40	0	1	98
fixed	2	4	6	283776	6	4	4	1	0	683	1	4	0	64	41	0	1	98
fixed	2	4	7	285296	3	1	1	1	0	666	1	4	0	40	42	0	1	98
fixed	2	4	8	286706	2	3	0	1	2	0	3	4	0	56	42	0	2	95
fixed	2	4	9	289984	3	2	2	1	0	732	1	4	0	48	43	0	2	96
fixed	2	4	10	291082	1	4	4	1	0	845	1	4	0	64	44	0	2	96
fixed	2	4	11	292927	5	2	2	1	0	1143	1	4	0	48	45	0	2	96
fixed	2	4	12	294680	4	3	3	1	0	885	1	4	0	56	46	0	2	96
fixed	2	5	1	296404	4	1	1	1	0	676	1	4	0	40	47	0	2	96
fixed	2	5	2	298102	1	2	2	1	0	812	1	4	0	48	48	0	2	96
fixed	2	5	3	299648	6	4	4	1	0	586	1	4	0	64	49	0	2	96
fixed	2	5	4	300963	2	1	1	1	0	1107	1	4	0	40	50	0	2	96
fixed	2	5	5	303009	5	3	3	1	0	1188	1	4	0	56	51	0	2	96
fixed	2	5	6	305196	6	4	4	1	0	688	1	4	0	64	52	0	2	96
fixed	2	5	7	306222	3	1	1	1	0	756	1	4	0	40	53	0	2	96
fixed	2	5	8	307336	2	3	3	1	0	797	1	4	0	56	54	0	2	96
fixed	2	5	9	308992	3	2	2	1	0	831	1	4	0	48	55	0	2	96
fixed	2	5	10	310707	1	4	4	1	0	710	1	4	0	64	56	0	2	97
fixed	2	5	11	311996	5	2	2	1	0	863	1	4	0	48	57	0	2	97
fixed	2	5	12	313395	4	3	3	1	0	700	1	4	0	56	58	0	2	97
fixed	2	6	1	315368	4	1	1	1	0	729	1	4	0	40	59	0	2	97
fixed	2	6	2	316740	1	2	2	1	0	839	1	4	0	48	60	0	2	97
fixed	2	6	3	317899	6	4	4	1	0	750	1	4	0	64	61	0	2	97
fixed	2	6	4	319060	2	1	1	1	0	748	1	4	0	40	62	0	2	97
fixed	2	6	5	320237	5	3	3	1	0	987	1	4	0	56	63	0	2	97
fixed	2	6	6	322079	6	4	4	1	0	909	1	4	0	64	64	0	2	97
fixed	2	6	7	323274	3	1	1	1	0	602	1	4	0	40	65	0	2	97
fixed	2	6	8	324624	2	3	3	1	0	704	1	4	0	56	66	0	2	97
fixed	2	6	9	325719	3	2	2	1	0	522	1	4	0	48	67	0	2	97
fixed	2	6	10	326810	1	4	4	1	0	756	1	4	0	64	68	0	2	97
fixed	2	6	11	328432	5	2	2	2	0	1759	2	4	0	48	69	0	2	97
fixed	2	6	12	331081	4	3	3	1	0	703	1	4	0	56	70	0	2	97
fixed	2	7	1	332927	4	1	1	1	0	713	1	4	0	40	71	0	2	97
fixed	2	7	2	334117	1	2	2	1	0	847	1	4	0	48	72	0	2	97
fixed	2	7	3	335895	6	4	4	1	0	540	1	4	0	64	73	0	2	97
fixed	2	7	4	337059	2	1	1	1	0	1242	1	4	0	40	74	0	2	97
fixed	2	7	5	339239	5	3	3	1	0	822	1	4	0	56	75	0	2	97
fixed	2	7	6	340471	6	4	4	1	0	1154	1	4	0	64	76	0	2	97
fixed	2	7	7	342345	3	1	1	1	0	754	1	4	0	40	77	0	2	97
fixed	2	7	8	343685	2	3	3	1	0	785	1	4	0	56	78	0	2	98
fixed	2	7	9	345304	3	2	2	1	0	581	1	4	0	48	79	0	2	98
fixed	2	7	10	346509	1	4	4	1	0	721	1	4	0	64	80	0	2	98
fixed	2	7	11	347866	5	2	2	1	0	976	1	4	0	48	81	0	2	98
fixed	2	7	12	349583	4	3	3	1	0	1791	1	4	0	56	82	0	2	98
fixed	2	8	1	352225	4	1	1	1	0	791	1	4	0	40	83	0	2	98
fixed	2	8	2	353998	1	2	2	1	0	1308	1	4	0	48	84	0	2	98
fixed	2	8	3	356039	6	4	4	1	0	726	1	4	0	64	85	0	2	98
fixed	2	8	4	357611	2	1	1	1	0	812	1	4	0	40	86	0	2	98
fixed	2	8	5	359415	5	3	3	1	0	895	1	4	0	56	87	0	2	98
fixed	2	8	6	360657	6	4	4	1	0	843	1	4	0	64	88	0	2	98
fixed	2	8	7	361891	3	1	1	1	0	726	1	4	0	40	89	0	2	98
fixed	2	8	8	363080	2	3	3	1	0	708	1	4	0	56	90	0	2	98
fixed	2	8	9	364257	3	2	2	1	0	570	1	4	0	48	91	0	2	98
fixed	2	8	10	365841	1	4	4	1	0	575	1	4	0	64	92	0	2	98
fixed	2	8	11	367144	5	2	0	1	2	0	3	4	0	48	92	0	3	97
fixed	2	8	12	370685	4	3	3	1	0	777	1	4	0	56	93	0	3	97
fixed	2	9	1	372758	4	1	1	1	0	850	1	4	0	40	94	0	3	97
fixed	2	9	2	373980	1	2	2	1	0	966	1	4	0	48	95	0	3	97
fixed	2	9	3	375282	6	4	4	1	0	1103	1	4	0	64	96	0	3	97
fixed	2	9	4	376887	2	1	1	1	0	843	1	4	0	40	97	0	3	97
fixed	2	9	5	378707	5	3	3	1	0	1166	1	4	0	56	98	0	3	97
fixed	2	9	6	380276	6	4	4	1	0	723	1	4	0	64	99	0	3	97
fixed	2	9	7	381615	3	1	1	1	0	667	1	4	0	40	100	0	3	97
fixed	2	9	8	383097	2	3	3	1	0	804	1	4	0	56	101	0	3	97
fixed	2	9	9	384719	3	2	2	1	0	847	1	4	0	48	102	0	3	97
fixed	2	9	10	386381	1	4	4	1	0	761	1	4	0	64	103	0	3	97
fixed	2	9	11	387652	5	2	2	1	0	1579	1	4	0	48	104	0	3	97
fixed	2	9	12	389936	4	3	3	2	0	1386	2	4	0	56	105	0	3	97
fixed	2	10	1	392540	4	1	1	1	0	740	1	4	0	40	106	0	3	97
fixed	2	10	2	393931	1	2	2	1	0	1377	1	4	0	48	107	0	3	97
fixed	2	10	3	396025	6	4	4	1	0	769	1	4	0	64	108	0	3	97
fixed	2	10	4	397086	2	1	1	1	0	939	1	4	0	40	109	0	3	97
fixed	2	10	5	399061	5	3	3	1	0	624	1	4	0	56	110	0	3	97
fixed	2	10	6	400126	6	4	4	1	0	1019	1	4	0	64	111	0	3	97
fixed	2	10	7	401706	3	1	1	1	0	912	1	4	0	40	112	0	3	97
fixed	2	10	8	403552	2	3	3	1	0	1537	1	4	0	56	113	0	3	97
fixed	2	10	9	406056	3	2	2	1	0	663	1	4	0	48	114	0	3	97
fixed	2	10	10	407217	1	4	4	1	0	735	1	4	0	64	115	0	3	97
fixed	2	10	11	408392	5	2	0	1	2	0	3	4	0	48	115	0	4	97
fixed	2	10	12	411535	4	3	3	1	0	1647	1	4	0	56	116	0	4	97
fixed	3	1	1	414007	4	1	1	1	0	646	1	4	0	72	1	0	0	100
fixed	3	1	2	415063	1	2	2	1	0	1130	1	4	0	80	2	0	0	100
fixed	3	1	3	416702	6	4	4	1	0	821	1	4	0	96	3	0	0	100
fixed	3	1	4	417952	2	1	1	1	0	1375	1	4	0	72	4	0	0	100
fixed	3	1	5	420169	5	3	3	1	0	762	1	4	0	88	5	0	0	100
fixed	3	1	6	421628	6	4	4	1	0	724	1	4	0	96	6	0	0	100
fixed	3	1	7	422996	3	1	1	1	0	882	1	4	0	72	7	0	0	100
fixed	3	1	8	424336	2	3	3	1	0	1041	1	4	0	88	8	0	0	100
fixed	3	1	9	425737	3	2	2	1	0	662	1	4	0	80	9	0	0	100
fixed	3	1	10	427396	1	4	4	1	0	592	1	4	0	96	10	0	0	100
fixed	3	1	11	429026	5	2	2	1	0	971	1	4	0	80	11	0	0	100
fixed	3	1	12	430856	4	3	3	1	0	485	1	4	0	88	12	0	0	100
fixed	3	2	1	432087	4	1	1	1	0	697	1	4	0	72	13	0	0	100
fixed	3	2	2	433077	1	2	2	1	0	855	1	4	0	80	14	0	0	100
fixed	3	2	3	434817	6	4	4	1	0	541	1	4	0	96	15	0	0	100
fixed	3	2	4	436238	2	1	1	1	0	977	1	4	0	72	16	0	0	100
fixed	3	2	5	438032	5	3	3	1	0	814	1	4	0	88	17	0	0	100
fixed	3	2	6	439632	6	4	4	1	0	730	1	4	0	96	18	0	0	100
fixed	3	2	7	440864	3	1	1	1	0	765	1	4	0	72	19	0	0	100
fixed	3	2	8	442437	2	3	3	1	0	867	1	4	0	88	20	0	0	100
fixed	3	2	9	444294	3	2	2	1	0	500	1	4	0	80	21	0	0	100
fixed	3	2	10	445229	1	4	4	1	0	621	1	4	0	96	22	0	0	100
fixed	3	2	11	446301	5	2	0	1	2	0	3	4	0	80	22	0	1	96
fixed	3	2	12	449665	4	3	3	1	0	952	1	4	0	88	23	0	1	96
fixed	3	3	1	451635	4	1	1	1	0	709	1	4	0	72	24	0	1	96
fixed	3	3	2	452642	1	2	2	1	0	922	1	4	0	80	25	0	1	96
fixed	3	3	3	454084	6	4	4	1	0	630	1	4	0	96	26	0	1	96
fixed	3	3	4	455111	2	1	1	1	0	722	1	4	0	72	27	0	1	96
fixed	3	3	5	456184	5	3	3	1	0	812	1	4	0	88	28	0	1	97
fixed	3	3	6	457381	6	4	4	1	0	793	1	4	0	96	29	0	1	97
fixed	3	3	7	459073	3	1	1	1	0	826	1	4	0	72	30	0	1	97
fixed	3	3	8	460514	2	3	3	1	0	829	1	4	0	88	31	0	1	97
fixed	3	3	9	462193	3	2	2	1	0	822	1	4	0	80	32	0	1	97
fixed	3	3	10	463523	1	4	4	1	0	590	1	4	0	96	33	0	1	97
fixed	3	3	11	464838	5	2	2	1	0	1982	1	4	0	80	34	0	1	97
fixed	3	3	12	467207	4	3	3	1	0	713	1	4	0	88	35	0	1	97
fixed	3	4	1	468978	4	1	1	1	0	702	1	4	0	72	36	0	1	97
fixed	3	4	2	470058	1	2	2	1	0	1129	1	4	0	80	37	0	1	97
fixed	3	4	3	471821	6	4	4	1	0	750	1	4	0	96	38	0	1	97
fixed	3	4	4	473047	2	1	1	1	0	946	1	4	0	72	39	0	1	98
fixed	3	4	5	474331	5	3	3	1	0	948	1	4	0	88	40	0	1	98
fixed	3	4	6	475963	6	4	4	1	0	774	1	4	0	96	41	0	1	98
fixed	3	4	7	477750	3	1	1	1	0	667	1	4	0	72	42	0	1	98
fixed	3	4	8	478914	2	3	3	1	0	874	1	4	0	88	43	0	1	98
fixed	3	4	9	480257	3	2	2	1	0	937	1	4	0	80	44	0	1	98
fixed	3	4	10	481746	1	4	4	1	0	754	1	4	0	96	45	0	1	98
fixed	3	4	11	483333	5	2	2	1	0	614	1	4	0	80	46	0	1	98
fixed	3	4	12	484252	4	3	3	1	0	807	1	4	0	88	47	0	1	98
fixed	3	5	1	485752	4	1	1	1	0	712	1	4	0	72	48	0	1	98
fixed	3	5	2	487129	1	2	2	1	0	1022	1	4	0	80	49	0	1	98
fixed	3	5	3	488931	6	4	4	1	0	641	1	4	0	96	50	0	1	98
fixed	3	5	4	490291	2	1	1	1	0	992	1	4	0	72	51	0	1	98
fixed	3	5	5	491842	5	3	3	1	0	830	1	4	0	88	52	0	1	98
fixed	3	5	6	493591	6	4	4	1	0	948	1	4	0	96	53	0	1	98
fixed	3	5	7	495084	3	1	1	1	0	781	1	4	0	72	54	0	1	98
fixed	3	5	8	496466	2	3	3	1	0	954	1	4	0	88	55	0	1	98
fixed	3	5	9	498410	3	2	2	1	0	504	1	4	0	80	56	0	1	98
fixed	3	5	10	499950	1	4	4	1	0	655	1	4	0	96	57	0	1	98
fixed	3	5	11	500994	5	2	2	1	0	794	1	4	0	80	58	0	1	98
fixed	3	5	12	502533	4	3	3	1	0	737	1	4	0	88	59	0	1	98
fixed	3	6	1	504231	4	1	1	1	0	721	1	4	0	72	60	0	1	98
fixed	3	6	2	505336	1	2	2	1	0	1394	1	4	0	80	61	0	1	98
fixed	3	6	3	507556	6	4	4	1	0	860	1	4	0	96	62	0	1	98
fixed	3	6	4	508944	2	1	1	1	0	746	1	4	0	72	63	0	1	98
fixed	3	6	5	510488	5	3	3	1	0	888	1	4	0	88	64	0	1	98
fixed	3	6	6	511808	6	4	4	1	0	801	1	4	0	96	65	0	1	98
fixed	3	6	7	513270	3	1	1	1	0	658	1	4	0	72	66	0	1	99
fixed	3	6	8	514687	2	3	3	1	0	654	1	4	0	88	67	0	1	99
fixed	3	6	9	515763	3	2	2	1	0	649	1	4	0	80	68	0	1	99
fixed	3	6	10	517445	1	4	4	1	0	1097	1	4	0	96	69	0	1	99
fixed	3	6	11	519326	5	2	2	1	0	1050	1	4	0	80	70	0	1	99
fixed	3	6	12	521210	4	3	3	1	0	1042	1	4	0	88	71	0	1	99
fixed	3	7	1	523411	4	1	1	1	0	661	1	4	0	72	72	0	1	99
fixed	3	7	2	524806	1	2	2	1	0	802	1	4	0	80	73	0	1	99
fixed	3	7	3	526238	6	4	4	1	0	645	1	4	0	96	74	0	1	99
fixed	3	7	4	527921	2	1	1	1	0	854	1	4	0	72	75	0	1	99
fixed	3	7	5	529621	5	3	3	1	0	878	1	4	0	88	76	0	1	99
fixed	3	7	6	531486	6	4	4	1	0	695	1	4	0	96	77	0	1	99
fixed	3	7	7	532619	3	1	1	1	0	767	1	4	0	72	78	0	1	99
fixed	3	7	8	533758	2	3	3	1	0	959	1	4	0	88	79	0	1	99
fixed	3	7	9	535687	3	2	2	1	0	669	1	4	0	80	80	0	1	99
fixed	3	7	10	537319	1	4	4	1	0	712	1	4	0	96	81	0	1	99
fixed	3	7	11	538430	5	2	2	1	0	1177	1	4	0	80	82	0	1	99
fixed	3	7	12	540619	4	3	3	1	0	844	1	4	0	88	83	0	1	99
fixed	3	8	1	542659	4	1	1	1	0	701	1	4	0	72	84	0	1	99
fixed	3	8	2	544025	1	2	2	1	0	972	1	4	0	80	85	0	1	99
fixed	3	8	3	545754	6	4	4	1	0	739	1	4	0	96	86	0	1	99
fixed	3	8	4	546930	2	1	1	1	0	1449	1	4	0	72	87	0	1	99
fixed	3	8	5	548761	5	3	3	1	0	851	1	4	0	88	88	0	1	99
fixed	3	8	6	550471	6	4	4	1	0	691	1	4	0	96	89	0	1	99
fixed	3	8	7	552051	3	1	1	1	0	704	1	4	0	72	90	0	1	99
fixed	3	8	8	553395	2	3	3	1	0	879	1	4	0	88	91	0	1	99
fixed	3	8	9	554692	3	2	2	1	0	520	1	4	0	80	92	0	1	99
fixed	3	8	10	555799	1	4	4	1	0	673	1	4	0	96	93	0	1	99
fixed	3	8	11	557386	5	2	2	1	0	910	1	4	0	80	94	0	1	99
fixed	3	8	12	559009	4	3	3	1	0	833	1	4	0	88	95	0	1	99
fixed	3	9	1	560853	4	1	1	1	0	611	1	4	0	72	96	0	1	99
fixed	3	9	2	562504	1	2	2	1	0	1325	1	4	0	80	97	0	1	99
fixed	3	9	3	564442	6	4	4	1	0	651	1	4	0	96	98	0	1	99
fixed	3	9	4	565609	2	1	1	1	0	682	1	4	0	72	99	0	1	99
fixed	3	9	5	567303	5	3	3	1	0	802	1	4	0	88	100	0	1	99
fixed	3	9	6	568755	6	4	4	1	0	732	1	4	0	96	101	0	1	99
fixed	3	9	7	569881	3	1	1	1	0	717	1	4	0	72	102	0	1	99
fixed	3	9	8	571458	2	3	3	1	0	850	1	4	0	88	103	0	1	99
fixed	3	9	9	573027	3	2	2	1	0	568	1	4	0	80	104	0	1	99
fixed	3	9	10	574345	1	4	4	1	0	624	1	4	0	96	105	0	1	99
fixed	3	9	11	575648	5	2	2	1	0	993	1	4	0	80	106	0	1	99
fixed	3	9	12	577225	4	3	3	1	0	541	1	4	0	88	107	0	1	99
fixed	3	10	1	578714	4	1	1	1	0	974	1	4	0	72	108	0	1	99
fixed	3	10	2	580474	1	2	2	1	0	996	1	4	0	80	109	0	1	99
fixed	3	10	3	582480	6	4	4	1	0	639	1	4	0	96	110	0	1	99
fixed	3	10	4	583812	2	1	1	1	0	759	1	4	0	72	111	0	1	99
fixed	3	10	5	585533	5	3	3	1	0	806	1	4	0	88	112	0	1	99
fixed	3	10	6	586800	6	4	4	1	0	840	1	4	0	96	113	0	1	99
fixed	3	10	7	588564	3	1	1	1	0	750	1	4	0	72	114	0	1	99
fixed	3	10	8	589900	2	3	3	1	0	925	1	4	0	88	115	0	1	99
fixed	3	10	9	591643	3	2	2	1	0	491	1	4	0	80	116	0	1	99
fixed	3	10	10	592676	1	4	4	1	0	711	1	4	0	96	117	0	1	99
fixed	3	10	11	594001	5	2	0	1	2	0	3	4	0	80	117	0	2	98
fixed	3	10	12	597321	4	3	3	1	0	1931	1	4	0	88	118	0	2	98
fixed	4	1	1	702682	4	1	1	1	0	884	1	4	0	104	1	0	0	100
fixed	4	1	2	704134	1	2	2	1	0	831	1	4	0	112	2	0	0	100
fixed	4	1	3	705411	6	4	4	1	0	576	1	4	0	128	3	0	0	100
fixed	4	1	4	706360	2	1	1	1	0	584	1	4	0	104	4	0	0	100
fixed	4	1	5	707950	5	3	3	1	0	661	1	4	0	120	5	0	0	100
fixed	4	1	6	709190	6	4	4	1	0	648	1	4	0	128	6	0	0	100
fixed	4	1	7	710606	3	1	1	1	0	540	1	4	0	104	7	0	0	100
fixed	4	1	8	711680	2	3	3	1	0	847	1	4	0	120	8	0	0	100
fixed	4	1	9	713037	3	2	2	1	0	573	1	4	0	112	9	0	0	100
fixed	4	1	10	713999	1	4	4	1	0	749	1	4	0	128	10	0	0	100
fixed	4	1	11	715375	5	2	2	2	0	938	2	4	0	112	11	0	0	100
fixed	4	1	12	716755	4	3	3	1	0	712	1	4	0	120	12	0	0	100
fixed	4	2	1	718406	4	1	1	1	0	762	1	4	0	104	13	0	0	100
fixed	4	2	2	720126	1	2	2	1	0	913	1	4	0	112	14	0	0	100
fixed	4	2	3	721857	6	4	4	1	0	632	1	4	0	128	15	0	0	100
fixed	4	2	4	723440	2	1	1	1	0	661	1	4	0	104	16	0	0	100
fixed	4	2	5	724992	5	3	3	1	0	1067	1	4	0	120	17	0	0	100
fixed	4	2	6	726384	6	4	4	1	0	704	1	4	0	128	18	0	0	100
fixed	4	2	7	727902	3	1	1	1	0	528	1	4	0	104	19	0	0	100
fixed	4	2	8	729085	2	3	3	1	0	725	1	4	0	120	20	0	0	100
fixed	4	2	9	730646	3	2	2	1	0	468	1	4	0	112	21	0	0	100
fixed	4	2	10	732106	1	4	4	1	0	685	1	4	0	128	22	0	0	100
fixed	4	2	11	733248	5	2	2	1	0	853	1	4	0	112	23	0	0	100
fixed	4	2	12	734587	4	3	3	1	0	629	1	4	0	120	24	0	0	100
fixed	4	3	1	735883	4	1	1	1	0	869	1	4	0	104	25	0	0	100
fixed	4	3	2	737426	1	2	2	1	0	980	1	4	0	112	26	0	0	100
fixed	4	3	3	738789	6	4	4	1	0	650	1	4	0	128	27	0	0	100
fixed	4	3	4	740061	2	1	1	1	0	781	1	4	0	104	28	0	0	100
fixed	4	3	5	741819	5	3	3	2	0	778	2	4	0	120	29	0	0	100
fixed	4	3	6	742914	6	4	4	1	0	899	1	4	0	128	30	0	0	100
fixed	4	3	7	744468	3	1	1	1	0	698	1	4	0	104	31	0	0	100
fixed	4	3	8	745762	2	3	3	1	0	1043	1	4	0	120	32	0	0	100
fixed	4	3	9	747703	3	2	2	1	0	481	1	4	0	112	33	0	0	100
fixed	4	3	10	748576	1	4	4	1	0	836	1	4	0	128	34	0	0	100
fixed	4	3	11	749783	5	2	2	1	0	961	1	4	0	112	35	0	0	100
fixed	4	3	12	751407	4	3	3	1	0	804	1	4	0	120	36	0	0	100
fixed	4	4	1	753476	4	1	1	1	0	756	1	4	0	104	37	0	0	100
fixed	4	4	2	755235	1	2	2	1	0	898	1	4	0	112	38	0	0	100
fixed	4	4	3	757059	6	4	4	1	0	725	1	4	0	128	39	0	0	100
fixed	4	4	4	758177	2	1	1	1	0	765	1	4	0	104	40	0	0	100
fixed	4	4	5	759409	5	3	3	1	0	681	1	4	0	120	41	0	0	100
fixed	4	4	6	760585	6	4	4	1	0	751	1	4	0	128	42	0	0	100
fixed	4	4	7	761927	3	1	1	1	0	670	1	4	0	104	43	0	0	100
fixed	4	4	8	763102	2	3	3	1	0	765	1	4	0	120	44	0	0	100
fixed	4	4	9	764834	3	2	2	1	0	971	1	4	0	112	45	0	0	100
fixed	4	4	10	766353	1	4	4	1	0	747	1	4	0	128	46	0	0	100
fixed	4	4	11	768078	5	2	2	1	0	954	1	4	0	112	47	0	0	100
fixed	4	4	12	769570	4	3	3	1	0	923	1	4	0	120	48	0	0	100
fixed	4	5	1	771737	4	1	1	1	0	711	1	4	0	104	49	0	0	100
fixed	4	5	2	773379	1	2	2	1	0	1177	1	4	0	112	50	0	0	100
fixed	4	5	3	775307	6	4	4	1	0	656	1	4	0	128	51	0	0	100
fixed	4	5	4	776786	2	1	1	1	0	737	1	4	0	104	52	0	0	100
fixed	4	5	5	777994	5	3	3	1	0	582	1	4	0	120	53	0	0	100
fixed	4	5	6	779312	6	4	4	1	0	702	1	4	0	128	54	0	0	100
fixed	4	5	7	781012	3	1	1	1	0	630	1	4	0	104	55	0	0	100
fixed	4	5	8	781936	2	3	3	1	0	695	1	4	0	120	56	0	0	100
fixed	4	5	9	783061	3	2	2	1	0	792	1	4	0	112	57	0	0	100
fixed	4	5	10	784852	1	4	4	1	0	723	1	4	0	128	58	0	0	100
fixed	4	5	11	786375	5	2	2	1	0	779	1	4	0	112	59	0	0	100
fixed	4	5	12	787723	4	3	3	1	0	530	1	4	0	120	60	0	0	100
fixed	4	6	1	789097	4	1	1	1	0	808	1	4	0	104	61	0	0	100
fixed	4	6	2	790621	1	2	2	1	0	1047	1	4	0	112	62	0	0	100
fixed	4	6	3	792537	6	4	4	1	0	638	1	4	0	128	63	0	0	100
fixed	4	6	4	793740	2	1	1	1	0	627	1	4	0	104	64	0	0	100
fixed	4	6	5	794709	5	3	3	1	0	690	1	4	0	120	65	0	0	100
fixed	4	6	6	796237	6	4	4	1	0	705	1	4	0	128	66	0	0	100
fixed	4	6	7	797966	3	1	1	1	0	576	1	4	0	104	67	0	0	100
fixed	4	6	8	799497	2	3	3	1	0	831	1	4	0	120	68	0	0	100
fixed	4	6	9	800745	3	2	2	1	0	490	1	4	0	112	69	0	0	100
fixed	4	6	10	801859	1	4	4	1	0	699	1	4	0	128	70	0	0	100
fixed	4	6	11	803119	5	2	2	1	0	814	1	4	0	112	71	0	0	100
fixed	4	6	12	804443	4	3	3	1	0	734	1	4	0	120	72	0	0	100
fixed	4	7	1	806456	4	1	1	1	0	744	1	4	0	104	73	0	0	100
fixed	4	7	2	807629	1	2	2	1	0	887	1	4	0	112	74	0	0	100
fixed	4	7	3	808939	6	4	4	1	0	712	1	4	0	128	75	0	0	100
fixed	4	7	4	810074	2	1	0	0	2	0	3	4	0	104	75	0	1	99
fixed	4	7	5	813585	5	3	3	1	0	683	1	4	0	120	76	0	1	99
fixed	4	7	6	815075	6	4	4	1	0	699	1	4	0	128	77	0	1	99
fixed	4	7	7	816602	3	1	1	1	0	731	1	4	0	104	78	0	1	99
fixed	4	7	8	818278	2	3	3	1	0	724	1	4	0	120	79	0	1	99
fixed	4	7	9	819981	3	2	2	1	0	620	1	4	0	112	80	0	1	99
fixed	4	7	10	821182	1	4	4	1	0	641	1	4	0	128	81	0	1	99
fixed	4	7	11	822580	5	2	2	1	0	909	1	4	0	112	82	0	1	99
fixed	4	7	12	824471	4	3	3	1	0	605	1	4	0	120	83	0	1	99
fixed	4	8	1	826305	4	1	1	1	0	664	1	4	0	104	84	0	1	99
fixed	4	8	2	827881	1	2	0	1	2	0	3	4	0	112	84	0	2	98
fixed	4	8	3	831360	6	4	4	1	0	778	1	4	0	128	85	0	2	98
fixed	4	8	4	832665	2	1	1	1	0	915	1	4	0	104	86	0	2	98
fixed	4	8	5	834042	5	3	3	1	0	896	1	4	0	120	87	0	2	98
fixed	4	8	6	835768	6	4	4	1	0	623	1	4	0	128	88	0	2	98
fixed	4	8	7	836895	3	1	1	1	0	791	1	4	0	104	89	0	2	98
fixed	4	8	8	838663	2	3	3	1	0	693	1	4	0	120	90	0	2	98
fixed	4	8	9	840243	3	2	2	1	0	457	1	4	0	112	91	0	2	98
fixed	4	8	10	841077	1	4	4	1	0	702	1	4	0	128	92	0	2	98
fixed	4	8	11	842494	5	2	2	1	0	818	1	4	0	112	93	0	2	98
fixed	4	8	12	843763	4	3	3	1	0	804	1	4	0	120	94	0	2	98
fixed	4	9	1	845769	4	1	1	1	0	791	1	4	0	104	95	0	2	98
fixed	4	9	2	846973	1	2	2	1	0	844	1	4	0	112	96	0	2	98
fixed	4	9	3	848415	6	4	4	1	0	847	1	4	0	128	97	0	2	98
fixed	4	9	4	850149	2	1	1	1	0	790	1	4	0	104	98	0	2	98
fixed	4	9	5	851972	5	3	3	1	0	713	1	4	0	120	99	0	2	98
fixed	4	9	6	853024	6	4	4	1	0	756	1	4	0	128	100	0	2	98
fixed	4	9	7	854449	3	1	1	1	0	784	1	4	0	104	101	0	2	98
fixed	4	9	8	856139	2	3	3	1	0	712	1	4	0	120	102	0	2	98
fixed	4	9	9	857573	3	2	2	1	0	404	1	4	0	112	103	0	2	98
fixed	4	9	10	858471	1	4	4	1	0	749	1	4	0	128	104	0	2	98
fixed	4	9	11	859752	5	2	2	1	0	871	1	4	0	112	105	0	2	98
fixed	4	9	12	861671	4	3	3	1	0	742	1	4	0	120	106	0	2	98
fixed	4	10	1	863262	4	1	1	1	0	930	1	4	0	104	107	0	2	98
fixed	4	10	2	864782	1	2	2	1	0	786	1	4	0	112	108	0	2	98
fixed	4	10	3	866563	6	4	4	1	0	719	1	4	0	128	109	0	2	98
fixed	4	10	4	867620	2	1	1	1	0	962	1	4	0	104	110	0	2	98
fixed	4	10	5	869376	5	3	3	1	0	775	1	4	0	120	111	0	2	98
fixed	4	10	6	870502	6	4	4	1	0	800	1	4	0	128	112	0	2	98
fixed	4	10	7	871614	3	1	1	1	0	704	1	4	0	104	113	0	2	98
fixed	4	10	8	873363	2	3	3	1	0	679	1	4	0	120	114	0	2	98
fixed	4	10	9	874883	3	2	2	1	0	598	1	4	0	112	115	0	2	98
fixed	4	10	10	876297	1	4	4	1	0	786	1	4	0	128	116	0	2	98
fixed	4	10	11	877421	5	2	2	1	0	731	1	4	0	112	117	0	2	98
fixed	4	10	12	879124	4	3	3	1	0	451	1	4	0	120	118	0	2	98
fixed	5	1	1	880569	4	1	1	1	0	821	1	4	0	136	1	0	0	100
fixed	5	1	2	882245	1	2	2	1	0	870	1	4	0	144	2	0	0	100
fixed	5	1	3	883650	6	4	4	1	0	547	1	4	0	160	3	0	0	100
fixed	5	1	4	884635	2	1	1	1	0	673	1	4	0	136	4	0	0	100
fixed	5	1	5	885879	5	3	3	1	0	717	1	4	0	152	5	0	0	100
fixed	5	1	6	886890	6	4	4	1	0	834	1	4	0	160	6	0	0	100
fixed	5	1	7	888691	3	1	1	1	0	653	1	4	0	136	7	0	0	100
fixed	5	1	8	889758	2	3	3	2	0	1184	2	4	0	152	8	0	0	100
fixed	5	1	9	891528	3	2	2	1	0	1510	1	4	0	144	9	0	0	100
fixed	5	1	10	893888	1	4	4	1	0	801	1	4	0	160	10	0	0	100
fixed	5	1	11	895297	5	2	2	1	0	726	1	4	0	144	11	0	0	100
fixed	5	1	12	896943	4	3	3	1	0	912	1	4	0	152	12	0	0	100
fixed	5	2	1	899000	4	1	1	1	0	841	1	4	0	136	13	0	0	100
fixed	5	2	2	900326	1	2	2	1	0	1433	1	4	0	144	14	0	0	100
fixed	5	2	3	902079	6	4	4	1	0	742	1	4	0	160	15	0	0	100
fixed	5	2	4	903546	2	1	1	1	0	720	1	4	0	136	16	0	0	100
fixed	5	2	5	904737	5	3	3	1	0	670	1	4	0	152	17	0	0	100
fixed	5	2	6	906095	6	4	4	1	0	685	1	4	0	160	18	0	0	100
fixed	5	2	7	907190	3	1	1	1	0	734	1	4	0	136	19	0	0	100
fixed	5	2	8	908802	2	3	3	1	0	818	1	4	0	152	20	0	0	100
fixed	5	2	9	910073	3	2	2	1	0	660	1	4	0	144	21	0	0	100
fixed	5	2	10	911284	1	4	4	1	0	776	1	4	0	160	22	0	0	100
fixed	5	2	11	912417	5	2	2	1	0	792	1	4	0	144	23	0	0	100
fixed	5	2	12	914162	4	3	3	1	0	487	1	4	0	152	24	0	0	100
fixed	5	3	1	915874	4	1	1	1	0	726	1	4	0	136	25	0	0	100
fixed	5	3	2	917475	1	2	0	1	2	0	3	4	0	144	25	0	1	96
fixed	5	3	3	920734	6	4	4	1	0	688	1	4	0	160	26	0	1	96
fixed	5	3	4	921977	2	1	1	1	0	764	1	4	0	136	27	0	1	96
fixed	5	3	5	923561	5	3	3	1	0	704	1	4	0	152	28	0	1	97
fixed	5	3	6	924936	6	4	4	1	0	1134	1	4	0	160	29	0	1	97
fixed	5	3	7	926968	3	1	1	1	0	744	1	4	0	136	30	0	1	97
fixed	5	3	8	928285	2	3	3	1	0	1056	1	4	0	152	31	0	1	97
fixed	5	3	9	930106	3	2	2	1	0	627	1	4	0	144	32	0	1	97
fixed	5	3	10	931751	1	4	4	1	0	734	1	4	0	160	33	0	1	97
fixed	5	3	11	933489	5	2	2	1	0	932	1	4	0	144	34	0	1	97
fixed	5	3	12	935134	4	3	3	1	0	903	1	4	0	152	35	0	1	97
fixed	5	4	1	937143	4	1	1	1	0	777	1	4	0	136	36	0	1	97
fixed	5	4	2	938233	1	2	0	1	2	0	3	4	0	144	36	0	2	95
fixed	5	4	3	941383	6	4	4	1	0	958	1	4	0	160	37	0	2	95
fixed	5	4	4	943291	2	1	1	1	0	701	1	4	0	136	38	0	2	95
fixed	5	4	5	944309	5	3	3	1	0	825	1	4	0	152	39	0	2	95
fixed	5	4	6	945862	6	4	4	1	0	744	1	4	0	160	40	0	2	95
fixed	5	4	7	947016	3	1	1	1	0	639	1	4	0	136	41	0	2	95
fixed	5	4	8	948313	2	3	3	1	0	872	1	4	0	152	42	0	2	95
fixed	5	4	9	949831	3	2	2	1	0	608	1	4	0	144	43	0	2	96
fixed	5	4	10	951108	1	4	4	1	0	625	1	4	0	160	44	0	2	96
fixed	5	4	11	952521	5	2	2	1	0	774	1	4	0	144	45	0	2	96
fixed	5	4	12	954253	4	3	3	1	0	476	1	4	0	152	46	0	2	96
fixed	5	5	1	955505	4	1	1	1	0	655	1	4	0	136	47	0	2	96
fixed	5	5	2	956858	1	2	2	1	0	1150	1	4	0	144	48	0	2	96
fixed	5	5	3	958702	6	4	4	1	0	632	1	4	0	160	49	0	2	96
fixed	5	5	4	960078	2	1	1	1	0	974	1	4	0	136	50	0	2	96
fixed	5	5	5	961790	5	3	3	1	0	765	1	4	0	152	51	0	2	96
fixed	5	5	6	963234	6	4	4	1	0	656	1	4	0	160	52	0	2	96
fixed	5	5	7	964691	3	1	1	1	0	594	1	4	0	136	53	0	2	96
fixed	5	5	8	965863	2	3	3	1	0	696	1	4	0	152	54	0	2	96
fixed	5	5	9	967439	3	2	2	1	0	782	1	4	0	144	55	0	2	96
fixed	5	5	10	969189	1	4	4	1	0	716	1	4	0	160	56	0	2	97
fixed	5	5	11	970633	5	2	2	1	0	727	1	4	0	144	57	0	2	97
fixed	5	5	12	971683	4	3	3	1	0	522	1	4	0	152	58	0	2	97
fixed	5	6	1	973248	4	1	1	1	0	632	1	4	0	136	59	0	2	97
fixed	5	6	2	974204	1	2	2	1	0	871	1	4	0	144	60	0	2	97
fixed	5	6	3	976000	6	4	4	1	0	844	1	4	0	160	61	0	2	97
fixed	5	6	4	977209	2	1	1	1	0	696	1	4	0	136	62	0	2	97
fixed	5	6	5	978537	5	3	3	1	0	824	1	4	0	152	63	0	2	97
fixed	5	6	6	980094	6	4	4	1	0	718	1	4	0	160	64	0	2	97
fixed	5	6	7	981536	3	1	1	1	0	745	1	4	0	136	65	0	2	97
fixed	5	6	8	982693	2	3	3	1	0	848	1	4	0	152	66	0	2	97
fixed	5	6	9	984282	3	2	2	1	0	485	1	4	0	144	67	0	2	97
fixed	5	6	10	985389	1	4	4	1	0	694	1	4	0	160	68	0	2	97
fixed	5	6	11	986496	5	2	2	1	0	767	1	4	0	144	69	0	2	97
fixed	5	6	12	987845	4	3	3	1	0	590	1	4	0	152	70	0	2	97
fixed	5	7	1	989705	4	1	1	1	0	591	1	4	0	136	71	0	2	97
fixed	5	7	2	990763	1	2	2	1	0	978	1	4	0	144	72	0	2	97
fixed	5	7	3	992252	6	4	4	1	0	651	1	4	0	160	73	0	2	97
fixed	5	7	4	993684	2	1	1	1	0	718	1	4	0	136	74	0	2	97
fixed	5	7	5	994846	5	3	3	1	0	862	1	4	0	152	75	0	2	97
fixed	5	7	6	996037	6	4	4	1	0	787	1	4	0	160	76	0	2	97
fixed	5	7	7	997279	3	1	1	1	0	678	1	4	0	136	77	0	2	97
fixed	5	7	8	998842	2	3	3	1	0	820	1	4	0	152	78	0	2	98
fixed	5	7	9	1000664	3	2	2	1	0	407	1	4	0	144	79	0	2	98
fixed	5	7	10	1001991	1	4	4	1	0	935	1	4	0	160	80	0	2	98
fixed	5	7	11	1003431	5	2	2	1	0	1010	1	4	0	144	81	0	2	98
fixed	5	7	12	1004945	4	3	3	1	0	801	1	4	0	152	82	0	2	98
fixed	5	8	1	1006797	4	1	1	1	0	707	1	4	0	136	83	0	2	98
fixed	5	8	2	1008533	1	2	2	1	0	1417	1	4	0	144	84	0	2	98
fixed	5	8	3	1010880	6	4	4	1	0	766	1	4	0	160	85	0	2	98
fixed	5	8	4	1012589	2	1	1	1	0	750	1	4	0	136	86	0	2	98
fixed	5	8	5	1014055	5	3	3	1	0	656	1	4	0	152	87	0	2	98
fixed	5	8	6	1015116	6	4	4	1	0	714	1	4	0	160	88	0	2	98
fixed	5	8	7	1016229	3	1	1	1	0	652	1	4	0	136	89	0	2	98
fixed	5	8	8	1017773	2	3	3	1	0	706	1	4	0	152	90	0	2	98
fixed	5	8	9	1019371	3	2	2	1	0	551	1	4	0	144	91	0	2	98
fixed	5	8	10	1020264	1	4	4	1	0	960	1	4	0	160	92	0	2	98
fixed	5	8	11	1021730	5	2	2	1	0	683	1	4	0	144	93	0	2	98
fixed	5	8	12	1023067	4	3	3	1	0	354	1	4	0	152	94	0	2	98
fixed	5	9	1	1024107	4	1	1	1	0	686	1	4	0	136	95	0	2	98
fixed	5	9	2	1025699	1	2	2	1	0	914	1	4	0	144	96	0	2	98
fixed	5	9	3	1027058	6	4	4	1	0	793	1	4	0	160	97	0	2	98
fixed	5	9	4	1028879	2	1	1	1	0	796	1	4	0	136	98	0	2	98
fixed	5	9	5	1030094	5	3	3	1	0	600	1	4	0	152	99	0	2	98
fixed	5	9	6	1031705	6	4	4	1	0	652	1	4	0	160	100	0	2	98
fixed	5	9	7	1032844	3	1	1	1	0	660	1	4	0	136	101	0	2	98
fixed	5	9	8	1034378	2	3	3	1	0	835	1	4	0	152	102	0	2	98
fixed	5	9	9	1036040	3	2	2	1	0	740	1	4	0	144	103	0	2	98
fixed	5	9	10	1037415	1	4	4	1	0	882	1	4	0	160	104	0	2	98
fixed	5	9	11	1039038	5	2	2	1	0	1294	1	4	0	144	105	0	2	98
fixed	5	9	12	1041073	4	3	3	1	0	671	1	4	0	152	106	0	2	98
fixed	5	10	1	1042335	4	1	1	1	0	834	1	4	0	136	107	0	2	98
fixed	5	10	2	1043522	1	2	2	1	0	831	1	4	0	144	108	0	2	98
fixed	5	10	3	1044878	6	4	4	1	0	646	1	4	0	160	109	0	2	98
fixed	5	10	4	1046191	2	1	1	1	0	703	1	4	0	136	110	0	2	98
fixed	5	10	5	1047529	5	3	3	1	0	798	1	4	0	152	111	0	2	98
fixed	5	10	6	1048643	6	4	4	1	0	727	1	4	0	160	112	0	2	98
fixed	5	10	7	1049955	3	1	1	1	0	943	1	4	0	136	113	0	2	98
fixed	5	10	8	1051631	2	3	3	1	0	720	1	4	0	152	114	0	2	98
fixed	5	10	9	1053045	3	2	2	1	0	540	1	4	0	144	115	0	2	98
fixed	5	10	10	1054240	1	4	4	1	0	586	1	4	0	160	116	0	2	98
fixed	5	10	11	1055644	5	2	2	1	0	966	1	4	0	144	117	0	2	98
fixed	5	10	12	1057417	4	3	3	1	0	451	1	4	0	152	118	0	2	98
random	6	1	1	1157314	6	1	1	1	0	1092	1	4	0	168	1	0	0	100
random	6	1	2	1159104	4	4	4	1	0	624	1	4	0	192	2	0	0	100
random	6	1	3	1160653	2	2	2	1	0	807	1	4	0	176	3	0	0	100
random	6	1	4	1162314	3	3	3	1	0	336	1	4	0	184	4	0	0	100
random	6	1	5	1163464	5	2	2	1	0	959	1	4	0	176	5	0	0	100
random	6	1	6	1164798	1	4	4	1	0	599	1	4	0	192	6	0	0	100
random	6	1	7	1166364	6	1	1	1	0	525	1	4	0	168	7	0	0	100
random	6	1	8	1167589	2	3	3	1	0	672	1	4	0	184	8	0	0	100
random	6	1	9	1168592	4	2	2	1	0	542	1	4	0	176	9	0	0	100
random	6	1	10	1169765	1	1	1	1	0	684	1	4	0	168	10	0	0	100
random	6	1	11	1170957	5	4	4	1	0	578	1	4	0	192	11	0	0	100
random	6	1	12	1172559	3	3	3	1	0	982	1	4	0	184	12	0	0	100
random	6	1	13	1174743	5	2	2	1	0	713	1	4	0	176	13	0	0	100
random	6	1	14	1176477	1	4	4	1	0	665	1	4	0	192	14	0	0	100
random	6	1	15	1177901	3	1	1	1	0	692	1	4	0	168	15	0	0	100
random	6	1	16	1178922	4	3	3	1	0	865	1	4	0	184	16	0	0	100
random	6	1	17	1180442	6	4	4	1	0	624	1	4	0	192	17	0	0	100
random	6	1	18	1181361	2	1	1	1	0	801	1	4	0	168	18	0	0	100
random	6	1	19	1182559	5	3	3	1	0	662	1	4	0	184	19	0	0	100
random	6	1	20	1183741	2	2	2	1	0	709	1	4	0	176	20	0	0	100
random	6	1	21	1185445	3	3	3	1	0	749	1	4	0	184	21	0	0	100
random	6	1	22	1187080	6	1	1	1	0	695	1	4	0	168	22	0	0	100
random	6	1	23	1188556	4	2	2	1	0	769	1	4	0	176	23	0	0	100
random	6	1	24	1189758	1	4	4	1	0	678	1	4	0	192	24	0	0	100
random	6	1	25	1191534	4	3	3	1	0	850	1	4	0	184	25	0	0	100
random	6	1	26	1192909	2	1	1	1	0	688	1	4	0	168	26	0	0	100
random	6	1	27	1194386	5	2	2	1	0	802	1	4	0	176	27	0	0	100
random	6	1	28	1195995	6	4	4	1	0	637	1	4	0	192	28	0	0	100
random	6	1	29	1197336	1	3	3	1	0	893	1	4	0	184	29	0	0	100
random	6	1	30	1199081	5	2	2	1	0	755	1	4	0	176	30	0	0	100
random	6	1	31	1200653	2	1	1	1	0	729	1	4	0	168	31	0	0	100
random	6	1	32	1202240	3	3	3	1	0	701	1	4	0	184	32	0	0	100
random	6	1	33	1203851	6	4	4	1	0	665	1	4	0	192	33	0	0	100
random	6	1	34	1204906	4	2	2	1	0	732	1	4	0	176	34	0	0	100
random	6	1	35	1206103	3	4	4	1	0	889	1	4	0	192	35	0	0	100
random	6	1	36	1207809	1	1	1	1	0	657	1	4	0	168	36	0	0	100
random	6	1	37	1209127	3	4	4	1	0	937	1	4	0	192	37	0	0	100
random	6	1	38	1210487	5	3	3	1	0	696	1	4	0	184	38	0	0	100
random	6	1	39	1212066	6	1	1	1	0	677	1	4	0	168	39	0	0	100
random	6	1	40	1213693	1	2	2	1	0	720	1	4	0	176	40	0	0	100
random	6	1	41	1214800	2	3	3	1	0	721	1	4	0	184	41	0	0	100
random	6	1	42	1216368	4	4	4	1	0	551	1	4	0	192	42	0	0	100
random	6	1	43	1217701	1	2	2	1	0	726	1	4	0	176	43	0	0	100
random	6	1	44	1219390	6	3	3	1	0	551	1	4	0	184	44	0	0	100
random	6	1	45	1220587	3	1	1	1	0	1012	1	4	0	168	45	0	0	100
random	6	1	46	1221898	4	4	4	1	0	580	1	4	0	192	46	0	0	100
random	6	1	47	1222967	2	2	2	1	0	751	1	4	0	176	47	0	0	100
random	6	1	48	1224705	5	1	1	1	0	686	1	4	0	168	48	0	0	100
random	6	1	49	1226670	2	3	3	1	0	826	1	4	0	184	49	0	0	100
random	6	1	50	1228454	3	1	1	1	0	975	1	4	0	168	50	0	0	100
random	6	1	51	1230046	1	4	4	1	0	635	1	4	0	192	51	0	0	100
random	6	1	52	1231670	5	3	3	1	0	911	1	4	0	184	52	0	0	100
random	6	1	53	1233222	3	2	2	1	0	573	1	4	0	176	53	0	0	100
random	6	1	54	1234535	6	4	4	1	0	637	1	4	0	192	54	0	0	100
random	6	1	55	1235923	4	2	2	1	0	954	1	4	0	176	55	0	0	100
random	6	1	56	1237779	1	1	1	1	0	643	1	4	0	168	56	0	0	100
random	6	1	57	1239419	5	4	4	1	0	606	1	4	0	192	57	0	0	100
random	6	1	58	1240539	2	1	1	1	0	1071	1	4	0	168	58	0	0	100
random	6	1	59	1242506	6	2	2	1	0	724	1	4	0	176	59	0	0	100
random	6	1	60	1243645	4	3	3	1	0	530	1	4	0	184	60	0	0	100
random	6	1	61	1245449	1	2	2	1	0	751	1	4	0	176	61	0	0	100
random	6	1	62	1246881	6	4	4	1	0	675	1	4	0	192	62	0	0	100
random	6	1	63	1248573	4	1	1	1	0	722	1	4	0	168	63	0	0	100
random	6	1	64	1250055	2	2	2	1	0	1268	1	4	0	176	64	0	0	100
random	6	1	65	1252225	4	3	3	1	0	528	1	4	0	184	65	0	0	100
random	6	1	66	1253736	3	1	1	1	0	656	1	4	0	168	66	0	0	100
random	6	1	67	1255152	1	3	3	1	0	700	1	4	0	184	67	0	0	100
random	6	1	68	1256776	5	4	4	1	0	775	1	4	0	192	68	0	0	100
random	6	1	69	1257928	2	2	2	1	0	678	1	4	0	176	69	0	0	100
random	6	1	70	1259030	3	1	1	1	0	711	1	4	0	168	70	0	0	100
random	6	1	71	1260713	5	4	4	1	0	705	1	4	0	192	71	0	0	100
random	6	1	72	1261840	6	3	3	1	0	1336	1	4	0	184	72	0	0	100
random	6	1	73	1263744	2	1	1	1	0	1096	1	4	0	168	73	0	0	100
random	6	1	74	1265805	5	3	3	1	0	1009	1	4	0	184	74	0	0	100
random	6	1	75	1267347	1	4	4	1	0	640	1	4	0	192	75	0	0	100
random	6	1	76	1268859	6	2	2	1	0	551	1	4	0	176	76	0	0	100
random	6	1	77	1270353	2	1	1	1	0	888	1	4	0	168	77	0	0	100
random	6	1	78	1271620	4	4	4	1	0	731	1	4	0	192	78	0	0	100
random	6	1	79	1273146	3	2	2	1	0	722	1	4	0	176	79	0	0	100
random	6	1	80	1274844	4	3	3	1	0	730	1	4	0	184	80	0	0	100
random	6	1	81	1276198	1	4	4	2	0	2273	2	4	0	192	81	0	0	100
random	6	1	82	1279034	5	1	1	1	0	640	1	4	0	168	82	0	0	100
random	6	1	83	1280703	3	2	2	1	0	1170	1	4	0	176	83	0	0	100
random	6	1	84	1282736	6	3	3	2	0	1228	2	4	0	184	84	0	0	100
random	6	1	85	1285080	3	2	2	1	0	840	1	4	0	176	85	0	0	100
random	6	1	86	1286483	1	3	3	1	0	653	1	4	0	184	86	0	0	100
random	6	1	87	1287947	4	4	4	1	0	647	1	4	0	192	87	0	0	100
random	6	1	88	1289533	2	1	1	1	0	652	1	4	0	168	88	0	0	100
random	6	1	89	1290821	6	4	4	1	0	877	1	4	0	192	89	0	0	100
random	6	1	90	1292358	3	3	3	1	0	844	1	4	0	184	90	0	0	100
random	6	1	91	1293554	5	4	4	1	0	1001	1	4	0	192	91	0	0	100
random	6	1	92	1295005	1	2	2	1	0	604	1	4	0	176	92	0	0	100
random	6	1	93	1296542	5	1	1	1	0	731	1	4	0	168	93	0	0	100
random	6	1	94	1297634	4	3	3	1	0	797	1	4	0	184	94	0	0	100
random	6	1	95	1299029	6	1	1	1	0	705	1	4	0	168	95	0	0	100
random	6	1	96	1300516	2	2	2	1	0	682	1	4	0	176	96	0	0	100
random	6	1	97	1301838	4	3	3	1	0	674	1	4	0	184	97	0	0	100
random	6	1	98	1302956	3	2	2	1	0	691	1	4	0	176	98	0	0	100
random	6	1	99	1304191	6	3	3	1	0	695	1	4	0	184	99	0	0	100
random	6	1	100	1305840	1	4	4	1	0	697	1	4	0	192	100	0	0	100
random	6	1	101	1306985	4	1	1	1	0	512	1	4	0	168	101	0	0	100
random	6	1	102	1308282	5	2	2	1	0	858	1	4	0	176	102	0	0	100
random	6	1	103	1309968	2	4	4	1	0	722	1	4	0	192	103	0	0	100
random	6	1	104	1311636	3	1	1	1	0	724	1	4	0	168	104	0	0	100
random	6	1	105	1313024	1	3	3	1	0	881	1	4	0	184	105	0	0	100
random	6	1	106	1314771	2	2	2	1	0	999	1	4	0	176	106	0	0	100
random	6	1	107	1316696	5	4	4	1	0	701	1	4	0	192	107	0	0	100
random	6	1	108	1317777	6	1	1	1	0	639	1	4	0	168	108	0	0	100
random	6	1	109	1319414	5	4	4	1	0	1026	1	4	0	192	109	0	0	100
random	6	1	110	1321467	6	3	3	1	0	1011	1	4	0	184	110	0	0	100
random	6	1	111	1323145	2	2	2	1	0	636	1	4	0	176	111	0	0	100
random	6	1	112	1324813	3	1	1	1	0	669	1	4	0	168	112	0	0	100
random	6	1	113	1326489	1	2	2	1	0	719	1	4	0	176	113	0	0	100
random	6	1	114	1328147	2	3	3	1	0	433	1	4	0	184	114	0	0	100
random	6	1	115	1329334	3	1	1	1	0	734	1	4	0	168	115	0	0	100
random	6	1	116	1330696	4	4	4	1	0	628	1	4	0	192	116	0	0	100
random	6	1	117	1331912	6	1	1	1	0	841	1	4	0	168	117	0	0	100
random	6	1	118	1333505	5	3	3	1	0	965	1	4	0	184	118	0	0	100
random	6	1	119	1334888	1	4	4	1	0	1539	1	4	0	192	119	0	0	100
random	6	1	120	1336725	4	2	2	1	0	1101	1	4	0	176	120	0	0	100
fixed	7	1	1	1339160	4	1	1	1	0	669	1	4	0	200	1	0	0	100
fixed	7	1	2	1340315	1	2	2	1	0	821	1	4	0	208	2	0	0	100
fixed	7	1	3	1341959	6	4	4	1	0	631	1	4	0	224	3	0	0	100
fixed	7	1	4	1343143	2	1	1	1	0	621	1	4	0	200	4	0	0	100
fixed	7	1	5	1344245	5	3	3	1	0	566	1	4	0	216	5	0	0	100
fixed	7	1	6	1345778	6	4	4	1	0	677	1	4	0	224	6	0	0	100
fixed	7	1	7	1347172	3	1	1	1	0	698	1	4	0	200	7	0	0	100
fixed	7	1	8	1348502	2	3	3	1	0	762	1	4	0	216	8	0	0	100
fixed	7	1	9	1349956	3	2	2	1	0	556	1	4	0	208	9	0	0	100
fixed	7	1	10	1351022	1	4	4	1	0	792	1	4	0	224	10	0	0	100
fixed	7	1	11	1352821	5	2	2	1	0	611	1	4	0	208	11	0	0	100
fixed	7	1	12	1353987	4	3	3	1	0	514	1	4	0	216	12	0	0	100
fixed	7	2	1	1355603	4	1	1	1	0	725	1	4	0	200	1	0	0	8
fixed	7	2	2	1357332	1	2	2	1	0	868	1	4	0	208	2	0	0	14
fixed	7	2	3	1358536	6	4	4	1	0	729	1	4	0	224	3	0	0	20
fixed	7	2	4	1359944	2	1	1	1	0	693	1	4	0	200	4	0	0	25
fixed	7	2	5	1361495	5	3	3	1	0	732	1	4	0	216	5	0	0	29
fixed	7	2	6	1362821	6	4	4	1	0	747	1	4	0	224	6	0	0	33
fixed	7	2	7	1364005	3	1	1	1	0	601	1	4	0	200	7	0	0	37
fixed	7	2	8	1365221	2	3	3	1	0	662	1	4	0	216	8	0	0	40
fixed	7	2	9	1366885	3	2	2	1	0	551	1	4	0	208	9	0	0	43
fixed	7	2	10	1367750	1	4	4	1	0	779	1	4	0	224	10	0	0	45
fixed	7	2	11	1368910	5	2	2	1	0	826	1	4	0	208	11	0	0	48
fixed	7	2	12	1370215	4	3	3	1	0	763	1	4	0	216	12	0	0	50
fixed	7	3	1	1372110	4	1	1	1	0	586	1	4	0	200	1	0	0	4
fixed	7	3	2	1373367	1	2	2	1	0	957	1	4	0	208	2	0	0	8
fixed	7	3	3	1374930	6	4	4	1	0	707	1	4	0	224	3	0	0	11
fixed	7	3	4	1375946	2	1	1	1	0	888	1	4	0	200	4	0	0	14
fixed	7	3	5	1377841	5	3	3	1	0	855	1	4	0	216	5	0	0	17
fixed	7	3	6	1379203	6	4	4	1	0	806	1	4	0	224	6	0	0	20
fixed	7	3	7	1380299	3	1	1	1	0	711	1	4	0	200	7	0	0	23
fixed	7	3	8	1381729	2	3	3	1	0	787	1	4	0	216	8	0	0	25
fixed	7	3	9	1382821	3	2	2	1	0	652	1	4	0	208	9	0	0	27
fixed	7	3	10	1384115	1	4	4	1	0	654	1	4	0	224	10	0	0	29
fixed	7	3	11	1385487	5	2	0	1	2	0	3	4	0	208	10	0	1	29
fixed	7	3	12	1388553	4	3	3	1	0	706	1	4	0	216	11	0	1	31
fixed	7	4	1	1389988	4	1	1	1	0	2029	1	4	0	200	1	0	0	3
fixed	7	4	2	1393001	1	2	2	1	0	989	1	4	0	208	2	0	0	5
fixed	7	4	3	1394292	6	4	4	1	0	799	1	4	0	224	3	0	0	8
fixed	7	4	4	1395921	2	1	1	1	0	634	1	4	0	200	4	0	0	10
fixed	7	4	5	1397191	5	3	3	1	0	868	1	4	0	216	5	0	0	12
fixed	7	4	6	1398869	6	4	4	1	0	669	1	4	0	224	6	0	0	14
fixed	7	4	7	1400340	3	1	1	1	0	679	1	4	0	200	7	0	0	16
fixed	7	4	8	1401790	2	3	3	1	0	833	1	4	0	216	8	0	0	18
fixed	7	4	9	1403606	3	2	2	1	0	556	1	4	0	208	9	0	0	20
fixed	7	4	10	1404767	1	4	4	1	0	731	1	4	0	224	10	0	0	22
fixed	7	4	11	1406338	5	2	2	1	0	737	1	4	0	208	11	0	0	23
fixed	7	4	12	1408050	4	3	3	1	0	560	1	4	0	216	12	0	0	25
fixed	7	5	1	1409535	4	1	1	1	0	673	1	4	0	200	1	0	0	2
fixed	7	5	2	1410518	1	2	2	1	0	799	1	4	0	208	2	0	0	4
fixed	7	5	3	1412127	6	4	4	1	0	619	1	4	0	224	3	0	0	6
fixed	7	5	4	1413733	2	1	1	1	0	711	1	4	0	200	4	0	0	8
fixed	7	5	5	1415355	5	3	3	1	0	1123	1	4	0	216	5	0	0	9
fixed	7	5	6	1417484	6	4	4	1	0	657	1	4	0	224	6	0	0	11
fixed	7	5	7	1418645	3	1	1	1	0	1039	1	4	0	200	7	0	0	13
fixed	7	5	8	1420532	2	3	3	1	0	847	1	4	0	216	8	0	0	14
fixed	7	5	9	1422373	3	2	2	1	0	617	1	4	0	208	9	0	0	16
fixed	7	5	10	1423461	1	4	4	1	0	779	1	4	0	224	10	0	0	17
fixed	7	5	11	1424825	5	2	0	1	2	0	3	4	0	208	10	0	1	17
fixed	7	5	12	1428194	4	3	3	1	0	811	1	4	0	216	11	0	1	18
fixed	7	6	1	1429718	4	1	1	1	0	938	1	4	0	200	1	0	0	2
fixed	7	6	2	1431668	1	2	2	1	0	736	1	4	0	208	2	0	0	3
fixed	7	6	3	1432813	6	4	4	1	0	775	1	4	0	224	3	0	0	5
fixed	7	6	4	1434395	2	1	1	1	0	788	1	4	0	200	4	0	0	6
fixed	7	6	5	1435539	5	3	3	1	0	596	1	4	0	216	5	0	0	8
fixed	7	6	6	1436667	6	4	4	1	0	700	1	4	0	224	6	0	0	9
fixed	7	6	7	1437902	3	1	1	1	0	623	1	4	0	200	7	0	0	10
fixed	7	6	8	1438944	2	3	3	1	0	675	1	4	0	216	8	0	0	12
fixed	7	6	9	1440183	3	2	2	1	0	575	1	4	0	208	9	0	0	13
fixed	7	6	10	1441670	1	4	4	1	0	608	1	4	0	224	10	0	0	14
fixed	7	6	11	1442761	5	2	2	1	0	1194	1	4	0	208	11	0	0	15
fixed	7	6	12	1444903	4	3	3	1	0	751	1	4	0	216	12	0	0	17
fixed	7	7	1	1446626	4	1	1	1	0	646	1	4	0	200	1	0	0	1
fixed	7	7	2	1447586	1	2	2	1	0	709	1	4	0	208	2	0	0	3
fixed	7	7	3	1449050	6	4	4	1	0	583	1	4	0	224	3	0	0	4
fixed	7	7	4	1450531	2	1	1	1	0	681	1	4	0	200	4	0	0	5
fixed	7	7	5	1451991	5	3	3	1	0	659	1	4	0	216	5	0	0	6
fixed	7	7	6	1453451	6	4	4	1	0	797	1	4	0	224	6	0	0	8
fixed	7	7	7	1455126	3	1	1	1	0	598	1	4	0	200	7	0	0	9
fixed	7	7	8	1456426	2	3	3	1	0	607	1	4	0	216	8	0	0	10
fixed	7	7	9	1457398	3	2	2	1	0	630	1	4	0	208	9	0	0	11
fixed	7	7	10	1458857	1	4	4	1	0	1072	1	4	0	224	10	0	0	12
fixed	7	7	11	1460337	5	2	2	1	0	794	1	4	0	208	11	0	0	13
fixed	7	7	12	1462080	4	3	3	1	0	807	1	4	0	216	12	0	0	14
fixed	7	8	1	1464052	4	1	1	1	0	780	1	4	0	200	1	0	0	1
fixed	7	8	2	1465439	1	2	2	1	0	1033	1	4	0	208	2	0	0	2
fixed	7	8	3	1467120	6	4	4	1	0	746	1	4	0	224	3	0	0	3
fixed	7	8	4	1468544	2	1	1	1	0	1493	1	4	0	200	4	0	0	5
fixed	7	8	5	1470782	5	3	3	1	0	775	1	4	0	216	5	0	0	6
fixed	7	8	6	1472529	6	4	0	1	2	0	3	4	0	224	5	0	1	6
fixed	7	8	7	1475390	3	1	1	1	0	724	1	4	0	200	6	0	1	7
fixed	7	8	8	1476611	2	3	0	1	2	0	3	4	0	216	6	0	2	7
fixed	7	8	9	1480047	3	2	2	1	0	783	1	4	0	208	7	0	2	8
fixed	7	8	10	1481233	1	4	4	1	0	772	1	4	0	224	8	0	2	9
fixed	7	8	11	1482399	5	2	2	1	0	859	1	4	0	208	9	0	2	9
fixed	7	8	12	1483952	4	3	3	1	0	849	1	4	0	216	10	0	2	10
fixed	7	9	1	1485923	4	1	1	1	0	741	1	4	0	200	1	0	0	1
fixed	7	9	2	1487060	1	2	2	1	0	853	1	4	0	208	2	0	0	2
fixed	7	9	3	1488937	6	4	4	1	0	702	1	4	0	224	3	0	0	3
fixed	7	9	4	1490379	2	1	1	1	0	1305	1	4	0	200	4	0	0	4
fixed	7	9	5	1492674	5	3	0	1	2	0	3	4	0	216	4	0	1	4
fixed	7	9	6	1496070	6	4	4	1	0	856	1	4	0	224	5	0	1	5
fixed	7	9	7	1497494	3	1	1	1	0	684	1	4	0	200	6	0	1	6
fixed	7	9	8	1499017	2	3	3	1	0	819	1	4	0	216	7	0	1	7
fixed	7	9	9	1500427	3	2	2	1	0	559	1	4	0	208	8	0	1	8
fixed	7	9	10	1501336	1	4	4	1	0	777	1	4	0	224	9	0	1	8
fixed	7	9	11	1502855	5	2	2	1	0	745	1	4	0	208	10	0	1	9
fixed	7	9	12	1504539	4	3	3	1	0	785	1	4	0	216	11	0	1	10
fixed	7	10	1	1506456	4	1	1	1	0	736	1	4	0	200	1	0	0	1
fixed	7	10	2	1508136	1	2	2	1	0	817	1	4	0	208	2	0	0	2
fixed	7	10	3	1509899	6	4	4	1	0	598	1	4	0	224	3	0	0	3
fixed	7	10	4	1511378	2	1	1	1	0	728	1	4	0	200	4	0	0	4
fixed	7	10	5	1513038	5	3	3	1	0	657	1	4	0	216	5	0	0	4
fixed	7	10	6	1514065	6	4	4	1	0	830	1	4	0	224	6	0	0	5
fixed	7	10	7	1515266	3	1	1	1	0	603	1	4	0	200	7	0	0	6
fixed	7	10	8	1516503	2	3	3	1	0	703	1	4	0	216	8	0	0	7
fixed	7	10	9	1517893	3	2	2	1	0	532	1	4	0	208	9	0	0	8
fixed	7	10	10	1518937	1	4	4	1	0	695	1	4	0	224	10	0	0	8
fixed	7	10	11	1519979	5	2	2	1	0	1043	1	4	0	208	11	0	0	9
fixed	7	10	12	1521604	4	3	3	1	0	719	1	4	0	216	12	0	0	10
