type	block	sequ.	trial	time	Pos.	Color	Button	NumRsp	Resp_1	RT_1	R_Code	Resp_2	RT_2	Trigg.	n_hit	n_inc	n_miss	score_%

random	1	1	1	7323	6	1	1	1	0	1275	1	4	0	8	1	0	0	100
random	1	1	2	9335	4	4	4	1	0	606	1	4	0	32	2	0	0	100
random	1	1	3	10679	2	2	2	1	0	701	1	4	0	16	3	0	0	100
random	1	1	4	12290	3	3	3	1	0	393	1	4	0	24	4	0	0	100
random	1	1	5	13467	5	2	2	1	0	951	1	4	0	16	5	0	0	100
random	1	1	6	15391	1	4	0	0	2	0	3	4	0	32	5	0	1	83
random	1	1	7	18623	6	1	1	1	0	605	1	4	0	8	6	0	1	86
random	1	1	8	20217	2	3	3	1	0	737	1	4	0	24	7	0	1	88
random	1	1	9	21444	4	2	2	1	0	461	1	4	0	16	8	0	1	89
random	1	1	10	22741	1	1	1	1	0	679	1	4	0	8	9	0	1	90
random	1	1	11	24029	5	4	4	1	0	360	1	4	0	32	10	0	1	91
random	1	1	12	24791	3	3	3	1	0	672	1	4	0	24	11	0	1	92
random	1	1	13	26404	5	2	2	1	0	491	1	4	0	16	12	0	1	92
random	1	1	14	27517	1	4	4	1	0	652	1	4	0	32	13	0	1	93
random	1	1	15	28734	3	1	1	1	0	577	1	4	0	8	14	0	1	93
random	1	1	16	29935	4	3	3	1	0	854	1	4	0	24	15	0	1	94
random	1	1	17	31685	6	4	4	1	0	547	1	4	0	32	16	0	1	94
random	1	1	18	32768	2	1	1	1	0	501	1	4	0	8	17	0	1	94
random	1	1	19	33781	5	3	3	1	0	635	1	4	0	24	18	0	1	95
random	1	1	20	34780	2	2	2	1	0	768	1	4	0	16	19	0	1	95
random	1	1	21	35993	3	3	3	1	0	541	1	4	0	24	20	0	1	95
random	1	1	22	37567	6	1	1	1	0	714	1	4	0	8	21	0	1	95
random	1	1	23	38616	4	2	2	1	0	918	1	4	0	16	22	0	1	96
random	1	1	24	40495	1	4	4	1	0	566	1	4	0	32	23	0	1	96
random	1	1	25	42093	4	3	3	1	0	762	1	4	0	24	24	0	1	96
random	1	1	26	43470	2	1	1	1	0	624	1	4	0	8	25	0	1	96
random	1	1	27	45133	5	2	2	1	0	738	1	4	0	16	26	0	1	96
random	1	1	28	46585	6	4	4	1	0	524	1	4	0	32	27	0	1	96
random	1	1	29	48044	1	3	3	1	0	646	1	4	0	24	28	0	1	97
random	1	1	30	49505	5	2	2	1	0	553	1	4	0	16	29	0	1	97
random	1	1	31	50551	2	1	1	1	0	820	1	4	0	8	30	0	1	97
random	1	1	32	51737	3	3	3	1	0	834	1	4	0	24	31	0	1	97
random	1	1	33	53601	6	4	4	1	0	636	1	4	0	32	32	0	1	97
random	1	1	34	54706	4	2	2	1	0	548	1	4	0	16	33	0	1	97
random	1	1	35	56017	3	4	4	1	0	589	1	4	0	32	34	0	1	97
random	1	1	36	57128	1	1	1	1	0	501	1	4	0	8	35	0	1	97
random	1	1	37	58868	3	4	4	1	0	852	1	4	0	32	36	0	1	97
random	1	1	38	60576	5	3	3	1	0	652	1	4	0	24	37	0	1	97
random	1	1	39	61877	6	1	1	1	0	693	1	4	0	8	38	0	1	97
random	1	1	40	63484	1	2	2	1	0	673	1	4	0	16	39	0	1	98
random	1	1	41	64741	2	3	3	1	0	475	1	4	0	24	40	0	1	98
random	1	1	42	65593	4	4	4	1	0	551	1	4	0	32	41	0	1	98
random	1	1	43	66474	1	2	2	1	0	890	1	4	0	16	42	0	1	98
random	1	1	44	68367	6	3	3	1	0	490	1	4	0	24	43	0	1	98
random	1	1	45	69240	3	1	1	1	0	677	1	4	0	8	44	0	1	98
random	1	1	46	70372	4	4	4	1	0	549	1	4	0	32	45	0	1	98
random	1	1	47	71854	2	2	2	1	0	790	1	4	0	16	46	0	1	98
random	1	1	48	73532	5	1	1	2	0	2167	2	4	0	8	47	0	1	98
random	1	1	49	76829	2	3	3	1	0	1203	1	4	0	24	48	0	1	98
random	1	1	50	78381	3	1	1	1	0	609	1	4	0	8	49	0	1	98
random	1	1	51	79613	1	4	4	1	0	590	1	4	0	32	50	0	1	98
random	1	1	52	80965	5	3	3	1	0	708	1	4	0	24	51	0	1	98
random	1	1	53	82258	3	2	2	1	0	541	1	4	0	16	52	0	1	98
random	1	1	54	83803	6	4	4	1	0	524	1	4	0	32	53	0	1	98
random	1	1	55	85138	4	2	2	1	0	771	1	4	0	16	54	0	1	98
random	1	1	56	86345	1	1	1	1	0	648	1	4	0	8	55	0	1	98
random	1	1	57	87479	5	4	4	1	0	888	1	4	0	32	56	0	1	98
random	1	1	58	89389	2	1	1	1	0	736	1	4	0	8	57	0	1	98
random	1	1	59	90427	6	2	0	1	2	0	3	4	0	16	57	0	2	97
random	1	1	60	93478	4	3	0	1	2	0	3	4	0	24	57	0	3	95
random	1	1	61	97028	1	2	2	1	0	740	1	4	0	16	58	0	3	95
random	1	1	62	98575	6	4	4	1	0	594	1	4	0	32	59	0	3	95
random	1	1	63	99683	4	1	1	1	0	627	1	4	0	8	60	0	3	95
random	1	1	64	101309	2	2	2	1	0	726	1	4	0	16	61	0	3	95
random	1	1	65	102631	4	3	3	1	0	567	1	4	0	24	62	0	3	95
random	1	1	66	103824	3	1	1	1	0	660	1	4	0	8	63	0	3	95
random	1	1	67	104888	1	3	3	1	0	935	1	4	0	24	64	0	3	96
random	1	1	68	106766	5	4	4	1	0	592	1	4	0	32	65	0	3	96
random	1	1	69	107901	2	2	2	1	0	1152	1	4	0	16	66	0	3	96
random	1	1	70	109450	3	1	1	1	0	750	1	4	0	8	67	0	3	96
random	1	1	71	110698	5	4	4	1	0	617	1	4	0	32	68	0	3	96
random	1	1	72	111904	6	3	3	1	0	806	1	4	0	24	69	0	3	96
random	1	1	73	113653	2	1	1	1	0	643	1	4	0	8	70	0	3	96
random	1	1	74	115211	5	3	3	1	0	642	1	4	0	24	71	0	3	96
random	1	1	75	116190	1	4	4	1	0	776	1	4	0	32	72	0	3	96
random	1	1	76	117544	6	2	2	1	0	1055	1	4	0	16	73	0	3	96
random	1	1	77	119394	2	1	1	1	0	737	1	4	0	8	74	0	3	96
random	1	1	78	120981	4	4	4	1	0	646	1	4	0	32	75	0	3	96
random	1	1	79	122410	3	2	2	1	0	753	1	4	0	16	76	0	3	96
random	1	1	80	124101	4	3	3	1	0	385	1	4	0	24	77	0	3	96
random	1	1	81	125007	1	4	4	1	0	763	1	4	0	32	78	0	3	96
random	1	1	82	126674	5	1	1	1	0	572	1	4	0	8	79	0	3	96
random	1	1	83	128234	3	2	2	1	0	738	1	4	0	16	80	0	3	96
random	1	1	84	129663	6	3	3	1	0	478	1	4	0	24	81	0	3	96
random	1	1	85	131145	3	2	2	1	0	791	1	4	0	16	82	0	3	96
random	1	1	86	132441	1	3	3	1	0	464	1	4	0	24	83	0	3	97
random	1	1	87	133697	4	4	4	1	0	507	1	4	0	32	84	0	3	97
random	1	1	88	135054	2	1	1	1	0	577	1	4	0	8	85	0	3	97
random	1	1	89	136422	6	4	4	1	0	616	1	4	0	32	86	0	3	97
random	1	1	90	137925	3	3	3	1	0	640	1	4	0	24	87	0	3	97
random	1	1	91	138856	5	4	4	1	0	976	1	4	0	32	88	0	3	97
random	1	1	92	140288	1	2	2	1	0	795	1	4	0	16	89	0	3	97
random	1	1	93	141372	5	1	1	1	0	741	1	4	0	8	90	0	3	97
random	1	1	94	142682	4	3	3	1	0	630	1	4	0	24	91	0	3	97
random	1	1	95	144322	6	1	1	1	0	769	1	4	0	8	92	0	3	97
random	1	1	96	146126	2	2	2	1	0	796	1	4	0	16	93	0	3	97
random	1	1	97	147770	4	3	3	1	0	742	1	4	0	24	94	0	3	97
random	1	1	98	148841	3	2	2	1	0	593	1	4	0	16	95	0	3	97
random	1	1	99	150175	6	3	3	1	0	673	1	4	0	24	96	0	3	97
random	1	1	100	151209	1	4	4	1	0	661	1	4	0	32	97	0	3	97
random	1	1	101	152657	4	1	1	1	0	504	1	4	0	8	98	0	3	97
random	1	1	102	153720	5	2	2	1	0	811	1	4	0	16	99	0	3	97
random	1	1	103	155442	2	4	4	1	0	626	1	4	0	32	100	0	3	97
random	1	1	104	156828	3	1	1	1	0	623	1	4	0	8	101	0	3	97
random	1	1	105	158056	1	3	3	1	0	547	1	4	0	24	102	0	3	97
random	1	1	106	159242	2	2	2	1	0	537	1	4	0	16	103	0	3	97
random	1	1	107	160459	5	4	4	1	0	877	1	4	0	32	104	0	3	97
random	1	1	108	161971	6	1	1	1	0	565	1	4	0	8	105	0	3	97
random	1	1	109	163191	5	4	4	1	0	761	1	4	0	32	106	0	3	97
random	1	1	110	164303	6	3	3	1	0	971	1	4	0	24	107	0	3	97
random	1	1	111	165734	2	2	2	1	0	494	1	4	0	16	108	0	3	97
random	1	1	112	166936	3	1	1	1	0	699	1	4	0	8	109	0	3	97
random	1	1	113	168537	1	2	2	1	0	1079	1	4	0	16	110	0	3	97
random	1	1	114	170022	2	3	3	1	0	480	1	4	0	24	111	0	3	97
random	1	1	115	170849	3	1	1	1	0	621	1	4	0	8	112	0	3	97
random	1	1	116	171897	4	4	4	1	0	737	1	4	0	32	113	0	3	97
random	1	1	117	173360	6	1	1	1	0	715	1	4	0	8	114	0	3	97
random	1	1	118	174410	5	3	3	1	0	822	1	4	0	24	115	0	3	97
random	1	1	119	175953	1	4	4	1	0	677	1	4	0	32	116	0	3	97
random	1	1	120	177173	4	2	2	1	0	633	1	4	0	16	117	0	3	98
fixed	2	1	1	178743	4	1	1	1	0	630	1	4	0	40	1	0	0	100
fixed	2	1	2	180387	1	2	2	1	0	849	1	4	0	48	2	0	0	100
fixed	2	1	3	182085	6	4	4	1	0	745	1	4	0	64	3	0	0	100
fixed	2	1	4	183335	2	1	1	1	0	765	1	4	0	40	4	0	0	100
fixed	2	1	5	184572	5	3	3	1	0	592	1	4	0	56	5	0	0	100
fixed	2	1	6	185587	6	4	4	1	0	605	1	4	0	64	6	0	0	100
fixed	2	1	7	186555	3	1	1	1	0	660	1	4	0	40	7	0	0	100
fixed	2	1	8	187861	2	3	3	1	0	772	1	4	0	56	8	0	0	100
fixed	2	1	9	189361	3	2	2	1	0	349	1	4	0	48	9	0	0	100
fixed	2	1	10	190597	1	4	4	1	0	441	1	4	0	64	10	0	0	100
fixed	2	1	11	191984	5	2	2	1	0	645	1	4	0	48	11	0	0	100
fixed	2	1	12	193488	4	3	3	1	0	390	1	4	0	56	12	0	0	100
fixed	2	2	1	194685	4	1	1	1	0	771	1	4	0	40	13	0	0	100
fixed	2	2	2	196228	1	2	2	1	0	794	1	4	0	48	14	0	0	100
fixed	2	2	3	197538	6	4	4	1	0	731	1	4	0	64	15	0	0	100
fixed	2	2	4	198829	2	1	1	1	0	644	1	4	0	40	16	0	0	100
fixed	2	2	5	199809	5	3	3	1	0	651	1	4	0	56	17	0	0	100
fixed	2	2	6	201033	6	4	4	1	0	702	1	4	0	64	18	0	0	100
fixed	2	2	7	202065	3	1	1	1	0	803	1	4	0	40	19	0	0	100
fixed	2	2	8	203817	2	3	3	1	0	577	1	4	0	56	20	0	0	100
fixed	2	2	9	204888	3	2	2	1	0	500	1	4	0	48	21	0	0	100
fixed	2	2	10	206051	1	4	4	1	0	786	1	4	0	64	22	0	0	100
fixed	2	2	11	207509	5	2	2	1	0	1005	1	4	0	48	23	0	0	100
fixed	2	2	12	209420	4	3	3	1	0	699	1	4	0	56	24	0	0	100
fixed	2	3	1	211242	4	1	1	1	0	486	1	4	0	40	25	0	0	100
fixed	2	3	2	212510	1	2	2	1	0	752	1	4	0	48	26	0	0	100
fixed	2	3	3	214234	6	4	4	1	0	735	1	4	0	64	27	0	0	100
fixed	2	3	4	215752	2	1	1	1	0	815	1	4	0	40	28	0	0	100
fixed	2	3	5	216865	5	3	3	1	0	576	1	4	0	56	29	0	0	100
fixed	2	3	6	217958	6	4	4	1	0	754	1	4	0	64	30	0	0	100
fixed	2	3	7	219470	3	1	1	1	0	522	1	4	0	40	31	0	0	100
fixed	2	3	8	220369	2	3	3	1	0	692	1	4	0	56	32	0	0	100
fixed	2	3	9	221726	3	2	2	1	0	434	1	4	0	48	33	0	0	100
fixed	2	3	10	223038	1	4	4	1	0	658	1	4	0	64	34	0	0	100
fixed	2	3	11	224088	5	2	2	1	0	870	1	4	0	48	35	0	0	100
fixed	2	3	12	225747	4	3	3	1	0	400	1	4	0	56	36	0	0	100
fixed	2	4	1	227332	4	1	1	1	0	661	1	4	0	40	37	0	0	100
fixed	2	4	2	228843	1	2	2	1	0	901	1	4	0	48	38	0	0	100
fixed	2	4	3	230368	6	4	4	1	0	580	1	4	0	64	39	0	0	100
fixed	2	4	4	231670	2	1	1	1	0	813	1	4	0	40	40	0	0	100
fixed	2	4	5	233151	5	3	3	1	0	606	1	4	0	56	41	0	0	100
fixed	2	4	6	234609	6	4	4	1	0	609	1	4	0	64	42	0	0	100
fixed	2	4	7	235566	3	1	1	1	0	648	1	4	0	40	43	0	0	100
fixed	2	4	8	237159	2	3	3	1	0	644	1	4	0	56	44	0	0	100
fixed	2	4	9	238263	3	2	2	1	0	494	1	4	0	48	45	0	0	100
fixed	2	4	10	239178	1	4	4	1	0	599	1	4	0	64	46	0	0	100
fixed	2	4	11	240158	5	2	2	1	0	726	1	4	0	48	47	0	0	100
fixed	2	4	12	241269	4	3	3	1	0	470	1	4	0	56	48	0	0	100
fixed	2	5	1	242619	4	1	1	1	0	765	1	4	0	40	49	0	0	100
fixed	2	5	2	243749	1	2	2	1	0	974	1	4	0	48	50	0	0	100
fixed	2	5	3	245164	6	4	4	1	0	825	1	4	0	64	51	0	0	100
fixed	2	5	4	246553	2	1	1	1	0	607	1	4	0	40	52	0	0	100
fixed	2	5	5	247995	5	3	3	1	0	778	1	4	0	56	53	0	0	100
fixed	2	5	6	249390	6	4	4	1	0	726	1	4	0	64	54	0	0	100
fixed	2	5	7	250733	3	1	1	1	0	878	1	4	0	40	55	0	0	100
fixed	2	5	8	252136	2	3	3	1	0	634	1	4	0	56	56	0	0	100
fixed	2	5	9	253605	3	2	2	1	0	468	1	4	0	48	57	0	0	100
fixed	2	5	10	254370	1	4	4	1	0	836	1	4	0	64	58	0	0	100
fixed	2	5	11	255829	5	2	2	2	0	1206	2	4	0	48	59	0	0	100
fixed	2	5	12	258004	4	3	3	1	0	713	1	4	0	56	60	0	0	100
fixed	2	6	1	259277	4	1	1	1	0	828	1	4	0	40	61	0	0	100
fixed	2	6	2	260412	1	2	2	1	0	995	1	4	0	48	62	0	0	100
fixed	2	6	3	262072	6	4	4	1	0	693	1	4	0	64	63	0	0	100
fixed	2	6	4	263323	2	1	1	1	0	848	1	4	0	40	64	0	0	100
fixed	2	6	5	264845	5	3	3	1	0	704	1	4	0	56	65	0	0	100
fixed	2	6	6	266497	6	4	4	1	0	578	1	4	0	64	66	0	0	100
fixed	2	6	7	267491	3	1	1	1	0	584	1	4	0	40	67	0	0	100
fixed	2	6	8	268523	2	3	3	1	0	700	1	4	0	56	68	0	0	100
fixed	2	6	9	269717	3	2	2	1	0	441	1	4	0	48	69	0	0	100
fixed	2	6	10	271010	1	4	4	1	0	675	1	4	0	64	70	0	0	100
fixed	2	6	11	272677	5	2	2	1	0	972	1	4	0	48	71	0	0	100
fixed	2	6	12	274254	4	3	3	1	0	305	1	4	0	56	72	0	0	100
fixed	2	7	1	275333	4	1	1	1	0	803	1	4	0	40	73	0	0	100
fixed	2	7	2	276637	1	2	2	1	0	836	1	4	0	48	74	0	0	100
fixed	2	7	3	278169	6	4	4	1	0	756	1	4	0	64	75	0	0	100
fixed	2	7	4	279799	2	1	1	1	0	687	1	4	0	40	76	0	0	100
fixed	2	7	5	281346	5	3	3	1	0	757	1	4	0	56	77	0	0	100
fixed	2	7	6	283048	6	4	4	1	0	605	1	4	0	64	78	0	0	100
fixed	2	7	7	284163	3	1	1	1	0	558	1	4	0	40	79	0	0	100
fixed	2	7	8	285719	2	3	3	1	0	620	1	4	0	56	80	0	0	100
fixed	2	7	9	287269	3	2	2	1	0	330	1	4	0	48	81	0	0	100
fixed	2	7	10	287996	1	4	4	1	0	651	1	4	0	64	82	0	0	100
fixed	2	7	11	289192	5	2	2	1	0	609	1	4	0	48	83	0	0	100
fixed	2	7	12	290815	4	3	3	1	0	332	1	4	0	56	84	0	0	100
fixed	2	8	1	291756	4	1	1	1	0	556	1	4	0	40	85	0	0	100
fixed	2	8	2	292973	1	2	2	1	0	784	1	4	0	48	86	0	0	100
fixed	2	8	3	294563	6	4	4	1	0	469	1	4	0	64	87	0	0	100
fixed	2	8	4	295604	2	1	1	1	0	689	1	4	0	40	88	0	0	100
fixed	2	8	5	296936	5	3	3	1	0	680	1	4	0	56	89	0	0	100
fixed	2	8	6	298031	6	4	4	1	0	794	1	4	0	64	90	0	0	100
fixed	2	8	7	299684	3	1	1	1	0	572	1	4	0	40	91	0	0	100
fixed	2	8	8	300855	2	3	3	2	0	859	2	4	0	56	92	0	0	100
fixed	2	8	9	302727	3	2	2	1	0	612	1	4	0	48	93	0	0	100
fixed	2	8	10	304067	1	4	4	1	0	586	1	4	0	64	94	0	0	100
fixed	2	8	11	305676	5	2	2	1	0	550	1	4	0	48	95	0	0	100
fixed	2	8	12	307214	4	3	3	1	0	301	1	4	0	56	96	0	0	100
fixed	2	9	1	308280	4	1	1	1	0	496	1	4	0	40	97	0	0	100
fixed	2	9	2	309158	1	2	2	1	0	763	1	4	0	48	98	0	0	100
fixed	2	9	3	310710	6	4	4	1	0	593	1	4	0	64	99	0	0	100
fixed	2	9	4	312010	2	1	1	1	0	642	1	4	0	40	100	0	0	100
fixed	2	9	5	313567	5	3	3	1	0	568	1	4	0	56	101	0	0	100
fixed	2	9	6	314693	6	4	4	1	0	497	1	4	0	64	102	0	0	100
fixed	2	9	7	315931	3	1	1	1	0	548	1	4	0	40	103	0	0	100
fixed	2	9	8	317087	2	3	3	1	0	643	1	4	0	56	104	0	0	100
fixed	2	9	9	318617	3	2	2	1	0	563	1	4	0	48	105	0	0	100
fixed	2	9	10	319694	1	4	4	1	0	957	1	4	0	64	106	0	0	100
fixed	2	9	11	321166	5	2	2	1	0	678	1	4	0	48	107	0	0	100
fixed	2	9	12	322709	4	3	3	1	0	389	1	4	0	56	108	0	0	100
fixed	2	10	1	324203	4	1	1	1	0	950	1	4	0	40	109	0	0	100
fixed	2	10	2	325754	1	2	2	1	0	1244	1	4	0	48	110	0	0	100
fixed	2	10	3	327733	6	4	4	1	0	536	1	4	0	64	111	0	0	100
fixed	2	10	4	328999	2	1	1	1	0	874	1	4	0	40	112	0	0	100
fixed	2	10	5	330402	5	3	3	1	0	719	1	4	0	56	113	0	0	100
fixed	2	10	6	331480	6	4	4	1	0	634	1	4	0	64	114	0	0	100
fixed	2	10	7	332928	3	1	1	1	0	732	1	4	0	40	115	0	0	100
fixed	2	10	8	334273	2	3	3	1	0	924	1	4	0	56	116	0	0	100
fixed	2	10	9	335509	3	2	2	1	0	527	1	4	0	48	117	0	0	100
fixed	2	10	10	336824	1	4	4	1	0	599	1	4	0	64	118	0	0	100
fixed	2	10	11	338225	5	2	2	1	0	988	1	4	0	48	119	0	0	100
fixed	2	10	12	339692	4	3	3	1	0	566	1	4	0	56	120	0	0	100
fixed	3	1	1	341359	4	1	1	1	0	543	1	4	0	72	1	0	0	100
fixed	3	1	2	342535	1	2	2	1	0	661	1	4	0	80	2	0	0	100
fixed	3	1	3	344195	6	4	4	1	0	639	1	4	0	96	3	0	0	100
fixed	3	1	4	345421	2	1	1	1	0	611	1	4	0	72	4	0	0	100
fixed	3	1	5	346804	5	3	3	1	0	649	1	4	0	88	5	0	0	100
fixed	3	1	6	348052	6	4	4	1	0	676	1	4	0	96	6	0	0	100
fixed	3	1	7	349389	3	1	1	1	0	667	1	4	0	72	7	0	0	100
fixed	3	1	8	350689	2	3	3	1	0	588	1	4	0	88	8	0	0	100
fixed	3	1	9	351885	3	2	2	1	0	673	1	4	0	80	9	0	0	100
fixed	3	1	10	353187	1	4	4	1	0	1410	1	4	0	96	10	0	0	100
fixed	3	1	11	355008	5	2	2	1	0	653	1	4	0	80	11	0	0	100
fixed	3	1	12	356335	4	3	3	1	0	517	1	4	0	88	12	0	0	100
fixed	3	2	1	357417	4	1	1	1	0	559	1	4	0	72	13	0	0	100
fixed	3	2	2	358589	1	2	2	1	0	773	1	4	0	80	14	0	0	100
fixed	3	2	3	359815	6	4	4	1	0	642	1	4	0	96	15	0	0	100
fixed	3	2	4	361185	2	1	1	1	0	664	1	4	0	72	16	0	0	100
fixed	3	2	5	362684	5	3	3	1	0	568	1	4	0	88	17	0	0	100
fixed	3	2	6	363747	6	4	4	1	0	699	1	4	0	96	18	0	0	100
fixed	3	2	7	365112	3	1	1	1	0	721	1	4	0	72	19	0	0	100
fixed	3	2	8	366770	2	3	3	1	0	811	1	4	0	88	20	0	0	100
fixed	3	2	9	368346	3	2	2	1	0	344	1	4	0	80	21	0	0	100
fixed	3	2	10	369070	1	4	4	1	0	634	1	4	0	96	22	0	0	100
fixed	3	2	11	370348	5	2	2	1	0	803	1	4	0	80	23	0	0	100
fixed	3	2	12	372102	4	3	3	1	0	265	1	4	0	88	24	0	0	100
fixed	3	3	1	373256	4	1	1	1	0	408	1	4	0	72	25	0	0	100
fixed	3	3	2	374593	1	2	2	1	0	927	1	4	0	80	26	0	0	100
fixed	3	3	3	376451	6	4	4	1	0	697	1	4	0	96	27	0	0	100
fixed	3	3	4	377477	2	1	1	1	0	710	1	4	0	72	28	0	0	100
fixed	3	3	5	379206	5	3	3	1	0	780	1	4	0	88	29	0	0	100
fixed	3	3	6	380832	6	4	4	1	0	663	1	4	0	96	30	0	0	100
fixed	3	3	7	382124	3	1	1	1	0	633	1	4	0	72	31	0	0	100
fixed	3	3	8	383670	2	3	3	1	0	727	1	4	0	88	32	0	0	100
fixed	3	3	9	385357	3	2	2	1	0	496	1	4	0	80	33	0	0	100
fixed	3	3	10	386579	1	4	4	1	0	572	1	4	0	96	34	0	0	100
fixed	3	3	11	387877	5	2	2	1	0	549	1	4	0	80	35	0	0	100
fixed	3	3	12	389221	4	3	3	1	0	372	1	4	0	88	36	0	0	100
fixed	3	4	1	390198	4	1	1	1	0	722	1	4	0	72	37	0	0	100
fixed	3	4	2	391704	1	2	2	1	0	691	1	4	0	80	38	0	0	100
fixed	3	4	3	392787	6	4	4	1	0	613	1	4	0	96	39	0	0	100
fixed	3	4	4	393737	2	1	1	1	0	605	1	4	0	72	40	0	0	100
fixed	3	4	5	394877	5	3	3	1	0	708	1	4	0	88	41	0	0	100
fixed	3	4	6	396503	6	4	4	1	0	672	1	4	0	96	42	0	0	100
fixed	3	4	7	397556	3	1	1	1	0	707	1	4	0	72	43	0	0	100
fixed	3	4	8	398627	2	3	3	1	0	622	1	4	0	88	44	0	0	100
fixed	3	4	9	399795	3	2	2	1	0	564	1	4	0	80	45	0	0	100
fixed	3	4	10	401338	1	4	4	1	0	611	1	4	0	96	46	0	0	100
fixed	3	4	11	402743	5	2	2	1	0	735	1	4	0	80	47	0	0	100
fixed	3	4	12	404377	4	3	3	1	0	338	1	4	0	88	48	0	0	100
fixed	3	5	1	405803	4	1	1	1	0	661	1	4	0	72	49	0	0	100
fixed	3	5	2	407154	1	2	2	1	0	596	1	4	0	80	50	0	0	100
fixed	3	5	3	408067	6	4	4	1	0	574	1	4	0	96	51	0	0	100
fixed	3	5	4	409178	2	1	1	1	0	583	1	4	0	72	52	0	0	100
fixed	3	5	5	410760	5	3	3	1	0	612	1	4	0	88	53	0	0	100
fixed	3	5	6	411947	6	4	4	1	0	570	1	4	0	96	54	0	0	100
fixed	3	5	7	413104	3	1	1	1	0	904	1	4	0	72	55	0	0	100
fixed	3	5	8	415048	2	3	3	1	0	942	1	4	0	88	56	0	0	100
fixed	3	5	9	416620	3	2	2	1	0	452	1	4	0	80	57	0	0	100
fixed	3	5	10	417660	1	4	4	1	0	560	1	4	0	96	58	0	0	100
fixed	3	5	11	418863	5	2	2	1	0	765	1	4	0	80	59	0	0	100
fixed	3	5	12	419962	4	3	3	1	0	550	1	4	0	88	60	0	0	100
fixed	3	6	1	421224	4	1	1	1	0	672	1	4	0	72	61	0	0	100
fixed	3	6	2	422656	1	2	2	1	0	660	1	4	0	80	62	0	0	100
fixed	3	6	3	424154	6	4	4	1	0	844	1	4	0	96	63	0	0	100
fixed	3	6	4	425615	2	1	1	1	0	711	1	4	0	72	64	0	0	100
fixed	3	6	5	427281	5	3	3	1	0	616	1	4	0	88	65	0	0	100
fixed	3	6	6	428459	6	4	4	1	0	614	1	4	0	96	66	0	0	100
fixed	3	6	7	429363	3	1	1	1	0	840	1	4	0	72	67	0	0	100
fixed	3	6	8	431003	2	3	3	1	0	674	1	4	0	88	68	0	0	100
fixed	3	6	9	431974	3	2	2	1	0	457	1	4	0	80	69	0	0	100
fixed	3	6	10	432953	1	4	4	1	0	704	1	4	0	96	70	0	0	100
fixed	3	6	11	434334	5	2	2	1	0	702	1	4	0	80	71	0	0	100
fixed	3	6	12	435388	4	3	3	1	0	409	1	4	0	88	72	0	0	100
fixed	3	7	1	436946	4	1	1	1	0	598	1	4	0	72	73	0	0	100
fixed	3	7	2	438360	1	2	2	1	0	595	1	4	0	80	74	0	0	100
fixed	3	7	3	439326	6	4	4	1	0	578	1	4	0	96	75	0	0	100
fixed	3	7	4	440351	2	1	1	1	0	838	1	4	0	72	76	0	0	100
fixed	3	7	5	441566	5	3	3	1	0	907	1	4	0	88	77	0	0	100
fixed	3	7	6	443372	6	4	4	1	0	447	1	4	0	96	78	0	0	100
fixed	3	7	7	444699	3	1	1	1	0	502	1	4	0	72	79	0	0	100
fixed	3	7	8	445629	2	3	3	1	0	631	1	4	0	88	80	0	0	100
fixed	3	7	9	446921	3	2	2	1	0	400	1	4	0	80	81	0	0	100
fixed	3	7	10	447932	1	4	4	1	0	549	1	4	0	96	82	0	0	100
fixed	3	7	11	449504	5	2	2	1	0	987	1	4	0	80	83	0	0	100
fixed	3	7	12	451526	4	3	3	1	0	349	1	4	0	88	84	0	0	100
fixed	3	8	1	453102	4	1	1	1	0	426	1	4	0	72	85	0	0	100
fixed	3	8	2	454216	1	2	2	1	0	851	1	4	0	80	86	0	0	100
fixed	3	8	3	455989	6	4	4	1	0	688	1	4	0	96	87	0	0	100
fixed	3	8	4	457695	2	1	1	1	0	848	1	4	0	72	88	0	0	100
fixed	3	8	5	459192	5	3	3	1	0	769	1	4	0	88	89	0	0	100
fixed	3	8	6	460820	6	4	4	1	0	643	1	4	0	96	90	0	0	100
fixed	3	8	7	461976	3	1	1	1	0	634	1	4	0	72	91	0	0	100
fixed	3	8	8	463155	2	3	3	1	0	617	1	4	0	88	92	0	0	100
fixed	3	8	9	464147	3	2	2	1	0	590	1	4	0	80	93	0	0	100
fixed	3	8	10	465721	1	4	4	1	0	588	1	4	0	96	94	0	0	100
fixed	3	8	11	467120	5	2	2	1	0	712	1	4	0	80	95	0	0	100
fixed	3	8	12	468225	4	3	3	1	0	634	1	4	0	88	96	0	0	100
fixed	3	9	1	469877	4	1	1	1	0	748	1	4	0	72	97	0	0	100
fixed	3	9	2	470914	1	2	2	1	0	744	1	4	0	80	98	0	0	100
fixed	3	9	3	472144	6	4	4	1	0	588	1	4	0	96	99	0	0	100
fixed	3	9	4	473695	2	1	1	1	0	866	1	4	0	72	100	0	0	100
fixed	3	9	5	475200	5	3	3	1	0	787	1	4	0	88	101	0	0	100
fixed	3	9	6	476343	6	4	4	1	0	1058	1	4	0	96	102	0	0	100
fixed	3	9	7	477804	3	1	1	1	0	644	1	4	0	72	103	0	0	100
fixed	3	9	8	478760	2	3	3	1	0	812	1	4	0	88	104	0	0	100
fixed	3	9	9	480011	3	2	2	1	0	495	1	4	0	80	105	0	0	100
fixed	3	9	10	481219	1	4	4	1	0	723	1	4	0	96	106	0	0	100
fixed	3	9	11	482580	5	2	2	1	0	634	1	4	0	80	107	0	0	100
fixed	3	9	12	483542	4	3	3	1	0	473	1	4	0	88	108	0	0	100
fixed	3	10	1	484947	4	1	1	1	0	1429	1	4	0	72	109	0	0	100
fixed	3	10	2	487387	1	2	2	1	0	782	1	4	0	80	110	0	0	100
fixed	3	10	3	488872	6	4	4	1	0	823	1	4	0	96	111	0	0	100
fixed	3	10	4	490355	2	1	1	1	0	873	1	4	0	72	112	0	0	100
fixed	3	10	5	491952	5	3	3	1	0	813	1	4	0	88	113	0	0	100
fixed	3	10	6	493130	6	4	4	1	0	803	1	4	0	96	114	0	0	100
fixed	3	10	7	494755	3	1	1	1	0	670	1	4	0	72	115	0	0	100
fixed	3	10	8	496201	2	3	3	1	0	609	1	4	0	88	116	0	0	100
fixed	3	10	9	497141	3	2	2	1	0	505	1	4	0	80	117	0	0	100
fixed	3	10	10	498396	1	4	4	1	0	556	1	4	0	96	118	0	0	100
fixed	3	10	11	499641	5	2	2	1	0	775	1	4	0	80	119	0	0	100
fixed	3	10	12	500824	4	3	3	1	0	349	1	4	0	88	120	0	0	100
fixed	4	1	1	626726	4	1	1	2	0	760	2	4	0	104	1	0	0	100
fixed	4	1	2	628328	1	2	2	1	0	645	1	4	0	112	2	0	0	100
fixed	4	1	3	629453	6	4	4	1	0	517	1	4	0	128	3	0	0	100
fixed	4	1	4	630879	2	1	1	1	0	633	1	4	0	104	4	0	0	100
fixed	4	1	5	631921	5	3	3	1	0	693	1	4	0	120	5	0	0	100
fixed	4	1	6	633504	6	4	4	1	0	554	1	4	0	128	6	0	0	100
fixed	4	1	7	634600	3	1	1	1	0	691	1	4	0	104	7	0	0	100
fixed	4	1	8	636212	2	3	3	1	0	711	1	4	0	120	8	0	0	100
fixed	4	1	9	637353	3	2	2	1	0	334	1	4	0	112	9	0	0	100
fixed	4	1	10	638532	1	4	4	1	0	437	1	4	0	128	10	0	0	100
fixed	4	1	11	639826	5	2	2	1	0	597	1	4	0	112	11	0	0	100
fixed	4	1	12	640983	4	3	3	1	0	301	1	4	0	120	12	0	0	100
fixed	4	2	1	641848	4	1	1	1	0	400	1	4	0	104	13	0	0	100
fixed	4	2	2	642916	1	2	2	1	0	522	1	4	0	112	14	0	0	100
fixed	4	2	3	644472	6	4	4	1	0	545	1	4	0	128	15	0	0	100
fixed	4	2	4	645498	2	1	1	1	0	709	1	4	0	104	16	0	0	100
fixed	4	2	5	646779	5	3	3	1	0	623	1	4	0	120	17	0	0	100
fixed	4	2	6	648104	6	4	4	1	0	679	1	4	0	128	18	0	0	100
fixed	4	2	7	649105	3	1	1	1	0	837	1	4	0	104	19	0	0	100
fixed	4	2	8	650842	2	3	3	1	0	651	1	4	0	120	20	0	0	100
fixed	4	2	9	651997	3	2	2	1	0	362	1	4	0	112	21	0	0	100
fixed	4	2	10	653125	1	4	4	1	0	690	1	4	0	128	22	0	0	100
fixed	4	2	11	654318	5	2	2	1	0	568	1	4	0	112	23	0	0	100
fixed	4	2	12	655866	4	3	3	1	0	286	1	4	0	120	24	0	0	100
fixed	4	3	1	657253	4	1	1	1	0	387	1	4	0	104	25	0	0	100
fixed	4	3	2	658488	1	2	2	1	0	631	1	4	0	112	26	0	0	100
fixed	4	3	3	660023	6	4	4	1	0	503	1	4	0	128	27	0	0	100
fixed	4	3	4	661298	2	1	1	1	0	680	1	4	0	104	28	0	0	100
fixed	4	3	5	662729	5	3	3	1	0	588	1	4	0	120	29	0	0	100
fixed	4	3	6	663849	6	4	4	1	0	684	1	4	0	128	30	0	0	100
fixed	4	3	7	665028	3	1	1	1	0	610	1	4	0	104	31	0	0	100
fixed	4	3	8	666100	2	3	3	1	0	845	1	4	0	120	32	0	0	100
fixed	4	3	9	667798	3	2	2	1	0	493	1	4	0	112	33	0	0	100
fixed	4	3	10	668583	1	4	4	1	0	908	1	4	0	128	34	0	0	100
fixed	4	3	11	670476	5	2	2	1	0	908	1	4	0	112	35	0	0	100
fixed	4	3	12	672274	4	3	3	1	0	359	1	4	0	120	36	0	0	100
fixed	4	4	1	673610	4	1	1	1	0	422	1	4	0	104	37	0	0	100
fixed	4	4	2	675059	1	2	2	1	0	298	1	4	0	112	38	0	0	100
fixed	4	4	3	676088	6	4	4	1	0	358	1	4	0	128	39	0	0	100
fixed	4	4	4	677345	2	1	1	1	0	777	1	4	0	104	40	0	0	100
fixed	4	4	5	678432	5	3	3	1	0	659	1	4	0	120	41	0	0	100
fixed	4	4	6	679523	6	4	4	1	0	628	1	4	0	128	42	0	0	100
fixed	4	4	7	680651	3	1	1	1	0	749	1	4	0	104	43	0	0	100
fixed	4	4	8	682413	2	3	3	1	0	762	1	4	0	120	44	0	0	100
fixed	4	4	9	684129	3	2	2	1	0	321	1	4	0	112	45	0	0	100
fixed	4	4	10	684776	1	4	4	1	0	718	1	4	0	128	46	0	0	100
fixed	4	4	11	686178	5	2	2	1	0	578	1	4	0	112	47	0	0	100
fixed	4	4	12	687731	4	3	3	1	0	257	1	4	0	120	48	0	0	100
fixed	4	5	1	689281	4	1	1	1	0	623	1	4	0	104	49	0	0	100
fixed	4	5	2	690290	1	2	2	1	0	916	1	4	0	112	50	0	0	100
fixed	4	5	3	691806	6	4	4	1	0	364	1	4	0	128	51	0	0	100
fixed	4	5	4	692984	2	1	1	1	0	554	1	4	0	104	52	0	0	100
fixed	4	5	5	694063	5	3	3	1	0	724	1	4	0	120	53	0	0	100
fixed	4	5	6	695416	6	4	4	1	0	579	1	4	0	128	54	0	0	100
fixed	4	5	7	696714	3	1	1	1	0	396	1	4	0	104	55	0	0	100
fixed	4	5	8	697602	2	3	3	1	0	630	1	4	0	120	56	0	0	100
fixed	4	5	9	699136	3	2	2	1	0	334	1	4	0	112	57	0	0	100
fixed	4	5	10	699994	1	4	4	1	0	385	1	4	0	128	58	0	0	100
fixed	4	5	11	700828	5	2	2	1	0	918	1	4	0	112	59	0	0	100
fixed	4	5	12	702762	4	3	3	1	0	300	1	4	0	120	60	0	0	100
fixed	4	6	1	704302	4	1	1	1	0	883	1	4	0	104	61	0	0	100
fixed	4	6	2	706042	1	2	2	1	0	761	1	4	0	112	62	0	0	100
fixed	4	6	3	707756	6	4	4	1	0	673	1	4	0	128	63	0	0	100
fixed	4	6	4	709370	2	1	1	1	0	668	1	4	0	104	64	0	0	100
fixed	4	6	5	710834	5	3	3	1	0	558	1	4	0	120	65	0	0	100
fixed	4	6	6	711818	6	4	4	1	0	628	1	4	0	128	66	0	0	100
fixed	4	6	7	713391	3	1	1	1	0	610	1	4	0	104	67	0	0	100
fixed	4	6	8	714650	2	3	3	1	0	604	1	4	0	120	68	0	0	100
fixed	4	6	9	715664	3	2	2	1	0	441	1	4	0	112	69	0	0	100
fixed	4	6	10	717082	1	4	4	1	0	493	1	4	0	128	70	0	0	100
fixed	4	6	11	718602	5	2	2	1	0	885	1	4	0	112	71	0	0	100
fixed	4	6	12	719954	4	3	3	1	0	603	1	4	0	120	72	0	0	100
fixed	4	7	1	721226	4	1	1	1	0	622	1	4	0	104	73	0	0	100
fixed	4	7	2	722669	1	2	2	1	0	577	1	4	0	112	74	0	0	100
fixed	4	7	3	723832	6	4	4	1	0	583	1	4	0	128	75	0	0	100
fixed	4	7	4	724772	2	1	1	1	0	784	1	4	0	104	76	0	0	100
fixed	4	7	5	726117	5	3	3	1	0	591	1	4	0	120	77	0	0	100
fixed	4	7	6	727498	6	4	4	1	0	652	1	4	0	128	78	0	0	100
fixed	4	7	7	728992	3	1	1	1	0	637	1	4	0	104	79	0	0	100
fixed	4	7	8	730180	2	3	3	1	0	626	1	4	0	120	80	0	0	100
fixed	4	7	9	731246	3	2	2	1	0	422	1	4	0	112	81	0	0	100
fixed	4	7	10	732624	1	4	4	1	0	571	1	4	0	128	82	0	0	100
fixed	4	7	11	733934	5	2	2	2	0	1396	2	4	0	112	83	0	0	100
fixed	4	7	12	736056	4	3	3	1	0	506	1	4	0	120	84	0	0	100
fixed	4	8	1	737583	4	1	1	1	0	697	1	4	0	104	85	0	0	100
fixed	4	8	2	739169	1	2	2	1	0	542	1	4	0	112	86	0	0	100
fixed	4	8	3	740362	6	4	4	1	0	563	1	4	0	128	87	0	0	100
fixed	4	8	4	741471	2	1	1	1	0	621	1	4	0	104	88	0	0	100
fixed	4	8	5	742607	5	3	3	1	0	605	1	4	0	120	89	0	0	100
fixed	4	8	6	743795	6	4	4	1	0	626	1	4	0	128	90	0	0	100
fixed	4	8	7	745236	3	1	1	1	0	573	1	4	0	104	91	0	0	100
fixed	4	8	8	746560	2	3	3	1	0	749	1	4	0	120	92	0	0	100
fixed	4	8	9	747597	3	2	2	1	0	585	1	4	0	112	93	0	0	100
fixed	4	8	10	749037	1	4	4	1	0	1020	1	4	0	128	94	0	0	100
fixed	4	8	11	751026	5	2	2	1	0	728	1	4	0	112	95	0	0	100
fixed	4	8	12	752103	4	3	3	1	0	418	1	4	0	120	96	0	0	100
fixed	4	9	1	753639	4	1	1	1	0	561	1	4	0	104	97	0	0	100
fixed	4	9	2	755156	1	2	2	1	0	321	1	4	0	112	98	0	0	100
fixed	4	9	3	756380	6	4	4	1	0	565	1	4	0	128	99	0	0	100
fixed	4	9	4	757880	2	1	1	1	0	582	1	4	0	104	100	0	0	100
fixed	4	9	5	759469	5	3	3	1	0	682	1	4	0	120	101	0	0	100
fixed	4	9	6	761130	6	4	4	1	0	596	1	4	0	128	102	0	0	100
fixed	4	9	7	762102	3	1	1	1	0	707	1	4	0	104	103	0	0	100
fixed	4	9	8	763484	2	3	3	1	0	576	1	4	0	120	104	0	0	100
fixed	4	9	9	764535	3	2	2	1	0	379	1	4	0	112	105	0	0	100
fixed	4	9	10	765841	1	4	4	1	0	900	1	4	0	128	106	0	0	100
fixed	4	9	11	767660	5	2	2	1	0	1007	1	4	0	112	107	0	0	100
fixed	4	9	12	769275	4	3	3	1	0	266	1	4	0	120	108	0	0	100
fixed	4	10	1	770280	4	1	1	1	0	360	1	4	0	104	109	0	0	100
fixed	4	10	2	771262	1	2	2	1	0	335	1	4	0	112	110	0	0	100
fixed	4	10	3	771939	6	4	4	1	0	682	1	4	0	128	111	0	0	100
fixed	4	10	4	772933	2	1	1	1	0	704	1	4	0	104	112	0	0	100
fixed	4	10	5	774061	5	3	3	1	0	584	1	4	0	120	113	0	0	100
fixed	4	10	6	775516	6	4	4	1	0	371	1	4	0	128	114	0	0	100
fixed	4	10	7	776611	3	1	1	1	0	412	1	4	0	104	115	0	0	100
fixed	4	10	8	777667	2	3	3	1	0	671	1	4	0	120	116	0	0	100
fixed	4	10	9	778811	3	2	2	1	0	495	1	4	0	112	117	0	0	100
fixed	4	10	10	779926	1	4	4	1	0	656	1	4	0	128	118	0	0	100
fixed	4	10	11	781263	5	2	2	1	0	591	1	4	0	112	119	0	0	100
fixed	4	10	12	782558	4	3	3	1	0	264	1	4	0	120	120	0	0	100
fixed	5	1	1	784028	4	1	1	1	0	298	1	4	0	136	1	0	0	100
fixed	5	1	2	785278	1	2	2	1	0	533	1	4	0	144	2	0	0	100
fixed	5	1	3	786571	6	4	4	1	0	590	1	4	0	160	3	0	0	100
fixed	5	1	4	787723	2	1	1	1	0	549	1	4	0	136	4	0	0	100
fixed	5	1	5	788930	5	3	3	1	0	746	1	4	0	152	5	0	0	100
fixed	5	1	6	790706	6	4	4	1	0	431	1	4	0	160	6	0	0	100
fixed	5	1	7	791886	3	1	1	1	0	429	1	4	0	136	7	0	0	100
fixed	5	1	8	792697	2	3	3	1	0	756	1	4	0	152	8	0	0	100
fixed	5	1	9	794314	3	2	2	1	0	358	1	4	0	144	9	0	0	100
fixed	5	1	10	795562	1	4	4	1	0	545	1	4	0	160	10	0	0	100
fixed	5	1	11	797112	5	2	2	1	0	744	1	4	0	144	11	0	0	100
fixed	5	1	12	798538	4	3	3	1	0	283	1	4	0	152	12	0	0	100
fixed	5	2	1	799836	4	1	1	1	0	676	1	4	0	136	13	0	0	100
fixed	5	2	2	801474	1	2	2	1	0	463	1	4	0	144	14	0	0	100
fixed	5	2	3	802556	6	4	4	1	0	682	1	4	0	160	15	0	0	100
fixed	5	2	4	803615	2	1	1	1	0	748	1	4	0	136	16	0	0	100
fixed	5	2	5	805042	5	3	3	1	0	640	1	4	0	152	17	0	0	100
fixed	5	2	6	806434	6	4	4	1	0	621	1	4	0	160	18	0	0	100
fixed	5	2	7	807742	3	1	1	1	0	485	1	4	0	136	19	0	0	100
fixed	5	2	8	809171	2	3	3	1	0	705	1	4	0	152	20	0	0	100
fixed	5	2	9	810372	3	2	2	1	0	366	1	4	0	144	21	0	0	100
fixed	5	2	10	811764	1	4	4	1	0	539	1	4	0	160	22	0	0	100
fixed	5	2	11	813190	5	2	2	1	0	871	1	4	0	144	23	0	0	100
fixed	5	2	12	814490	4	3	3	1	0	320	1	4	0	152	24	0	0	100
fixed	5	3	1	815926	4	1	1	1	0	531	1	4	0	136	25	0	0	100
fixed	5	3	2	817312	1	2	2	1	0	280	1	4	0	144	26	0	0	100
fixed	5	3	3	818163	6	4	4	1	0	644	1	4	0	160	27	0	0	100
fixed	5	3	4	819764	2	1	1	1	0	865	1	4	0	136	28	0	0	100
fixed	5	3	5	821135	5	3	3	1	0	774	1	4	0	152	29	0	0	100
fixed	5	3	6	822603	6	4	4	1	0	528	1	4	0	160	30	0	0	100
fixed	5	3	7	823985	3	1	1	1	0	318	1	4	0	136	31	0	0	100
fixed	5	3	8	824956	2	3	3	1	0	621	1	4	0	152	32	0	0	100
fixed	5	3	9	826499	3	2	2	1	0	371	1	4	0	144	33	0	0	100
fixed	5	3	10	827485	1	4	4	1	0	817	1	4	0	160	34	0	0	100
fixed	5	3	11	829319	5	2	2	1	0	708	1	4	0	144	35	0	0	100
fixed	5	3	12	830619	4	3	3	1	0	421	1	4	0	152	36	0	0	100
fixed	5	4	1	831631	4	1	1	1	0	602	1	4	0	136	37	0	0	100
fixed	5	4	2	832762	1	2	2	1	0	378	1	4	0	144	38	0	0	100
fixed	5	4	3	833770	6	4	4	1	0	319	1	4	0	160	39	0	0	100
fixed	5	4	4	834768	2	1	1	1	0	669	1	4	0	136	40	0	0	100
fixed	5	4	5	836151	5	3	3	1	0	754	1	4	0	152	41	0	0	100
fixed	5	4	6	837224	6	4	4	1	0	733	1	4	0	160	42	0	0	100
fixed	5	4	7	838639	3	1	1	1	0	345	1	4	0	136	43	0	0	100
fixed	5	4	8	839402	2	3	3	1	0	608	1	4	0	152	44	0	0	100
fixed	5	4	9	841013	3	2	2	1	0	365	1	4	0	144	45	0	0	100
fixed	5	4	10	842214	1	4	4	1	0	610	1	4	0	160	46	0	0	100
fixed	5	4	11	843757	5	2	2	1	0	936	1	4	0	144	47	0	0	100
fixed	5	4	12	845692	4	3	3	1	0	310	1	4	0	152	48	0	0	100
fixed	5	5	1	846851	4	1	1	1	0	373	1	4	0	136	49	0	0	100
fixed	5	5	2	848108	1	2	2	1	0	472	1	4	0	144	50	0	0	100
fixed	5	5	3	848947	6	4	4	1	0	644	1	4	0	160	51	0	0	100
fixed	5	5	4	850621	2	1	1	1	0	774	1	4	0	136	52	0	0	100
fixed	5	5	5	852316	5	3	3	1	0	861	1	4	0	152	53	0	0	100
fixed	5	5	6	853736	6	4	4	1	0	665	1	4	0	160	54	0	0	100
fixed	5	5	7	854959	3	1	1	1	0	886	1	4	0	136	55	0	0	100
fixed	5	5	8	856522	2	3	3	1	0	668	1	4	0	152	56	0	0	100
fixed	5	5	9	858135	3	2	2	1	0	599	1	4	0	144	57	0	0	100
fixed	5	5	10	859530	1	4	4	1	0	668	1	4	0	160	58	0	0	100
fixed	5	5	11	860844	5	2	2	1	0	669	1	4	0	144	59	0	0	100
fixed	5	5	12	862491	4	3	3	1	0	382	1	4	0	152	60	0	0	100
fixed	5	6	1	864144	4	1	1	1	0	632	1	4	0	136	61	0	0	100
fixed	5	6	2	865474	1	2	2	1	0	313	1	4	0	144	62	0	0	100
fixed	5	6	3	866372	6	4	4	1	0	410	1	4	0	160	63	0	0	100
fixed	5	6	4	867810	2	1	1	1	0	773	1	4	0	136	64	0	0	100
fixed	5	6	5	869000	5	3	3	1	0	659	1	4	0	152	65	0	0	100
fixed	5	6	6	870021	6	4	4	1	0	656	1	4	0	160	66	0	0	100
fixed	5	6	7	871512	3	1	1	1	0	1128	1	4	0	136	67	0	0	100
fixed	5	6	8	873256	2	3	3	1	0	919	1	4	0	152	68	0	0	100
fixed	5	6	9	874492	3	2	2	1	0	466	1	4	0	144	69	0	0	100
fixed	5	6	10	875507	1	4	4	1	0	687	1	4	0	160	70	0	0	100
fixed	5	6	11	876519	5	2	2	1	0	765	1	4	0	144	71	0	0	100
fixed	5	6	12	877964	4	3	3	1	0	287	1	4	0	152	72	0	0	100
fixed	5	7	1	879465	4	1	1	1	0	376	1	4	0	136	73	0	0	100
fixed	5	7	2	880307	1	2	2	1	0	484	1	4	0	144	74	0	0	100
fixed	5	7	3	881154	6	4	4	1	0	672	1	4	0	160	75	0	0	100
fixed	5	7	4	882240	2	1	1	1	0	690	1	4	0	136	76	0	0	100
fixed	5	7	5	883655	5	3	3	1	0	647	1	4	0	152	77	0	0	100
fixed	5	7	6	884630	6	4	4	1	0	685	1	4	0	160	78	0	0	100
fixed	5	7	7	886311	3	1	1	1	0	710	1	4	0	136	79	0	0	100
fixed	5	7	8	887882	2	3	3	1	0	644	1	4	0	152	80	0	0	100
fixed	5	7	9	889230	3	2	2	1	0	570	1	4	0	144	81	0	0	100
fixed	5	7	10	890596	1	4	4	1	0	672	1	4	0	160	82	0	0	100
fixed	5	7	11	891793	5	2	2	1	0	629	1	4	0	144	83	0	0	100
fixed	5	7	12	893266	4	3	3	1	0	287	1	4	0	152	84	0	0	100
fixed	5	8	1	894284	4	1	1	1	0	788	1	4	0	136	85	0	0	100
fixed	5	8	2	895719	1	2	2	1	0	487	1	4	0	144	86	0	0	100
fixed	5	8	3	897191	6	4	4	1	0	345	1	4	0	160	87	0	0	100
fixed	5	8	4	898494	2	1	1	1	0	673	1	4	0	136	88	0	0	100
fixed	5	8	5	899953	5	3	3	1	0	620	1	4	0	152	89	0	0	100
fixed	5	8	6	901296	6	4	4	1	0	1035	1	4	0	160	90	0	0	100
fixed	5	8	7	902819	3	1	1	1	0	643	1	4	0	136	91	0	0	100
fixed	5	8	8	904409	2	3	3	1	0	759	1	4	0	152	92	0	0	100
fixed	5	8	9	906027	3	2	2	1	0	738	1	4	0	144	93	0	0	100
fixed	5	8	10	907452	1	4	4	1	0	710	1	4	0	160	94	0	0	100
fixed	5	8	11	908680	5	2	2	1	0	875	1	4	0	144	95	0	0	100
fixed	5	8	12	909906	4	3	3	1	0	550	1	4	0	152	96	0	0	100
fixed	5	9	1	911226	4	1	1	1	0	766	1	4	0	136	97	0	0	100
fixed	5	9	2	912875	1	2	2	1	0	761	1	4	0	144	98	0	0	100
fixed	5	9	3	914580	6	4	4	1	0	521	1	4	0	160	99	0	0	100
fixed	5	9	4	915442	2	1	1	1	0	868	1	4	0	136	100	0	0	100
fixed	5	9	5	917247	5	3	3	1	0	728	1	4	0	152	101	0	0	100
fixed	5	9	6	918937	6	4	4	1	0	456	1	4	0	160	102	0	0	100
fixed	5	9	7	920340	3	1	1	1	0	877	1	4	0	136	103	0	0	100
fixed	5	9	8	921563	2	3	3	1	0	705	1	4	0	152	104	0	0	100
fixed	5	9	9	922954	3	2	2	1	0	317	1	4	0	144	105	0	0	100
fixed	5	9	10	923919	1	4	4	1	0	941	1	4	0	160	106	0	0	100
fixed	5	9	11	925186	5	2	2	1	0	839	1	4	0	144	107	0	0	100
fixed	5	9	12	926680	4	3	3	1	0	256	1	4	0	152	108	0	0	100
fixed	5	10	1	928017	4	1	1	1	0	431	1	4	0	136	109	0	0	100
fixed	5	10	2	929357	1	2	2	1	0	278	1	4	0	144	110	0	0	100
fixed	5	10	3	930366	6	4	4	1	0	252	1	4	0	160	111	0	0	100
fixed	5	10	4	931609	2	1	1	1	0	623	1	4	0	136	112	0	0	100
fixed	5	10	5	933011	5	3	0	0	2	0	3	4	0	152	112	0	1	99
fixed	5	10	6	935909	6	4	4	1	0	497	1	4	0	160	113	0	1	99
fixed	5	10	7	936802	3	1	1	1	0	955	1	4	0	136	114	0	1	99
fixed	5	10	8	938681	2	3	3	1	0	780	1	4	0	152	115	0	1	99
fixed	5	10	9	939887	3	2	2	1	0	425	1	4	0	144	116	0	1	99
fixed	5	10	10	940835	1	4	4	1	0	680	1	4	0	160	117	0	1	99
fixed	5	10	11	942338	5	2	2	1	0	697	1	4	0	144	118	0	1	99
fixed	5	10	12	943395	4	3	3	1	0	372	1	4	0	152	119	0	1	99
random	6	1	1	1054157	6	1	1	1	0	1000	1	4	0	168	1	0	0	100
random	6	1	2	1055797	4	4	4	1	0	707	1	4	0	192	2	0	0	100
random	6	1	3	1057063	2	2	2	1	0	630	1	4	0	176	3	0	0	100
random	6	1	4	1058034	3	3	3	1	0	572	1	4	0	184	4	0	0	100
random	6	1	5	1059573	5	2	2	1	0	707	1	4	0	176	5	0	0	100
random	6	1	6	1060712	1	4	4	1	0	851	1	4	0	192	6	0	0	100
random	6	1	7	1061937	6	1	1	1	0	655	1	4	0	168	7	0	0	100
random	6	1	8	1063489	2	3	3	1	0	629	1	4	0	184	8	0	0	100
random	6	1	9	1064499	4	2	2	1	0	579	1	4	0	176	9	0	0	100
random	6	1	10	1065470	1	1	1	1	0	809	1	4	0	168	10	0	0	100
random	6	1	11	1066956	5	4	4	1	0	474	1	4	0	192	11	0	0	100
random	6	1	12	1068078	3	3	3	1	0	595	1	4	0	184	12	0	0	100
random	6	1	13	1069280	5	2	2	1	0	944	1	4	0	176	13	0	0	100
random	6	1	14	1071052	1	4	4	1	0	637	1	4	0	192	14	0	0	100
random	6	1	15	1072449	3	1	1	1	0	730	1	4	0	168	15	0	0	100
random	6	1	16	1073677	4	3	3	1	0	1054	1	4	0	184	16	0	0	100
random	6	1	17	1075373	6	4	4	1	0	614	1	4	0	192	17	0	0	100
random	6	1	18	1076921	2	1	1	1	0	740	1	4	0	168	18	0	0	100
random	6	1	19	1078219	5	3	3	1	0	629	1	4	0	184	19	0	0	100
random	6	1	20	1079620	2	2	2	1	0	690	1	4	0	176	20	0	0	100
random	6	1	21	1080727	3	3	3	1	0	755	1	4	0	184	21	0	0	100
random	6	1	22	1082028	6	1	1	1	0	828	1	4	0	168	22	0	0	100
random	6	1	23	1083448	4	2	2	1	0	696	1	4	0	176	23	0	0	100
random	6	1	24	1085013	1	4	4	1	0	726	1	4	0	192	24	0	0	100
random	6	1	25	1086907	4	3	3	1	0	917	1	4	0	184	25	0	0	100
random	6	1	26	1088121	2	1	1	1	0	722	1	4	0	168	26	0	0	100
random	6	1	27	1089557	5	2	2	1	0	957	1	4	0	176	27	0	0	100
random	6	1	28	1090864	6	4	4	1	0	630	1	4	0	192	28	0	0	100
random	6	1	29	1092028	1	3	3	1	0	805	1	4	0	184	29	0	0	100
random	6	1	30	1093785	5	2	2	1	0	826	1	4	0	176	30	0	0	100
random	6	1	31	1095250	2	1	1	1	0	1036	1	4	0	168	31	0	0	100
random	6	1	32	1096838	3	3	3	1	0	1025	1	4	0	184	32	0	0	100
random	6	1	33	1098824	6	4	4	1	0	677	1	4	0	192	33	0	0	100
random	6	1	34	1100479	4	2	2	1	0	743	1	4	0	176	34	0	0	100
random	6	1	35	1101959	3	4	4	2	0	1672	2	4	0	192	35	0	0	100
random	6	1	36	1104521	1	1	1	1	0	1051	1	4	0	168	36	0	0	100
random	6	1	37	1106622	3	4	4	1	0	850	1	4	0	192	37	0	0	100
random	6	1	38	1108359	5	3	3	1	0	737	1	4	0	184	38	0	0	100
random	6	1	39	1109494	6	1	1	1	0	745	1	4	0	168	39	0	0	100
random	6	1	40	1110630	1	2	2	1	0	984	1	4	0	176	40	0	0	100
random	6	1	41	1112059	2	3	3	1	0	588	1	4	0	184	41	0	0	100
random	6	1	42	1113609	4	4	4	1	0	522	1	4	0	192	42	0	0	100
random	6	1	43	1114788	1	2	2	1	0	649	1	4	0	176	43	0	0	100
random	6	1	44	1116406	6	3	3	1	0	612	1	4	0	184	44	0	0	100
random	6	1	45	1117324	3	1	1	1	0	813	1	4	0	168	45	0	0	100
random	6	1	46	1119042	4	4	4	1	0	796	1	4	0	192	46	0	0	100
random	6	1	47	1120185	2	2	2	1	0	732	1	4	0	176	47	0	0	100
random	6	1	48	1121905	5	1	1	1	0	771	1	4	0	168	48	0	0	100
random	6	1	49	1123296	2	3	3	1	0	1104	1	4	0	184	49	0	0	100
random	6	1	50	1125395	3	1	1	1	0	784	1	4	0	168	50	0	0	100
random	6	1	51	1126796	1	4	4	1	0	748	1	4	0	192	51	0	0	100
random	6	1	52	1127946	5	3	3	1	0	787	1	4	0	184	52	0	0	100
random	6	1	53	1129553	3	2	2	1	0	775	1	4	0	176	53	0	0	100
random	6	1	54	1131049	6	4	4	1	0	1208	1	4	0	192	54	0	0	100
random	6	1	55	1132943	4	2	2	1	0	760	1	4	0	176	55	0	0	100
random	6	1	56	1134189	1	1	1	1	0	795	1	4	0	168	56	0	0	100
random	6	1	57	1135646	5	4	4	1	0	1013	1	4	0	192	57	0	0	100
random	6	1	58	1137575	2	1	1	1	0	844	1	4	0	168	58	0	0	100
random	6	1	59	1138845	6	2	2	1	0	846	1	4	0	176	59	0	0	100
random	6	1	60	1140017	4	3	3	1	0	740	1	4	0	184	60	0	0	100
random	6	1	61	1142025	1	2	2	1	0	999	1	4	0	176	61	0	0	100
random	6	1	62	1143911	6	4	4	1	0	703	1	4	0	192	62	0	0	100
random	6	1	63	1145013	4	1	1	1	0	929	1	4	0	168	63	0	0	100
random	6	1	64	1146659	2	2	2	1	0	683	1	4	0	176	64	0	0	100
random	6	1	65	1147664	4	3	3	1	0	736	1	4	0	184	65	0	0	100
random	6	1	66	1149223	3	1	1	1	0	902	1	4	0	168	66	0	0	100
random	6	1	67	1150601	1	3	3	2	0	1700	2	4	0	184	67	0	0	100
random	6	1	68	1153105	5	4	4	1	0	754	1	4	0	192	68	0	0	100
random	6	1	69	1154569	2	2	2	1	0	892	1	4	0	176	69	0	0	100
random	6	1	70	1156303	3	1	1	1	0	827	1	4	0	168	70	0	0	100
random	6	1	71	1158038	5	4	4	1	0	1329	1	4	0	192	71	0	0	100
random	6	1	72	1159828	6	3	3	1	0	781	1	4	0	184	72	0	0	100
random	6	1	73	1161373	2	1	1	1	0	883	1	4	0	168	73	0	0	100
random	6	1	74	1162816	5	3	3	1	0	638	1	4	0	184	74	0	0	100
random	6	1	75	1163790	1	4	4	1	0	789	1	4	0	192	75	0	0	100
random	6	1	76	1164869	6	2	2	1	0	983	1	4	0	176	76	0	0	100
random	6	1	77	1166350	2	1	1	1	0	1144	1	4	0	168	77	0	0	100
random	6	1	78	1168108	4	4	4	1	0	854	1	4	0	192	78	0	0	100
random	6	1	79	1169293	3	2	2	1	0	876	1	4	0	176	79	0	0	100
random	6	1	80	1170538	4	3	3	1	0	767	1	4	0	184	80	0	0	100
random	6	1	81	1171892	1	4	4	1	0	798	1	4	0	192	81	0	0	100
random	6	1	82	1173529	5	1	1	1	0	745	1	4	0	168	82	0	0	100
random	6	1	83	1174883	3	2	2	1	0	703	1	4	0	176	83	0	0	100
random	6	1	84	1176560	6	3	3	1	0	960	1	4	0	184	84	0	0	100
random	6	1	85	1178131	3	2	2	1	0	1102	1	4	0	176	85	0	0	100
random	6	1	86	1179950	1	3	3	1	0	800	1	4	0	184	86	0	0	100
random	6	1	87	1181319	4	4	4	1	0	1014	1	4	0	192	87	0	0	100
random	6	1	88	1182749	2	1	1	1	0	922	1	4	0	168	88	0	0	100
random	6	1	89	1184516	6	4	4	1	0	1191	1	4	0	192	89	0	0	100
random	6	1	90	1186061	3	3	3	1	0	918	1	4	0	184	90	0	0	100
random	6	1	91	1187909	5	4	4	1	0	1808	1	4	0	192	91	0	0	100
random	6	1	92	1190341	1	2	2	1	0	752	1	4	0	176	92	0	0	100
random	6	1	93	1192085	5	1	1	1	0	687	1	4	0	168	93	0	0	100
random	6	1	94	1193342	4	3	3	1	0	1194	1	4	0	184	94	0	0	100
random	6	1	95	1194939	6	1	1	1	0	798	1	4	0	168	95	0	0	100
random	6	1	96	1196369	2	2	2	1	0	761	1	4	0	176	96	0	0	100
random	6	1	97	1198180	4	3	3	1	0	1124	1	4	0	184	97	0	0	100
random	6	1	98	1199631	3	2	2	1	0	719	1	4	0	176	98	0	0	100
random	6	1	99	1201386	6	3	3	1	0	924	1	4	0	184	99	0	0	100
random	6	1	100	1202892	1	4	4	1	0	685	1	4	0	192	100	0	0	100
random	6	1	101	1204465	4	1	1	1	0	866	1	4	0	168	101	0	0	100
random	6	1	102	1205842	5	2	0	1	2	0	3	4	0	176	101	0	1	99
random	6	1	103	1208628	2	4	4	1	0	1330	1	4	0	192	102	0	1	99
random	6	1	104	1210285	3	1	1	1	0	1804	1	4	0	168	103	0	1	99
random	6	1	105	1212458	1	3	3	1	0	808	1	4	0	184	104	0	1	99
random	6	1	106	1214087	2	2	2	1	0	747	1	4	0	176	105	0	1	99
random	6	1	107	1215466	5	4	4	1	0	1025	1	4	0	192	106	0	1	99
random	6	1	108	1216893	6	1	1	1	0	612	1	4	0	168	107	0	1	99
random	6	1	109	1218530	5	4	4	1	0	822	1	4	0	192	108	0	1	99
random	6	1	110	1220231	6	3	3	1	0	1190	1	4	0	184	109	0	1	99
random	6	1	111	1221739	2	2	2	1	0	735	1	4	0	176	110	0	1	99
random	6	1	112	1223445	3	1	1	1	0	782	1	4	0	168	111	0	1	99
random	6	1	113	1225227	1	2	2	1	0	803	1	4	0	176	112	0	1	99
random	6	1	114	1226853	2	3	3	1	0	638	1	4	0	184	113	0	1	99
random	6	1	115	1228107	3	1	1	1	0	873	1	4	0	168	114	0	1	99
random	6	1	116	1229972	4	4	4	1	0	626	1	4	0	192	115	0	1	99
random	6	1	117	1230965	6	1	1	1	0	912	1	4	0	168	116	0	1	99
random	6	1	118	1232174	5	3	3	1	0	717	1	4	0	184	117	0	1	99
random	6	1	119	1233707	1	4	4	1	0	668	1	4	0	192	118	0	1	99
random	6	1	120	1235362	4	2	2	1	0	1614	1	4	0	176	119	0	1	99
fixed	7	1	1	1238309	4	1	1	1	0	1841	1	4	0	200	1	0	0	100
fixed	7	1	2	1240881	1	2	2	1	0	876	1	4	0	208	2	0	0	100
fixed	7	1	3	1242375	6	4	4	1	0	765	1	4	0	224	3	0	0	100
fixed	7	1	4	1243837	2	1	1	1	0	799	1	4	0	200	4	0	0	100
fixed	7	1	5	1245368	5	3	3	1	0	758	1	4	0	216	5	0	0	100
fixed	7	1	6	1246919	6	4	4	1	0	844	1	4	0	224	6	0	0	100
fixed	7	1	7	1248386	3	1	1	1	0	950	1	4	0	200	7	0	0	100
fixed	7	1	8	1249712	2	3	3	1	0	1214	1	4	0	216	8	0	0	100
fixed	7	1	9	1251888	3	2	2	1	0	762	1	4	0	208	9	0	0	100
fixed	7	1	10	1253593	1	4	4	1	0	930	1	4	0	224	10	0	0	100
fixed	7	1	11	1254964	5	2	2	1	0	1128	1	4	0	208	11	0	0	100
fixed	7	1	12	1256686	4	3	0	0	2	0	3	4	0	216	11	0	1	92
fixed	7	2	1	1260266	4	1	1	1	0	1111	1	4	0	200	1	0	0	8
fixed	7	2	2	1262377	1	2	2	1	0	870	1	4	0	208	2	0	0	14
fixed	7	2	3	1263717	6	4	4	1	0	653	1	4	0	224	3	0	0	20
fixed	7	2	4	1265350	2	1	1	1	0	704	1	4	0	200	4	0	0	25
fixed	7	2	5	1266743	5	3	3	1	0	813	1	4	0	216	5	0	0	29
fixed	7	2	6	1267945	6	4	4	1	0	682	1	4	0	224	6	0	0	33
fixed	7	2	7	1269192	3	1	1	1	0	621	1	4	0	200	7	0	0	37
fixed	7	2	8	1270400	2	3	3	1	0	642	1	4	0	216	8	0	0	40
fixed	7	2	9	1271655	3	2	2	1	0	621	1	4	0	208	9	0	0	43
fixed	7	2	10	1273093	1	4	4	1	0	1096	1	4	0	224	10	0	0	45
fixed	7	2	11	1274994	5	2	2	1	0	871	1	4	0	208	11	0	0	48
fixed	7	2	12	1276840	4	3	3	1	0	673	1	4	0	216	12	0	0	50
fixed	7	3	1	1278778	4	1	1	1	0	679	1	4	0	200	1	0	0	4
fixed	7	3	2	1280384	1	2	2	1	0	387	1	4	0	208	2	0	0	8
fixed	7	3	3	1281530	6	4	4	1	0	763	1	4	0	224	3	0	0	11
fixed	7	3	4	1282594	2	1	1	1	0	725	1	4	0	200	4	0	0	14
fixed	7	3	5	1283671	5	3	3	1	0	767	1	4	0	216	5	0	0	17
fixed	7	3	6	1285311	6	4	4	1	0	602	1	4	0	224	6	0	0	20
fixed	7	3	7	1286663	3	1	1	1	0	633	1	4	0	200	7	0	0	23
fixed	7	3	8	1287702	2	3	3	1	0	845	1	4	0	216	8	0	0	25
fixed	7	3	9	1289479	3	2	2	1	0	386	1	4	0	208	9	0	0	27
fixed	7	3	10	1290389	1	4	4	1	0	971	1	4	0	224	10	0	0	29
fixed	7	3	11	1292075	5	2	2	1	0	651	1	4	0	208	11	0	0	31
fixed	7	3	12	1293658	4	3	3	1	0	321	1	4	0	216	12	0	0	33
fixed	7	4	1	1295185	4	1	1	1	0	344	1	4	0	200	1	0	0	3
fixed	7	4	2	1296375	1	2	2	1	0	262	1	4	0	208	2	0	0	5
fixed	7	4	3	1297388	6	4	4	1	0	338	1	4	0	224	3	0	0	8
fixed	7	4	4	1298158	2	1	1	1	0	634	1	4	0	200	4	0	0	10
fixed	7	4	5	1299122	5	3	3	1	0	657	1	4	0	216	5	0	0	12
fixed	7	4	6	1300748	6	4	4	1	0	316	1	4	0	224	6	0	0	14
fixed	7	4	7	1301840	3	1	1	1	0	390	1	4	0	200	7	0	0	16
fixed	7	4	8	1302529	2	3	3	1	0	825	1	4	0	216	8	0	0	18
fixed	7	4	9	1304326	3	2	2	1	0	277	1	4	0	208	9	0	0	20
fixed	7	4	10	1305042	1	4	4	1	0	790	1	4	0	224	10	0	0	22
fixed	7	4	11	1306744	5	2	2	1	0	870	1	4	0	208	11	0	0	23
fixed	7	4	12	1308026	4	3	3	1	0	304	1	4	0	216	12	0	0	25
fixed	7	5	1	1308918	4	1	1	1	0	610	1	4	0	200	1	0	0	2
fixed	7	5	2	1309898	1	2	2	1	0	305	1	4	0	208	2	0	0	4
fixed	7	5	3	1310668	6	4	4	1	0	257	1	4	0	224	3	0	0	6
fixed	7	5	4	1311459	2	1	1	1	0	774	1	4	0	200	4	0	0	8
fixed	7	5	5	1312611	5	3	3	1	0	702	1	4	0	216	5	0	0	9
fixed	7	5	6	1313895	6	4	4	1	0	823	1	4	0	224	6	0	0	11
fixed	7	5	7	1315210	3	1	1	1	0	976	1	4	0	200	7	0	0	13
fixed	7	5	8	1317030	2	3	3	1	0	627	1	4	0	216	8	0	0	14
fixed	7	5	9	1317992	3	2	2	1	0	562	1	4	0	208	9	0	0	16
fixed	7	5	10	1319479	1	4	4	1	0	707	1	4	0	224	10	0	0	17
fixed	7	5	11	1320812	5	2	2	1	0	818	1	4	0	208	11	0	0	19
fixed	7	5	12	1322631	4	3	3	1	0	382	1	4	0	216	12	0	0	20
fixed	7	6	1	1323621	4	1	1	1	0	619	1	4	0	200	1	0	0	2
fixed	7	6	2	1324788	1	2	2	1	0	546	1	4	0	208	2	0	0	3
fixed	7	6	3	1326102	6	4	4	1	0	323	1	4	0	224	3	0	0	5
fixed	7	6	4	1327209	2	1	1	1	0	604	1	4	0	200	4	0	0	6
fixed	7	6	5	1328801	5	3	3	1	0	472	1	4	0	216	5	0	0	8
fixed	7	6	6	1329865	6	4	4	1	0	619	1	4	0	224	6	0	0	9
fixed	7	6	7	1330991	3	1	1	1	0	571	1	4	0	200	7	0	0	10
fixed	7	6	8	1331886	2	3	3	1	0	766	1	4	0	216	8	0	0	12
fixed	7	6	9	1333517	3	2	2	1	0	304	1	4	0	208	9	0	0	13
fixed	7	6	10	1334435	1	4	4	1	0	594	1	4	0	224	10	0	0	14
fixed	7	6	11	1335661	5	2	2	1	0	630	1	4	0	208	11	0	0	15
fixed	7	6	12	1337093	4	3	3	1	0	289	1	4	0	216	12	0	0	17
fixed	7	7	1	1338675	4	1	1	1	0	998	1	4	0	200	1	0	0	1
fixed	7	7	2	1340111	1	2	2	1	0	337	1	4	0	208	2	0	0	3
fixed	7	7	3	1340968	6	4	4	1	0	317	1	4	0	224	3	0	0	4
fixed	7	7	4	1341689	2	1	1	1	0	646	1	4	0	200	4	0	0	5
fixed	7	7	5	1343280	5	3	3	1	0	763	1	4	0	216	5	0	0	6
fixed	7	7	6	1344806	6	4	4	1	0	490	1	4	0	224	6	0	0	8
fixed	7	7	7	1345942	3	1	1	1	0	586	1	4	0	200	7	0	0	9
fixed	7	7	8	1347477	2	3	3	1	0	825	1	4	0	216	8	0	0	10
fixed	7	7	9	1348611	3	2	2	1	0	481	1	4	0	208	9	0	0	11
fixed	7	7	10	1349883	1	4	4	1	0	699	1	4	0	224	10	0	0	12
fixed	7	7	11	1351023	5	2	2	1	0	883	1	4	0	208	11	0	0	13
fixed	7	7	12	1352659	4	3	3	1	0	565	1	4	0	216	12	0	0	14
fixed	7	8	1	1354447	4	1	1	1	0	658	1	4	0	200	1	0	0	1
fixed	7	8	2	1355498	1	2	2	2	0	1109	2	4	0	208	2	0	0	2
fixed	7	8	3	1357651	6	4	4	1	0	611	1	4	0	224	3	0	0	3
fixed	7	8	4	1359004	2	1	1	1	0	1057	1	4	0	200	4	0	0	5
fixed	7	8	5	1360525	5	3	3	1	0	744	1	4	0	216	5	0	0	6
fixed	7	8	6	1361645	6	4	4	1	0	617	1	4	0	224	6	0	0	7
fixed	7	8	7	1362662	3	1	1	1	0	694	1	4	0	200	7	0	0	8
fixed	7	8	8	1363887	2	3	3	1	0	1002	1	4	0	216	8	0	0	9
fixed	7	8	9	1365924	3	2	2	2	0	363	2	4	0	208	9	0	0	10
fixed	7	8	10	1366771	1	4	4	1	0	1544	1	4	0	224	10	0	0	11
fixed	7	8	11	1369078	5	2	2	1	0	871	1	4	0	208	11	0	0	12
fixed	7	8	12	1370556	4	3	3	1	0	736	1	4	0	216	12	0	0	13
fixed	7	9	1	1372524	4	1	1	1	0	700	1	4	0	200	1	0	0	1
fixed	7	9	2	1373601	1	2	2	1	0	623	1	4	0	208	2	0	0	2
fixed	7	9	3	1375164	6	4	4	1	0	340	1	4	0	224	3	0	0	3
fixed	7	9	4	1376319	2	1	1	1	0	819	1	4	0	200	4	0	0	4
fixed	7	9	5	1378084	5	3	3	1	0	633	1	4	0	216	5	0	0	5
fixed	7	9	6	1379640	6	4	4	1	0	655	1	4	0	224	6	0	0	6
fixed	7	9	7	1380713	3	1	1	1	0	1273	1	4	0	200	7	0	0	7
fixed	7	9	8	1382641	2	3	3	1	0	664	1	4	0	216	8	0	0	8
fixed	7	9	9	1383617	3	2	2	1	0	702	1	4	0	208	9	0	0	9
fixed	7	9	10	1385129	1	4	4	1	0	1022	1	4	0	224	10	0	0	9
fixed	7	9	11	1387191	5	2	2	1	0	767	1	4	0	208	11	0	0	10
fixed	7	9	12	1388428	4	3	3	1	0	394	1	4	0	216	12	0	0	11
fixed	7	10	1	1389934	4	1	1	1	0	859	1	4	0	200	1	0	0	1
fixed	7	10	2	1391368	1	2	2	1	0	470	1	4	0	208	2	0	0	2
fixed	7	10	3	1392267	6	4	4	1	0	368	1	4	0	224	3	0	0	3
fixed	7	10	4	1393141	2	1	1	1	0	747	1	4	0	200	4	0	0	4
fixed	7	10	5	1394353	5	3	3	1	0	760	1	4	0	216	5	0	0	4
fixed	7	10	6	1395706	6	4	4	1	0	727	1	4	0	224	6	0	0	5
fixed	7	10	7	1397039	3	1	1	1	0	1454	1	4	0	200	7	0	0	6
fixed	7	10	8	1398914	2	3	3	1	0	759	1	4	0	216	8	0	0	7
fixed	7	10	9	1400286	3	2	2	1	0	565	1	4	0	208	9	0	0	8
fixed	7	10	10	1401563	1	4	4	1	0	686	1	4	0	224	10	0	0	8
fixed	7	10	11	1403271	5	2	2	1	0	854	1	4	0	208	11	0	0	9
fixed	7	10	12	1404521	4	3	3	1	0	353	1	4	0	216	12	0	0	10
