type	block	sequ.	trial	time	Pos.	Color	Button	NumRsp	Resp_1	RT_1	R_Code	Resp_2	RT_2	Trigg.	n_hit	n_inc	n_miss	score_%

random	1	1	1	11978	6	1	1	1	0	948	1	4	0	8	1	0	0	100
random	1	1	2	13269	4	4	4	1	0	821	1	4	0	32	2	0	0	100
random	1	1	3	14866	2	2	2	1	0	906	1	4	0	16	3	0	0	100
random	1	1	4	16735	3	3	3	1	0	619	1	4	0	24	4	0	0	100
random	1	1	5	17853	5	2	2	1	0	819	1	4	0	16	5	0	0	100
random	1	1	6	19117	1	4	4	1	0	653	1	4	0	32	6	0	0	100
random	1	1	7	20078	6	1	1	1	0	485	1	4	0	8	7	0	0	100
random	1	1	8	21484	2	3	3	1	0	1065	1	4	0	24	8	0	0	100
random	1	1	9	22880	4	2	2	1	0	558	1	4	0	16	9	0	0	100
random	1	1	10	23976	1	1	1	1	0	695	1	4	0	8	10	0	0	100
random	1	1	11	25694	5	4	4	1	0	663	1	4	0	32	11	0	0	100
random	1	1	12	27148	3	3	3	1	0	1186	1	4	0	24	12	0	0	100
random	1	1	13	29322	5	2	2	1	0	869	1	4	0	16	13	0	0	100
random	1	1	14	30531	1	4	4	1	0	650	1	4	0	32	14	0	0	100
random	1	1	15	31566	3	1	1	1	0	558	1	4	0	8	15	0	0	100
random	1	1	16	32923	4	3	3	1	0	853	1	4	0	24	16	0	0	100
random	1	1	17	34681	6	4	4	1	0	659	1	4	0	32	17	0	0	100
random	1	1	18	35763	2	1	1	1	0	509	1	4	0	8	18	0	0	100
random	1	1	19	37189	5	3	3	1	0	920	1	4	0	24	19	0	0	100
random	1	1	20	38885	2	2	2	1	0	424	1	4	0	16	20	0	0	100
random	1	1	21	40243	3	3	3	1	0	791	1	4	0	24	21	0	0	100
random	1	1	22	41928	6	1	1	1	0	783	1	4	0	8	22	0	0	100
random	1	1	23	43070	4	2	2	1	0	823	1	4	0	16	23	0	0	100
random	1	1	24	44333	1	4	4	1	0	713	1	4	0	32	24	0	0	100
random	1	1	25	46164	4	3	3	1	0	1124	1	4	0	24	25	0	0	100
random	1	1	26	47919	2	1	1	1	0	769	1	4	0	8	26	0	0	100
random	1	1	27	49676	5	2	2	1	0	751	1	4	0	16	27	0	0	100
random	1	1	28	51427	6	4	4	1	0	669	1	4	0	32	28	0	0	100
random	1	1	29	52531	1	3	3	1	0	790	1	4	0	24	29	0	0	100
random	1	1	30	53931	5	2	2	1	0	595	1	4	0	16	30	0	0	100
random	1	1	31	55143	2	1	1	1	0	688	1	4	0	8	31	0	0	100
random	1	1	32	56373	3	3	3	1	0	723	1	4	0	24	32	0	0	100
random	1	1	33	57672	6	4	4	1	0	653	1	4	0	32	33	0	0	100
random	1	1	34	59295	4	2	2	1	0	711	1	4	0	16	34	0	0	100
random	1	1	35	60364	3	4	4	1	0	690	1	4	0	32	35	0	0	100
random	1	1	36	61708	1	1	1	1	0	394	1	4	0	8	36	0	0	100
random	1	1	37	62822	3	4	4	1	0	1266	1	4	0	32	37	0	0	100
random	1	1	38	64975	5	3	3	1	0	1015	1	4	0	24	38	0	0	100
random	1	1	39	66904	6	1	1	1	0	797	1	4	0	8	39	0	0	100
random	1	1	40	68324	1	2	2	1	0	681	1	4	0	16	40	0	0	100
random	1	1	41	69325	2	3	3	1	0	727	1	4	0	24	41	0	0	100
random	1	1	42	70882	4	4	4	1	0	717	1	4	0	32	42	0	0	100
random	1	1	43	71964	1	2	2	1	0	775	1	4	0	16	43	0	0	100
random	1	1	44	73752	6	3	3	1	0	611	1	4	0	24	44	0	0	100
random	1	1	45	75306	3	1	1	1	0	553	1	4	0	8	45	0	0	100
random	1	1	46	76383	4	4	4	1	0	532	1	4	0	32	46	0	0	100
random	1	1	47	77550	2	2	2	1	0	699	1	4	0	16	47	0	0	100
random	1	1	48	78630	5	1	1	1	0	797	1	4	0	8	48	0	0	100
random	1	1	49	80031	2	3	3	1	0	897	1	4	0	24	49	0	0	100
random	1	1	50	81696	3	1	1	1	0	691	1	4	0	8	50	0	0	100
random	1	1	51	83420	1	4	4	1	0	642	1	4	0	32	51	0	0	100
random	1	1	52	84785	5	3	3	1	0	856	1	4	0	24	52	0	0	100
random	1	1	53	86340	3	2	2	1	0	502	1	4	0	16	53	0	0	100
random	1	1	54	87316	6	4	4	1	0	541	1	4	0	32	54	0	0	100
random	1	1	55	88657	4	2	2	1	0	796	1	4	0	16	55	0	0	100
random	1	1	56	90270	1	1	1	1	0	735	1	4	0	8	56	0	0	100
random	1	1	57	91721	5	4	4	1	0	723	1	4	0	32	57	0	0	100
random	1	1	58	92747	2	1	1	1	0	831	1	4	0	8	58	0	0	100
random	1	1	59	93984	6	2	2	1	0	714	1	4	0	16	59	0	0	100
random	1	1	60	95377	4	3	3	1	0	544	1	4	0	24	60	0	0	100
random	1	1	61	97206	1	2	2	1	0	834	1	4	0	16	61	0	0	100
random	1	1	62	98996	6	4	4	1	0	622	1	4	0	32	62	0	0	100
random	1	1	63	100658	4	1	1	1	0	616	1	4	0	8	63	0	0	100
random	1	1	64	102273	2	2	2	1	0	891	1	4	0	16	64	0	0	100
random	1	1	65	103615	4	3	0	0	2	0	3	4	0	24	64	0	1	98
random	1	1	66	106571	3	1	1	1	0	813	1	4	0	8	65	0	1	98
random	1	1	67	107922	1	3	3	1	0	1108	1	4	0	24	66	0	1	99
random	1	1	68	109394	5	4	4	1	0	662	1	4	0	32	67	0	1	99
random	1	1	69	111053	2	2	2	1	0	680	1	4	0	16	68	0	1	99
random	1	1	70	112331	3	1	1	1	0	697	1	4	0	8	69	0	1	99
random	1	1	71	113575	5	4	4	1	0	557	1	4	0	32	70	0	1	99
random	1	1	72	114893	6	3	3	1	0	749	1	4	0	24	71	0	1	99
random	1	1	73	116671	2	1	1	1	0	921	1	4	0	8	72	0	1	99
random	1	1	74	117897	5	3	3	1	0	870	1	4	0	24	73	0	1	99
random	1	1	75	119399	1	4	4	1	0	606	1	4	0	32	74	0	1	99
random	1	1	76	120708	6	2	2	1	0	679	1	4	0	16	75	0	1	99
random	1	1	77	121712	2	1	1	1	0	676	1	4	0	8	76	0	1	99
random	1	1	78	122878	4	4	4	1	0	547	1	4	0	32	77	0	1	99
random	1	1	79	124437	3	2	2	1	0	680	1	4	0	16	78	0	1	99
random	1	1	80	125578	4	3	3	1	0	528	1	4	0	24	79	0	1	99
random	1	1	81	126729	1	4	4	1	0	655	1	4	0	32	80	0	1	99
random	1	1	82	127708	5	1	1	1	0	398	1	4	0	8	81	0	1	99
random	1	1	83	128468	3	2	2	1	0	694	1	4	0	16	82	0	1	99
random	1	1	84	129792	6	3	3	1	0	678	1	4	0	24	83	0	1	99
random	1	1	85	131106	3	2	2	1	0	710	1	4	0	16	84	0	1	99
random	1	1	86	132386	1	3	3	1	0	568	1	4	0	24	85	0	1	99
random	1	1	87	133677	4	4	4	1	0	649	1	4	0	32	86	0	1	99
random	1	1	88	134988	2	1	1	1	0	370	1	4	0	8	87	0	1	99
random	1	1	89	136178	6	4	4	1	0	719	1	4	0	32	88	0	1	99
random	1	1	90	137937	3	3	3	1	0	852	1	4	0	24	89	0	1	99
random	1	1	91	139171	5	4	4	1	0	697	1	4	0	32	90	0	1	99
random	1	1	92	140480	1	2	2	1	0	729	1	4	0	16	91	0	1	99
random	1	1	93	142180	5	1	1	1	0	609	1	4	0	8	92	0	1	99
random	1	1	94	143537	4	3	3	1	0	775	1	4	0	24	93	0	1	99
random	1	1	95	144638	6	1	1	1	0	841	1	4	0	8	94	0	1	99
random	1	1	96	146329	2	2	2	1	0	721	1	4	0	16	95	0	1	99
random	1	1	97	147897	4	3	3	1	0	879	1	4	0	24	96	0	1	99
random	1	1	98	149739	3	2	2	1	0	697	1	4	0	16	97	0	1	99
random	1	1	99	150951	6	3	3	1	0	718	1	4	0	24	98	0	1	99
random	1	1	100	152230	1	4	4	1	0	671	1	4	0	32	99	0	1	99
random	1	1	101	153766	4	1	1	1	0	838	1	4	0	8	100	0	1	99
random	1	1	102	155273	5	2	2	1	0	735	1	4	0	16	101	0	1	99
random	1	1	103	156841	2	4	4	1	0	644	1	4	0	32	102	0	1	99
random	1	1	104	157912	3	1	1	1	0	767	1	4	0	8	103	0	1	99
random	1	1	105	159601	1	3	3	1	0	991	1	4	0	24	104	0	1	99
random	1	1	106	161382	2	2	2	1	0	564	1	4	0	16	105	0	1	99
random	1	1	107	162928	5	4	4	1	0	602	1	4	0	32	106	0	1	99
random	1	1	108	164413	6	1	1	1	0	411	1	4	0	8	107	0	1	99
random	1	1	109	165992	5	4	4	2	0	1256	2	4	0	32	108	0	1	99
random	1	1	110	168062	6	3	3	1	0	985	1	4	0	24	109	0	1	99
random	1	1	111	170041	2	2	2	1	0	757	1	4	0	16	110	0	1	99
random	1	1	112	171594	3	1	1	1	0	667	1	4	0	8	111	0	1	99
random	1	1	113	173126	1	2	2	1	0	738	1	4	0	16	112	0	1	99
random	1	1	114	174832	2	3	3	1	0	578	1	4	0	24	113	0	1	99
random	1	1	115	176233	3	1	1	1	0	766	1	4	0	8	114	0	1	99
random	1	1	116	177781	4	4	4	1	0	701	1	4	0	32	115	0	1	99
random	1	1	117	179027	6	1	1	1	0	792	1	4	0	8	116	0	1	99
random	1	1	118	180402	5	3	3	1	0	806	1	4	0	24	117	0	1	99
random	1	1	119	182197	1	4	4	1	0	658	1	4	0	32	118	0	1	99
random	1	1	120	183789	4	2	2	1	0	599	1	4	0	16	119	0	1	99
fixed	2	1	1	185354	4	1	1	1	0	868	1	4	0	40	1	0	0	100
fixed	2	1	2	186866	1	2	2	1	0	732	1	4	0	48	2	0	0	100
fixed	2	1	3	188300	6	4	4	1	0	608	1	4	0	64	3	0	0	100
fixed	2	1	4	189807	2	1	1	1	0	656	1	4	0	40	4	0	0	100
fixed	2	1	5	190808	5	3	3	1	0	621	1	4	0	56	5	0	0	100
fixed	2	1	6	191880	6	4	4	1	0	584	1	4	0	64	6	0	0	100
fixed	2	1	7	193062	3	1	1	1	0	622	1	4	0	40	7	0	0	100
fixed	2	1	8	194403	2	3	3	1	0	869	1	4	0	56	8	0	0	100
fixed	2	1	9	195568	3	2	2	1	0	580	1	4	0	48	9	0	0	100
fixed	2	1	10	196860	1	4	4	1	0	629	1	4	0	64	10	0	0	100
fixed	2	1	11	198210	5	2	2	1	0	820	1	4	0	48	11	0	0	100
fixed	2	1	12	200050	4	3	3	1	0	670	1	4	0	56	12	0	0	100
fixed	2	2	1	201312	4	1	1	1	0	696	1	4	0	40	13	0	0	100
fixed	2	2	2	202585	1	2	2	1	0	770	1	4	0	48	14	0	0	100
fixed	2	2	3	203861	6	4	4	1	0	677	1	4	0	64	15	0	0	100
fixed	2	2	4	205521	2	1	1	1	0	630	1	4	0	40	16	0	0	100
fixed	2	2	5	206653	5	3	3	1	0	767	1	4	0	56	17	0	0	100
fixed	2	2	6	208373	6	4	4	1	0	614	1	4	0	64	18	0	0	100
fixed	2	2	7	209980	3	1	1	1	0	650	1	4	0	40	19	0	0	100
fixed	2	2	8	211159	2	3	3	1	0	847	1	4	0	56	20	0	0	100
fixed	2	2	9	212369	3	2	2	1	0	556	1	4	0	48	21	0	0	100
fixed	2	2	10	213815	1	4	4	1	0	647	1	4	0	64	22	0	0	100
fixed	2	2	11	215065	5	2	2	1	0	730	1	4	0	48	23	0	0	100
fixed	2	2	12	216672	4	3	3	2	0	750	2	4	0	56	24	0	0	100
fixed	2	3	1	218471	4	1	1	1	0	706	1	4	0	40	25	0	0	100
fixed	2	3	2	219507	1	2	2	1	0	734	1	4	0	48	26	0	0	100
fixed	2	3	3	220632	6	4	4	1	0	614	1	4	0	64	27	0	0	100
fixed	2	3	4	221696	2	1	1	1	0	769	1	4	0	40	28	0	0	100
fixed	2	3	5	223038	5	3	3	1	0	744	1	4	0	56	29	0	0	100
fixed	2	3	6	224774	6	4	4	1	0	599	1	4	0	64	30	0	0	100
fixed	2	3	7	226405	3	1	1	1	0	561	1	4	0	40	31	0	0	100
fixed	2	3	8	227781	2	3	3	1	0	687	1	4	0	56	32	0	0	100
fixed	2	3	9	229182	3	2	2	1	0	380	1	4	0	48	33	0	0	100
fixed	2	3	10	229856	1	4	4	1	0	680	1	4	0	64	34	0	0	100
fixed	2	3	11	231230	5	2	2	1	0	710	1	4	0	48	35	0	0	100
fixed	2	3	12	232488	4	3	3	1	0	648	1	4	0	56	36	0	0	100
fixed	2	4	1	234009	4	1	1	1	0	767	1	4	0	40	37	0	0	100
fixed	2	4	2	235280	1	2	2	1	0	786	1	4	0	48	38	0	0	100
fixed	2	4	3	236673	6	4	4	1	0	631	1	4	0	64	39	0	0	100
fixed	2	4	4	238083	2	1	1	1	0	675	1	4	0	40	40	0	0	100
fixed	2	4	5	239665	5	3	3	1	0	904	1	4	0	56	41	0	0	100
fixed	2	4	6	240890	6	4	4	1	0	700	1	4	0	64	42	0	0	100
fixed	2	4	7	242534	3	1	1	1	0	662	1	4	0	40	43	0	0	100
fixed	2	4	8	243898	2	3	3	1	0	796	1	4	0	56	44	0	0	100
fixed	2	4	9	245368	3	2	2	1	0	414	1	4	0	48	45	0	0	100
fixed	2	4	10	246709	1	4	4	1	0	670	1	4	0	64	46	0	0	100
fixed	2	4	11	247949	5	2	2	1	0	665	1	4	0	48	47	0	0	100
fixed	2	4	12	249096	4	3	3	1	0	680	1	4	0	56	48	0	0	100
fixed	2	5	1	250332	4	1	1	1	0	700	1	4	0	40	49	0	0	100
fixed	2	5	2	252036	1	2	2	1	0	708	1	4	0	48	50	0	0	100
fixed	2	5	3	253042	6	4	4	1	0	625	1	4	0	64	51	0	0	100
fixed	2	5	4	254078	2	1	1	1	0	581	1	4	0	40	52	0	0	100
fixed	2	5	5	255026	5	3	3	1	0	629	1	4	0	56	53	0	0	100
fixed	2	5	6	256563	6	4	4	1	0	580	1	4	0	64	54	0	0	100
fixed	2	5	7	257558	3	1	1	1	0	506	1	4	0	40	55	0	0	100
fixed	2	5	8	258469	2	3	3	1	0	931	1	4	0	56	56	0	0	100
fixed	2	5	9	260359	3	2	2	1	0	347	1	4	0	48	57	0	0	100
fixed	2	5	10	261273	1	4	4	1	0	620	1	4	0	64	58	0	0	100
fixed	2	5	11	262273	5	2	2	1	0	659	1	4	0	48	59	0	0	100
fixed	2	5	12	263565	4	3	3	1	0	627	1	4	0	56	60	0	0	100
fixed	2	6	1	265168	4	1	1	1	0	720	1	4	0	40	61	0	0	100
fixed	2	6	2	266667	1	2	2	1	0	689	1	4	0	48	62	0	0	100
fixed	2	6	3	267669	6	4	4	1	0	662	1	4	0	64	63	0	0	100
fixed	2	6	4	268877	2	1	1	1	0	450	1	4	0	40	64	0	0	100
fixed	2	6	5	270050	5	3	3	1	0	689	1	4	0	56	65	0	0	100
fixed	2	6	6	271719	6	4	4	1	0	626	1	4	0	64	66	0	0	100
fixed	2	6	7	272697	3	1	1	1	0	561	1	4	0	40	67	0	0	100
fixed	2	6	8	273729	2	3	3	1	0	717	1	4	0	56	68	0	0	100
fixed	2	6	9	274748	3	2	2	1	0	650	1	4	0	48	69	0	0	100
fixed	2	6	10	276130	1	4	4	1	0	567	1	4	0	64	70	0	0	100
fixed	2	6	11	276985	5	2	2	1	0	811	1	4	0	48	71	0	0	100
fixed	2	6	12	278421	4	3	3	1	0	502	1	4	0	56	72	0	0	100
fixed	2	7	1	279838	4	1	1	1	0	770	1	4	0	40	73	0	0	100
fixed	2	7	2	281222	1	2	2	1	0	615	1	4	0	48	74	0	0	100
fixed	2	7	3	282293	6	4	4	1	0	642	1	4	0	64	75	0	0	100
fixed	2	7	4	283725	2	1	1	1	0	558	1	4	0	40	76	0	0	100
fixed	2	7	5	284906	5	3	3	1	0	716	1	4	0	56	77	0	0	100
fixed	2	7	6	286176	6	4	4	1	0	630	1	4	0	64	78	0	0	100
fixed	2	7	7	287777	3	1	1	1	0	618	1	4	0	40	79	0	0	100
fixed	2	7	8	288926	2	3	3	1	0	993	1	4	0	56	80	0	0	100
fixed	2	7	9	290453	3	2	2	1	0	521	1	4	0	48	81	0	0	100
fixed	2	7	10	291269	1	4	4	1	0	702	1	4	0	64	82	0	0	100
fixed	2	7	11	292374	5	2	2	1	0	855	1	4	0	48	83	0	0	100
fixed	2	7	12	294123	4	3	3	1	0	501	1	4	0	56	84	0	0	100
fixed	2	8	1	295610	4	1	1	1	0	686	1	4	0	40	85	0	0	100
fixed	2	8	2	296599	1	2	2	1	0	828	1	4	0	48	86	0	0	100
fixed	2	8	3	298435	6	4	4	1	0	599	1	4	0	64	87	0	0	100
fixed	2	8	4	299714	2	1	1	1	0	377	1	4	0	40	88	0	0	100
fixed	2	8	5	300698	5	3	3	1	0	695	1	4	0	56	89	0	0	100
fixed	2	8	6	302139	6	4	4	1	0	658	1	4	0	64	90	0	0	100
fixed	2	8	7	303087	3	1	1	1	0	1050	1	4	0	40	91	0	0	100
fixed	2	8	8	304969	2	3	3	1	0	810	1	4	0	56	92	0	0	100
fixed	2	8	9	306223	3	2	2	1	0	645	1	4	0	48	93	0	0	100
fixed	2	8	10	307259	1	4	4	1	0	601	1	4	0	64	94	0	0	100
fixed	2	8	11	308413	5	2	2	1	0	696	1	4	0	48	95	0	0	100
fixed	2	8	12	309727	4	3	3	1	0	504	1	4	0	56	96	0	0	100
fixed	2	9	1	311282	4	1	1	1	0	670	1	4	0	40	97	0	0	100
fixed	2	9	2	312432	1	2	2	1	0	798	1	4	0	48	98	0	0	100
fixed	2	9	3	313591	6	4	4	1	0	573	1	4	0	64	99	0	0	100
fixed	2	9	4	315105	2	1	1	1	0	396	1	4	0	40	100	0	0	100
fixed	2	9	5	316255	5	3	3	1	0	604	1	4	0	56	101	0	0	100
fixed	2	9	6	317819	6	4	4	1	0	746	1	4	0	64	102	0	0	100
fixed	2	9	7	318927	3	1	1	1	0	851	1	4	0	40	103	0	0	100
fixed	2	9	8	320781	2	3	3	1	0	684	1	4	0	56	104	0	0	100
fixed	2	9	9	322374	3	2	2	1	0	600	1	4	0	48	105	0	0	100
fixed	2	9	10	323750	1	4	4	1	0	614	1	4	0	64	106	0	0	100
fixed	2	9	11	325094	5	2	2	1	0	790	1	4	0	48	107	0	0	100
fixed	2	9	12	326775	4	3	3	1	0	686	1	4	0	56	108	0	0	100
fixed	2	10	1	328390	4	1	1	1	0	402	1	4	0	40	109	0	0	100
fixed	2	10	2	329187	1	2	2	1	0	728	1	4	0	48	110	0	0	100
fixed	2	10	3	330257	6	4	4	1	0	611	1	4	0	64	111	0	0	100
fixed	2	10	4	331827	2	1	1	1	0	297	1	4	0	40	112	0	0	100
fixed	2	10	5	332486	5	3	3	1	0	724	1	4	0	56	113	0	0	100
fixed	2	10	6	334143	6	4	4	1	0	550	1	4	0	64	114	0	0	100
fixed	2	10	7	335369	3	1	1	1	0	651	1	4	0	40	115	0	0	100
fixed	2	10	8	336893	2	3	3	1	0	690	1	4	0	56	116	0	0	100
fixed	2	10	9	338374	3	2	2	1	0	411	1	4	0	48	117	0	0	100
fixed	2	10	10	339388	1	4	4	1	0	632	1	4	0	64	118	0	0	100
fixed	2	10	11	340938	5	2	2	1	0	758	1	4	0	48	119	0	0	100
fixed	2	10	12	342391	4	3	3	1	0	617	1	4	0	56	120	0	0	100
fixed	3	1	1	344494	4	1	1	1	0	696	1	4	0	72	1	0	0	100
fixed	3	1	2	345791	1	2	2	1	0	729	1	4	0	80	2	0	0	100
fixed	3	1	3	347055	6	4	4	1	0	579	1	4	0	96	3	0	0	100
fixed	3	1	4	348294	2	1	1	1	0	447	1	4	0	72	4	0	0	100
fixed	3	1	5	349112	5	3	3	1	0	748	1	4	0	88	5	0	0	100
fixed	3	1	6	350560	6	4	4	1	0	607	1	4	0	96	6	0	0	100
fixed	3	1	7	351702	3	1	1	1	0	639	1	4	0	72	7	0	0	100
fixed	3	1	8	352891	2	3	3	1	0	892	1	4	0	88	8	0	0	100
fixed	3	1	9	354118	3	2	2	1	0	696	1	4	0	80	9	0	0	100
fixed	3	1	10	355247	1	4	4	1	0	625	1	4	0	96	10	0	0	100
fixed	3	1	11	356452	5	2	2	1	0	718	1	4	0	80	11	0	0	100
fixed	3	1	12	357970	4	3	3	1	0	869	1	4	0	88	12	0	0	100
fixed	3	2	1	359968	4	1	1	1	0	688	1	4	0	72	13	0	0	100
fixed	3	2	2	361583	1	2	2	1	0	708	1	4	0	80	14	0	0	100
fixed	3	2	3	363229	6	4	4	1	0	606	1	4	0	96	15	0	0	100
fixed	3	2	4	364458	2	1	1	1	0	443	1	4	0	72	16	0	0	100
fixed	3	2	5	365535	5	3	3	1	0	773	1	4	0	88	17	0	0	100
fixed	3	2	6	367222	6	4	4	1	0	653	1	4	0	96	18	0	0	100
fixed	3	2	7	368634	3	1	1	1	0	642	1	4	0	72	19	0	0	100
fixed	3	2	8	369755	2	3	3	1	0	762	1	4	0	88	20	0	0	100
fixed	3	2	9	370902	3	2	2	1	0	569	1	4	0	80	21	0	0	100
fixed	3	2	10	371929	1	4	4	1	0	534	1	4	0	96	22	0	0	100
fixed	3	2	11	373480	5	2	2	1	0	748	1	4	0	80	23	0	0	100
fixed	3	2	12	374801	4	3	3	1	0	597	1	4	0	88	24	0	0	100
fixed	3	3	1	376074	4	1	1	1	0	582	1	4	0	72	25	0	0	100
fixed	3	3	2	377397	1	2	2	1	0	686	1	4	0	80	26	0	0	100
fixed	3	3	3	378592	6	4	4	1	0	596	1	4	0	96	27	0	0	100
fixed	3	3	4	379497	2	1	1	1	0	725	1	4	0	72	28	0	0	100
fixed	3	3	5	380702	5	3	3	1	0	730	1	4	0	88	29	0	0	100
fixed	3	3	6	382456	6	4	4	1	0	688	1	4	0	96	30	0	0	100
fixed	3	3	7	384015	3	1	1	1	0	1102	1	4	0	72	31	0	0	100
fixed	3	3	8	385647	2	3	3	1	0	929	1	4	0	88	32	0	0	100
fixed	3	3	9	387571	3	2	2	1	0	823	1	4	0	80	33	0	0	100
fixed	3	3	10	388802	1	4	4	1	0	555	1	4	0	96	34	0	0	100
fixed	3	3	11	389943	5	2	2	1	0	843	1	4	0	80	35	0	0	100
fixed	3	3	12	391555	4	3	3	1	0	711	1	4	0	88	36	0	0	100
fixed	3	4	1	392849	4	1	1	1	0	576	1	4	0	72	37	0	0	100
fixed	3	4	2	393837	1	2	2	1	0	894	1	4	0	80	38	0	0	100
fixed	3	4	3	395345	6	4	4	1	0	670	1	4	0	96	39	0	0	100
fixed	3	4	4	396911	2	1	1	1	0	708	1	4	0	72	40	0	0	100
fixed	3	4	5	398113	5	3	3	1	0	641	1	4	0	88	41	0	0	100
fixed	3	4	6	399599	6	4	4	1	0	634	1	4	0	96	42	0	0	100
fixed	3	4	7	400950	3	1	1	1	0	552	1	4	0	72	43	0	0	100
fixed	3	4	8	402286	2	3	3	1	0	768	1	4	0	88	44	0	0	100
fixed	3	4	9	403814	3	2	2	2	0	903	2	4	0	80	45	0	0	100
fixed	3	4	10	405364	1	4	4	1	0	574	1	4	0	96	46	0	0	100
fixed	3	4	11	406736	5	2	2	1	0	643	1	4	0	80	47	0	0	100
fixed	3	4	12	407988	4	3	3	1	0	894	1	4	0	88	48	0	0	100
fixed	3	5	1	409723	4	1	1	1	0	645	1	4	0	72	49	0	0	100
fixed	3	5	2	411191	1	2	2	1	0	671	1	4	0	80	50	0	0	100
fixed	3	5	3	412599	6	4	4	1	0	571	1	4	0	96	51	0	0	100
fixed	3	5	4	413566	2	1	1	1	0	570	1	4	0	72	52	0	0	100
fixed	3	5	5	415058	5	3	3	1	0	643	1	4	0	88	53	0	0	100
fixed	3	5	6	416100	6	4	4	1	0	639	1	4	0	96	54	0	0	100
fixed	3	5	7	417162	3	1	1	1	0	850	1	4	0	72	55	0	0	100
fixed	3	5	8	418356	2	3	3	1	0	776	1	4	0	88	56	0	0	100
fixed	3	5	9	419947	3	2	2	1	0	916	1	4	0	80	57	0	0	100
fixed	3	5	10	421485	1	4	4	1	0	627	1	4	0	96	58	0	0	100
fixed	3	5	11	422510	5	2	2	1	0	743	1	4	0	80	59	0	0	100
fixed	3	5	12	424209	4	3	3	1	0	687	1	4	0	88	60	0	0	100
fixed	3	6	1	425896	4	1	1	1	0	608	1	4	0	72	61	0	0	100
fixed	3	6	2	427357	1	2	2	1	0	666	1	4	0	80	62	0	0	100
fixed	3	6	3	428439	6	4	4	1	0	540	1	4	0	96	63	0	0	100
fixed	3	6	4	429376	2	1	1	1	0	501	1	4	0	72	64	0	0	100
fixed	3	6	5	430712	5	3	3	1	0	668	1	4	0	88	65	0	0	100
fixed	3	6	6	432253	6	4	4	1	0	627	1	4	0	96	66	0	0	100
fixed	3	6	7	433617	3	1	1	1	0	729	1	4	0	72	67	0	0	100
fixed	3	6	8	435287	2	3	3	1	0	650	1	4	0	88	68	0	0	100
fixed	3	6	9	436915	3	2	2	1	0	613	1	4	0	80	69	0	0	100
fixed	3	6	10	437891	1	4	4	1	0	604	1	4	0	96	70	0	0	100
fixed	3	6	11	439458	5	2	2	1	0	794	1	4	0	80	71	0	0	100
fixed	3	6	12	441252	4	3	3	1	0	333	1	4	0	88	72	0	0	100
fixed	3	7	1	442637	4	1	1	1	0	947	1	4	0	72	73	0	0	100
fixed	3	7	2	443980	1	2	2	1	0	794	1	4	0	80	74	0	0	100
fixed	3	7	3	445148	6	4	4	1	0	569	1	4	0	96	75	0	0	100
fixed	3	7	4	446719	2	1	1	1	0	774	1	4	0	72	76	0	0	100
fixed	3	7	5	447958	5	3	3	1	0	738	1	4	0	88	77	0	0	100
fixed	3	7	6	449049	6	4	4	1	0	604	1	4	0	96	78	0	0	100
fixed	3	7	7	450117	3	1	1	1	0	566	1	4	0	72	79	0	0	100
fixed	3	7	8	451082	2	3	3	1	0	861	1	4	0	88	80	0	0	100
fixed	3	7	9	452229	3	2	2	1	0	564	1	4	0	80	81	0	0	100
fixed	3	7	10	453450	1	4	4	1	0	641	1	4	0	96	82	0	0	100
fixed	3	7	11	454994	5	2	2	1	0	2128	1	4	0	80	83	0	0	100
fixed	3	7	12	458101	4	3	3	1	0	876	1	4	0	88	84	0	0	100
fixed	3	8	1	459997	4	1	1	1	0	859	1	4	0	72	85	0	0	100
fixed	3	8	2	461287	1	2	2	1	0	845	1	4	0	80	86	0	0	100
fixed	3	8	3	463047	6	4	4	1	0	603	1	4	0	96	87	0	0	100
fixed	3	8	4	464316	2	1	1	1	0	493	1	4	0	72	88	0	0	100
fixed	3	8	5	465446	5	3	3	1	0	693	1	4	0	88	89	0	0	100
fixed	3	8	6	466806	6	4	4	1	0	603	1	4	0	96	90	0	0	100
fixed	3	8	7	468324	3	1	1	1	0	435	1	4	0	72	91	0	0	100
fixed	3	8	8	469459	2	3	3	1	0	627	1	4	0	88	92	0	0	100
fixed	3	8	9	471064	3	2	2	1	0	447	1	4	0	80	93	0	0	100
fixed	3	8	10	472095	1	4	4	1	0	555	1	4	0	96	94	0	0	100
fixed	3	8	11	473403	5	2	2	1	0	644	1	4	0	80	95	0	0	100
fixed	3	8	12	474451	4	3	3	1	0	671	1	4	0	88	96	0	0	100
fixed	3	9	1	475702	4	1	1	1	0	578	1	4	0	72	97	0	0	100
fixed	3	9	2	476597	1	2	2	1	0	1181	1	4	0	80	98	0	0	100
fixed	3	9	3	478356	6	4	4	1	0	642	1	4	0	96	99	0	0	100
fixed	3	9	4	479683	2	1	1	1	0	818	1	4	0	72	100	0	0	100
fixed	3	9	5	481330	5	3	3	1	0	796	1	4	0	88	101	0	0	100
fixed	3	9	6	483033	6	4	4	1	0	636	1	4	0	96	102	0	0	100
fixed	3	9	7	484043	3	1	1	1	0	497	1	4	0	72	103	0	0	100
fixed	3	9	8	485094	2	3	3	1	0	645	1	4	0	88	104	0	0	100
fixed	3	9	9	486678	3	2	2	1	0	929	1	4	0	80	105	0	0	100
fixed	3	9	10	488389	1	4	4	1	0	617	1	4	0	96	106	0	0	100
fixed	3	9	11	489575	5	2	2	1	0	727	1	4	0	80	107	0	0	100
fixed	3	9	12	491138	4	3	3	1	0	708	1	4	0	88	108	0	0	100
fixed	3	10	1	492460	4	1	1	1	0	573	1	4	0	72	109	0	0	100
fixed	3	10	2	493572	1	2	2	1	0	694	1	4	0	80	110	0	0	100
fixed	3	10	3	495094	6	4	4	1	0	589	1	4	0	96	111	0	0	100
fixed	3	10	4	496704	2	1	1	1	0	377	1	4	0	72	112	0	0	100
fixed	3	10	5	498099	5	3	3	1	0	670	1	4	0	88	113	0	0	100
fixed	3	10	6	499779	6	4	4	1	0	638	1	4	0	96	114	0	0	100
fixed	3	10	7	500874	3	1	1	1	0	744	1	4	0	72	115	0	0	100
fixed	3	10	8	502041	2	3	3	1	0	855	1	4	0	88	116	0	0	100
fixed	3	10	9	503535	3	2	2	1	0	623	1	4	0	80	117	0	0	100
fixed	3	10	10	504457	1	4	4	1	0	544	1	4	0	96	118	0	0	100
fixed	3	10	11	505780	5	2	2	1	0	784	1	4	0	80	119	0	0	100
fixed	3	10	12	507046	4	3	3	1	0	515	1	4	0	88	120	0	0	100
fixed	4	1	1	659902	4	1	1	1	0	1032	1	4	0	104	1	0	0	100
fixed	4	1	2	661242	1	2	2	1	0	952	1	4	0	112	2	0	0	100
fixed	4	1	3	662634	6	4	4	1	0	668	1	4	0	128	3	0	0	100
fixed	4	1	4	663747	2	1	1	1	0	750	1	4	0	104	4	0	0	100
fixed	4	1	5	665177	5	3	3	1	0	1009	1	4	0	120	5	0	0	100
fixed	4	1	6	666569	6	4	4	1	0	678	1	4	0	128	6	0	0	100
fixed	4	1	7	668268	3	1	1	1	0	726	1	4	0	104	7	0	0	100
fixed	4	1	8	669551	2	3	3	1	0	816	1	4	0	120	8	0	0	100
fixed	4	1	9	670957	3	2	2	1	0	484	1	4	0	112	9	0	0	100
fixed	4	1	10	672034	1	4	4	1	0	446	1	4	0	128	10	0	0	100
fixed	4	1	11	672908	5	2	2	1	0	850	1	4	0	112	11	0	0	100
fixed	4	1	12	674684	4	3	3	1	0	671	1	4	0	120	12	0	0	100
fixed	4	2	1	676394	4	1	1	1	0	750	1	4	0	104	13	0	0	100
fixed	4	2	2	677495	1	2	2	1	0	727	1	4	0	112	14	0	0	100
fixed	4	2	3	679240	6	4	4	1	0	677	1	4	0	128	15	0	0	100
fixed	4	2	4	680412	2	1	1	1	0	516	1	4	0	104	16	0	0	100
fixed	4	2	5	681753	5	3	3	1	0	747	1	4	0	120	17	0	0	100
fixed	4	2	6	683275	6	4	4	1	0	699	1	4	0	128	18	0	0	100
fixed	4	2	7	684821	3	1	1	1	0	729	1	4	0	104	19	0	0	100
fixed	4	2	8	686369	2	3	3	1	0	719	1	4	0	120	20	0	0	100
fixed	4	2	9	687872	3	2	2	1	0	720	1	4	0	112	21	0	0	100
fixed	4	2	10	689073	1	4	4	1	0	605	1	4	0	128	22	0	0	100
fixed	4	2	11	690210	5	2	2	1	0	804	1	4	0	112	23	0	0	100
fixed	4	2	12	691976	4	3	3	1	0	706	1	4	0	120	24	0	0	100
fixed	4	3	1	693637	4	1	1	1	0	539	1	4	0	104	25	0	0	100
fixed	4	3	2	694902	1	2	2	1	0	822	1	4	0	112	26	0	0	100
fixed	4	3	3	696582	6	4	4	1	0	759	1	4	0	128	27	0	0	100
fixed	4	3	4	697702	2	1	1	1	0	831	1	4	0	104	28	0	0	100
fixed	4	3	5	699486	5	3	3	1	0	748	1	4	0	120	29	0	0	100
fixed	4	3	6	700881	6	4	4	1	0	649	1	4	0	128	30	0	0	100
fixed	4	3	7	702535	3	1	1	1	0	851	1	4	0	104	31	0	0	100
fixed	4	3	8	703703	2	3	3	1	0	761	1	4	0	120	32	0	0	100
fixed	4	3	9	705036	3	2	2	1	0	529	1	4	0	112	33	0	0	100
fixed	4	3	10	706052	1	4	4	1	0	574	1	4	0	128	34	0	0	100
fixed	4	3	11	707651	5	2	2	1	0	738	1	4	0	112	35	0	0	100
fixed	4	3	12	709213	4	3	3	1	0	808	1	4	0	120	36	0	0	100
fixed	4	4	1	710795	4	1	1	1	0	653	1	4	0	104	37	0	0	100
fixed	4	4	2	711996	1	2	2	1	0	698	1	4	0	112	38	0	0	100
fixed	4	4	3	713284	6	4	4	1	0	659	1	4	0	128	39	0	0	100
fixed	4	4	4	714737	2	1	1	1	0	822	1	4	0	104	40	0	0	100
fixed	4	4	5	715920	5	3	3	1	0	772	1	4	0	120	41	0	0	100
fixed	4	4	6	717155	6	4	4	1	0	600	1	4	0	128	42	0	0	100
fixed	4	4	7	718098	3	1	1	1	0	919	1	4	0	104	43	0	0	100
fixed	4	4	8	719906	2	3	3	1	0	779	1	4	0	120	44	0	0	100
fixed	4	4	9	721331	3	2	2	1	0	743	1	4	0	112	45	0	0	100
fixed	4	4	10	722596	1	4	4	1	0	617	1	4	0	128	46	0	0	100
fixed	4	4	11	724243	5	2	2	1	0	707	1	4	0	112	47	0	0	100
fixed	4	4	12	725759	4	3	3	1	0	683	1	4	0	120	48	0	0	100
fixed	4	5	1	727169	4	1	1	1	0	543	1	4	0	104	49	0	0	100
fixed	4	5	2	728633	1	2	2	1	0	714	1	4	0	112	50	0	0	100
fixed	4	5	3	729677	6	4	4	1	0	565	1	4	0	128	51	0	0	100
fixed	4	5	4	730654	2	1	1	1	0	588	1	4	0	104	52	0	0	100
fixed	4	5	5	732207	5	3	3	1	0	698	1	4	0	120	53	0	0	100
fixed	4	5	6	733599	6	4	4	1	0	623	1	4	0	128	54	0	0	100
fixed	4	5	7	735005	3	1	1	1	0	707	1	4	0	104	55	0	0	100
fixed	4	5	8	736285	2	3	3	1	0	742	1	4	0	120	56	0	0	100
fixed	4	5	9	737417	3	2	2	1	0	613	1	4	0	112	57	0	0	100
fixed	4	5	10	739060	1	4	4	1	0	640	1	4	0	128	58	0	0	100
fixed	4	5	11	740710	5	2	2	1	0	730	1	4	0	112	59	0	0	100
fixed	4	5	12	742278	4	3	3	1	0	799	1	4	0	120	60	0	0	100
fixed	4	6	1	743960	4	1	1	1	0	544	1	4	0	104	61	0	0	100
fixed	4	6	2	745492	1	2	2	1	0	776	1	4	0	112	62	0	0	100
fixed	4	6	3	747233	6	4	4	1	0	677	1	4	0	128	63	0	0	100
fixed	4	6	4	748421	2	1	1	1	0	827	1	4	0	104	64	0	0	100
fixed	4	6	5	749760	5	3	3	1	0	778	1	4	0	120	65	0	0	100
fixed	4	6	6	751292	6	4	4	1	0	665	1	4	0	128	66	0	0	100
fixed	4	6	7	752805	3	1	1	1	0	714	1	4	0	104	67	0	0	100
fixed	4	6	8	754318	2	3	3	1	0	857	1	4	0	120	68	0	0	100
fixed	4	6	9	756071	3	2	2	1	0	567	1	4	0	112	69	0	0	100
fixed	4	6	10	757107	1	4	4	1	0	587	1	4	0	128	70	0	0	100
fixed	4	6	11	758369	5	2	2	1	0	702	1	4	0	112	71	0	0	100
fixed	4	6	12	760010	4	3	3	1	0	825	1	4	0	120	72	0	0	100
fixed	4	7	1	761837	4	1	1	1	0	483	1	4	0	104	73	0	0	100
fixed	4	7	2	763222	1	2	2	1	0	792	1	4	0	112	74	0	0	100
fixed	4	7	3	764517	6	4	4	1	0	666	1	4	0	128	75	0	0	100
fixed	4	7	4	766198	2	1	1	1	0	618	1	4	0	104	76	0	0	100
fixed	4	7	5	767185	5	3	3	1	0	640	1	4	0	120	77	0	0	100
fixed	4	7	6	768342	6	4	4	1	0	624	1	4	0	128	78	0	0	100
fixed	4	7	7	769745	3	1	1	1	0	620	1	4	0	104	79	0	0	100
fixed	4	7	8	770771	2	3	3	1	0	737	1	4	0	120	80	0	0	100
fixed	4	7	9	772399	3	2	2	1	0	403	1	4	0	112	81	0	0	100
fixed	4	7	10	773304	1	4	4	1	0	565	1	4	0	128	82	0	0	100
fixed	4	7	11	774557	5	2	2	1	0	768	1	4	0	112	83	0	0	100
fixed	4	7	12	776048	4	3	3	1	0	673	1	4	0	120	84	0	0	100
fixed	4	8	1	777693	4	1	1	1	0	427	1	4	0	104	85	0	0	100
fixed	4	8	2	778985	1	2	2	1	0	725	1	4	0	112	86	0	0	100
fixed	4	8	3	780693	6	4	4	1	0	644	1	4	0	128	87	0	0	100
fixed	4	8	4	781784	2	1	1	1	0	646	1	4	0	104	88	0	0	100
fixed	4	8	5	782902	5	3	3	1	0	759	1	4	0	120	89	0	0	100
fixed	4	8	6	783958	6	4	4	1	0	642	1	4	0	128	90	0	0	100
fixed	4	8	7	784905	3	1	1	1	0	490	1	4	0	104	91	0	0	100
fixed	4	8	8	786014	2	3	3	1	0	771	1	4	0	120	92	0	0	100
fixed	4	8	9	787682	3	2	2	2	0	1036	2	4	0	112	93	0	0	100
fixed	4	8	10	789730	1	4	4	1	0	670	1	4	0	128	94	0	0	100
fixed	4	8	11	790780	5	2	2	1	0	801	1	4	0	112	95	0	0	100
fixed	4	8	12	792356	4	3	3	1	0	743	1	4	0	120	96	0	0	100
fixed	4	9	1	793849	4	1	1	1	0	511	1	4	0	104	97	0	0	100
fixed	4	9	2	795163	1	2	2	1	0	728	1	4	0	112	98	0	0	100
fixed	4	9	3	796899	6	4	4	1	0	638	1	4	0	128	99	0	0	100
fixed	4	9	4	798160	2	1	1	1	0	392	1	4	0	104	100	0	0	100
fixed	4	9	5	798946	5	3	3	1	0	823	1	4	0	120	101	0	0	100
fixed	4	9	6	800169	6	4	4	1	0	795	1	4	0	128	102	0	0	100
fixed	4	9	7	801958	3	1	1	1	0	432	1	4	0	104	103	0	0	100
fixed	4	9	8	803085	2	3	3	1	0	760	1	4	0	120	104	0	0	100
fixed	4	9	9	804248	3	2	2	1	0	695	1	4	0	112	105	0	0	100
fixed	4	9	10	805759	1	4	4	1	0	678	1	4	0	128	106	0	0	100
fixed	4	9	11	807026	5	2	2	1	0	649	1	4	0	112	107	0	0	100
fixed	4	9	12	808305	4	3	3	1	0	843	1	4	0	120	108	0	0	100
fixed	4	10	1	809805	4	1	1	1	0	515	1	4	0	104	109	0	0	100
fixed	4	10	2	810904	1	2	2	1	0	853	1	4	0	112	110	0	0	100
fixed	4	10	3	812262	6	4	4	1	0	611	1	4	0	128	111	0	0	100
fixed	4	10	4	813341	2	1	1	1	0	734	1	4	0	104	112	0	0	100
fixed	4	10	5	814858	5	3	3	1	0	797	1	4	0	120	113	0	0	100
fixed	4	10	6	816195	6	4	4	1	0	669	1	4	0	128	114	0	0	100
fixed	4	10	7	817500	3	1	1	1	0	374	1	4	0	104	115	0	0	100
fixed	4	10	8	818696	2	3	3	1	0	699	1	4	0	120	116	0	0	100
fixed	4	10	9	819720	3	2	2	1	0	679	1	4	0	112	117	0	0	100
fixed	4	10	10	821179	1	4	4	1	0	610	1	4	0	128	118	0	0	100
fixed	4	10	11	822450	5	2	2	1	0	788	1	4	0	112	119	0	0	100
fixed	4	10	12	823944	4	3	3	1	0	804	1	4	0	120	120	0	0	100
fixed	5	1	1	825976	4	1	1	1	0	790	1	4	0	136	1	0	0	100
fixed	5	1	2	827117	1	2	2	1	0	718	1	4	0	144	2	0	0	100
fixed	5	1	3	828640	6	4	4	1	0	814	1	4	0	160	3	0	0	100
fixed	5	1	4	829977	2	1	1	1	0	941	1	4	0	136	4	0	0	100
fixed	5	1	5	831858	5	3	3	1	0	685	1	4	0	152	5	0	0	100
fixed	5	1	6	833564	6	4	4	1	0	677	1	4	0	160	6	0	0	100
fixed	5	1	7	835064	3	1	1	1	0	630	1	4	0	136	7	0	0	100
fixed	5	1	8	836143	2	3	3	1	0	680	1	4	0	152	8	0	0	100
fixed	5	1	9	837231	3	2	2	1	0	618	1	4	0	144	9	0	0	100
fixed	5	1	10	838466	1	4	4	1	0	653	1	4	0	160	10	0	0	100
fixed	5	1	11	839499	5	2	2	1	0	857	1	4	0	144	11	0	0	100
fixed	5	1	12	840740	4	3	3	1	0	733	1	4	0	152	12	0	0	100
fixed	5	2	1	842017	4	1	1	1	0	871	1	4	0	136	13	0	0	100
fixed	5	2	2	843440	1	2	2	1	0	851	1	4	0	144	14	0	0	100
fixed	5	2	3	844813	6	4	4	1	0	681	1	4	0	160	15	0	0	100
fixed	5	2	4	846030	2	1	1	1	0	525	1	4	0	136	16	0	0	100
fixed	5	2	5	847107	5	3	3	1	0	768	1	4	0	152	17	0	0	100
fixed	5	2	6	848359	6	4	4	1	0	666	1	4	0	160	18	0	0	100
fixed	5	2	7	849978	3	1	1	1	0	622	1	4	0	136	19	0	0	100
fixed	5	2	8	851325	2	3	3	1	0	709	1	4	0	152	20	0	0	100
fixed	5	2	9	852328	3	2	2	1	0	618	1	4	0	144	21	0	0	100
fixed	5	2	10	853648	1	4	4	1	0	546	1	4	0	160	22	0	0	100
fixed	5	2	11	854660	5	2	2	1	0	784	1	4	0	144	23	0	0	100
fixed	5	2	12	856089	4	3	3	1	0	835	1	4	0	152	24	0	0	100
fixed	5	3	1	857723	4	1	1	1	0	669	1	4	0	136	25	0	0	100
fixed	5	3	2	858905	1	2	2	1	0	684	1	4	0	144	26	0	0	100
fixed	5	3	3	860182	6	4	4	1	0	573	1	4	0	160	27	0	0	100
fixed	5	3	4	861778	2	1	1	1	0	338	1	4	0	136	28	0	0	100
fixed	5	3	5	862531	5	3	3	1	0	858	1	4	0	152	29	0	0	100
fixed	5	3	6	864281	6	4	4	1	0	912	1	4	0	160	30	0	0	100
fixed	5	3	7	865812	3	1	1	1	0	759	1	4	0	136	31	0	0	100
fixed	5	3	8	867559	2	3	3	1	0	669	1	4	0	152	32	0	0	100
fixed	5	3	9	869010	3	2	2	2	0	1104	2	4	0	144	33	0	0	100
fixed	5	3	10	870538	1	4	4	1	0	647	1	4	0	160	34	0	0	100
fixed	5	3	11	871647	5	2	2	1	0	736	1	4	0	144	35	0	0	100
fixed	5	3	12	872874	4	3	3	1	0	692	1	4	0	152	36	0	0	100
fixed	5	4	1	874664	4	1	1	1	0	816	1	4	0	136	37	0	0	100
fixed	5	4	2	875869	1	2	2	1	0	717	1	4	0	144	38	0	0	100
fixed	5	4	3	877482	6	4	4	1	0	649	1	4	0	160	39	0	0	100
fixed	5	4	4	878777	2	1	1	1	0	802	1	4	0	136	40	0	0	100
fixed	5	4	5	880212	5	3	3	1	0	661	1	4	0	152	41	0	0	100
fixed	5	4	6	881534	6	4	4	1	0	725	1	4	0	160	42	0	0	100
fixed	5	4	7	883008	3	1	1	1	0	551	1	4	0	136	43	0	0	100
fixed	5	4	8	884332	2	3	3	1	0	695	1	4	0	152	44	0	0	100
fixed	5	4	9	885608	3	2	2	1	0	584	1	4	0	144	45	0	0	100
fixed	5	4	10	886883	1	4	4	1	0	691	1	4	0	160	46	0	0	100
fixed	5	4	11	888419	5	2	2	1	0	706	1	4	0	144	47	0	0	100
fixed	5	4	12	889768	4	3	3	1	0	744	1	4	0	152	48	0	0	100
fixed	5	5	1	891205	4	1	1	1	0	579	1	4	0	136	49	0	0	100
fixed	5	5	2	892429	1	2	2	1	0	864	1	4	0	144	50	0	0	100
fixed	5	5	3	894103	6	4	4	1	0	641	1	4	0	160	51	0	0	100
fixed	5	5	4	895170	2	1	1	1	0	412	1	4	0	136	52	0	0	100
fixed	5	5	5	895882	5	3	3	1	0	789	1	4	0	152	53	0	0	100
fixed	5	5	6	896993	6	4	4	1	0	758	1	4	0	160	54	0	0	100
fixed	5	5	7	898043	3	1	1	1	0	802	1	4	0	136	55	0	0	100
fixed	5	5	8	899190	2	3	3	1	0	753	1	4	0	152	56	0	0	100
fixed	5	5	9	900547	3	2	2	1	0	664	1	4	0	144	57	0	0	100
fixed	5	5	10	902069	1	4	4	1	0	623	1	4	0	160	58	0	0	100
fixed	5	5	11	903113	5	2	2	1	0	827	1	4	0	144	59	0	0	100
fixed	5	5	12	904564	4	3	3	1	0	654	1	4	0	152	60	0	0	100
fixed	5	6	1	905891	4	1	1	1	0	541	1	4	0	136	61	0	0	100
fixed	5	6	2	907133	1	2	2	1	0	689	1	4	0	144	62	0	0	100
fixed	5	6	3	908123	6	4	4	1	0	663	1	4	0	160	63	0	0	100
fixed	5	6	4	909228	2	1	1	1	0	376	1	4	0	136	64	0	0	100
fixed	5	6	5	910320	5	3	3	1	0	690	1	4	0	152	65	0	0	100
fixed	5	6	6	911681	6	4	4	1	0	752	1	4	0	160	66	0	0	100
fixed	5	6	7	913179	3	1	1	1	0	665	1	4	0	136	67	0	0	100
fixed	5	6	8	914390	2	3	3	1	0	726	1	4	0	152	68	0	0	100
fixed	5	6	9	915910	3	2	2	1	0	613	1	4	0	144	69	0	0	100
fixed	5	6	10	917080	1	4	4	1	0	580	1	4	0	160	70	0	0	100
fixed	5	6	11	918476	5	2	2	1	0	736	1	4	0	144	71	0	0	100
fixed	5	6	12	920211	4	3	3	1	0	999	1	4	0	152	72	0	0	100
fixed	5	7	1	921830	4	1	1	1	0	762	1	4	0	136	73	0	0	100
fixed	5	7	2	923482	1	2	2	1	0	732	1	4	0	144	74	0	0	100
fixed	5	7	3	924847	6	4	4	1	0	667	1	4	0	160	75	0	0	100
fixed	5	7	4	926327	2	1	1	1	0	676	1	4	0	136	76	0	0	100
fixed	5	7	5	927559	5	3	3	1	0	1143	1	4	0	152	77	0	0	100
fixed	5	7	6	929648	6	4	4	1	0	631	1	4	0	160	78	0	0	100
fixed	5	7	7	931089	3	1	1	1	0	458	1	4	0	136	79	0	0	100
fixed	5	7	8	932170	2	3	3	1	0	732	1	4	0	152	80	0	0	100
fixed	5	7	9	933373	3	2	2	1	0	505	1	4	0	144	81	0	0	100
fixed	5	7	10	934196	1	4	4	1	0	582	1	4	0	160	82	0	0	100
fixed	5	7	11	935152	5	2	2	1	0	758	1	4	0	144	83	0	0	100
fixed	5	7	12	936461	4	3	3	1	0	663	1	4	0	152	84	0	0	100
fixed	5	8	1	937919	4	1	1	1	0	473	1	4	0	136	85	0	0	100
fixed	5	8	2	939413	1	2	2	1	0	674	1	4	0	144	86	0	0	100
fixed	5	8	3	940620	6	4	4	1	0	623	1	4	0	160	87	0	0	100
fixed	5	8	4	941677	2	1	1	1	0	377	1	4	0	136	88	0	0	100
fixed	5	8	5	942430	5	3	3	1	0	698	1	4	0	152	89	0	0	100
fixed	5	8	6	944132	6	4	4	1	0	673	1	4	0	160	90	0	0	100
fixed	5	8	7	945794	3	1	1	1	0	635	1	4	0	136	91	0	0	100
fixed	5	8	8	947366	2	3	3	1	0	705	1	4	0	152	92	0	0	100
fixed	5	8	9	948865	3	2	2	1	0	681	1	4	0	144	93	0	0	100
fixed	5	8	10	949925	1	4	4	1	0	557	1	4	0	160	94	0	0	100
fixed	5	8	11	950788	5	2	2	1	0	744	1	4	0	144	95	0	0	100
fixed	5	8	12	951982	4	3	3	1	0	638	1	4	0	152	96	0	0	100
fixed	5	9	1	953625	4	1	1	1	0	655	1	4	0	136	97	0	0	100
fixed	5	9	2	954865	1	2	2	1	0	667	1	4	0	144	98	0	0	100
fixed	5	9	3	955882	6	4	4	2	0	776	2	4	0	160	99	0	0	100
fixed	5	9	4	957239	2	1	1	1	0	791	1	4	0	136	100	0	0	100
fixed	5	9	5	958958	5	3	3	1	0	678	1	4	0	152	101	0	0	100
fixed	5	9	6	960055	6	4	4	1	0	655	1	4	0	160	102	0	0	100
fixed	5	9	7	961589	3	1	1	1	0	623	1	4	0	136	103	0	0	100
fixed	5	9	8	963226	2	3	3	1	0	673	1	4	0	152	104	0	0	100
fixed	5	9	9	964329	3	2	2	1	0	619	1	4	0	144	105	0	0	100
fixed	5	9	10	965951	1	4	4	1	0	702	1	4	0	160	106	0	0	100
fixed	5	9	11	967455	5	2	2	1	0	774	1	4	0	144	107	0	0	100
fixed	5	9	12	968684	4	3	3	1	0	850	1	4	0	152	108	0	0	100
fixed	5	10	1	970600	4	1	1	1	0	696	1	4	0	136	109	0	0	100
fixed	5	10	2	972038	1	2	2	1	0	884	1	4	0	144	110	0	0	100
fixed	5	10	3	973780	6	4	4	1	0	570	1	4	0	160	111	0	0	100
fixed	5	10	4	975245	2	1	1	1	0	324	1	4	0	136	112	0	0	100
fixed	5	10	5	976345	5	3	3	1	0	677	1	4	0	152	113	0	0	100
fixed	5	10	6	977377	6	4	4	1	0	634	1	4	0	160	114	0	0	100
fixed	5	10	7	978392	3	1	1	1	0	855	1	4	0	136	115	0	0	100
fixed	5	10	8	979765	2	3	3	1	0	725	1	4	0	152	116	0	0	100
fixed	5	10	9	981428	3	2	2	1	0	606	1	4	0	144	117	0	0	100
fixed	5	10	10	982421	1	4	4	1	0	580	1	4	0	160	118	0	0	100
fixed	5	10	11	983682	5	2	2	1	0	774	1	4	0	144	119	0	0	100
fixed	5	10	12	985225	4	3	3	1	0	701	1	4	0	152	120	0	0	100
random	6	1	1	1120148	6	1	1	1	0	898	1	4	0	168	1	0	0	100
random	6	1	2	1121867	4	4	4	1	0	794	1	4	0	192	2	0	0	100
random	6	1	3	1123593	2	2	2	1	0	816	1	4	0	176	3	0	0	100
random	6	1	4	1124970	3	3	3	1	0	518	1	4	0	184	4	0	0	100
random	6	1	5	1125888	5	2	2	1	0	815	1	4	0	176	5	0	0	100
random	6	1	6	1127510	1	4	4	1	0	507	1	4	0	192	6	0	0	100
random	6	1	7	1128887	6	1	1	1	0	472	1	4	0	168	7	0	0	100
random	6	1	8	1130377	2	3	3	1	0	689	1	4	0	184	8	0	0	100
random	6	1	9	1131766	4	2	2	1	0	542	1	4	0	176	9	0	0	100
random	6	1	10	1132918	1	1	1	1	0	742	1	4	0	168	10	0	0	100
random	6	1	11	1134251	5	4	4	1	0	837	1	4	0	192	11	0	0	100
random	6	1	12	1135457	3	3	3	1	0	770	1	4	0	184	12	0	0	100
random	6	1	13	1137142	5	2	2	1	0	1074	1	4	0	176	13	0	0	100
random	6	1	14	1138527	1	4	4	1	0	680	1	4	0	192	14	0	0	100
random	6	1	15	1139963	3	1	1	1	0	659	1	4	0	168	15	0	0	100
random	6	1	16	1140935	4	3	3	1	0	658	1	4	0	184	16	0	0	100
random	6	1	17	1141958	6	4	4	1	0	607	1	4	0	192	17	0	0	100
random	6	1	18	1143397	2	1	1	1	0	466	1	4	0	168	18	0	0	100
random	6	1	19	1144683	5	3	3	1	0	779	1	4	0	184	19	0	0	100
random	6	1	20	1146406	2	2	2	1	0	402	1	4	0	176	20	0	0	100
random	6	1	21	1147742	3	3	3	1	0	722	1	4	0	184	21	0	0	100
random	6	1	22	1148984	6	1	1	1	0	917	1	4	0	168	22	0	0	100
random	6	1	23	1150613	4	2	2	1	0	720	1	4	0	176	23	0	0	100
random	6	1	24	1152320	1	4	4	1	0	600	1	4	0	192	24	0	0	100
random	6	1	25	1154150	4	3	3	1	0	1098	1	4	0	184	25	0	0	100
random	6	1	26	1156146	2	1	1	1	0	718	1	4	0	168	26	0	0	100
random	6	1	27	1157691	5	2	2	1	0	716	1	4	0	176	27	0	0	100
random	6	1	28	1159014	6	4	4	1	0	556	1	4	0	192	28	0	0	100
random	6	1	29	1159938	1	3	3	1	0	805	1	4	0	184	29	0	0	100
random	6	1	30	1161086	5	2	2	1	0	636	1	4	0	176	30	0	0	100
random	6	1	31	1162170	2	1	1	1	0	726	1	4	0	168	31	0	0	100
random	6	1	32	1163921	3	3	3	1	0	693	1	4	0	184	32	0	0	100
random	6	1	33	1164980	6	4	4	1	0	695	1	4	0	192	33	0	0	100
random	6	1	34	1166316	4	2	2	1	0	807	1	4	0	176	34	0	0	100
random	6	1	35	1167426	3	4	4	1	0	776	1	4	0	192	35	0	0	100
random	6	1	36	1168935	1	1	1	1	0	504	1	4	0	168	36	0	0	100
random	6	1	37	1170741	3	4	4	1	0	1291	1	4	0	192	37	0	0	100
random	6	1	38	1172447	5	3	3	1	0	955	1	4	0	184	38	0	0	100
random	6	1	39	1174083	6	1	1	1	0	750	1	4	0	168	39	0	0	100
random	6	1	40	1175690	1	2	2	1	0	658	1	4	0	176	40	0	0	100
random	6	1	41	1176859	2	3	3	1	0	576	1	4	0	184	41	0	0	100
random	6	1	42	1178158	4	4	4	1	0	681	1	4	0	192	42	0	0	100
random	6	1	43	1179483	1	2	2	1	0	753	1	4	0	176	43	0	0	100
random	6	1	44	1181193	6	3	3	1	0	705	1	4	0	184	44	0	0	100
random	6	1	45	1182759	3	1	1	1	0	751	1	4	0	168	45	0	0	100
random	6	1	46	1184128	4	4	4	1	0	725	1	4	0	192	46	0	0	100
random	6	1	47	1185574	2	2	2	1	0	752	1	4	0	176	47	0	0	100
random	6	1	48	1186734	5	1	1	1	0	758	1	4	0	168	48	0	0	100
random	6	1	49	1188150	2	3	3	1	0	874	1	4	0	184	49	0	0	100
random	6	1	50	1189457	3	1	1	1	0	859	1	4	0	168	50	0	0	100
random	6	1	51	1191057	1	4	4	1	0	631	1	4	0	192	51	0	0	100
random	6	1	52	1192030	5	3	3	1	0	982	1	4	0	184	52	0	0	100
random	6	1	53	1193523	3	2	2	1	0	623	1	4	0	176	53	0	0	100
random	6	1	54	1194462	6	4	4	1	0	567	1	4	0	192	54	0	0	100
random	6	1	55	1196001	4	2	2	1	0	765	1	4	0	176	55	0	0	100
random	6	1	56	1197605	1	1	1	1	0	729	1	4	0	168	56	0	0	100
random	6	1	57	1199210	5	4	4	1	0	661	1	4	0	192	57	0	0	100
random	6	1	58	1200800	2	1	1	1	0	706	1	4	0	168	58	0	0	100
random	6	1	59	1202441	6	2	2	1	0	765	1	4	0	176	59	0	0	100
random	6	1	60	1203489	4	3	3	1	0	616	1	4	0	184	60	0	0	100
random	6	1	61	1205108	1	2	2	1	0	748	1	4	0	176	61	0	0	100
random	6	1	62	1206150	6	4	4	1	0	560	1	4	0	192	62	0	0	100
random	6	1	63	1207463	4	1	1	1	0	456	1	4	0	168	63	0	0	100
random	6	1	64	1208705	2	2	2	1	0	724	1	4	0	176	64	0	0	100
random	6	1	65	1209743	4	3	3	1	0	584	1	4	0	184	65	0	0	100
random	6	1	66	1211281	3	1	1	1	0	791	1	4	0	168	66	0	0	100
random	6	1	67	1212763	1	3	3	1	0	720	1	4	0	184	67	0	0	100
random	6	1	68	1214287	5	4	4	1	0	599	1	4	0	192	68	0	0	100
random	6	1	69	1215806	2	2	2	1	0	719	1	4	0	176	69	0	0	100
random	6	1	70	1217260	3	1	1	1	0	729	1	4	0	168	70	0	0	100
random	6	1	71	1218343	5	4	4	1	0	675	1	4	0	192	71	0	0	100
random	6	1	72	1219878	6	3	3	1	0	794	1	4	0	184	72	0	0	100
random	6	1	73	1221716	2	1	1	1	0	988	1	4	0	168	73	0	0	100
random	6	1	74	1223337	5	3	3	1	0	792	1	4	0	184	74	0	0	100
random	6	1	75	1224689	1	4	4	1	0	646	1	4	0	192	75	0	0	100
random	6	1	76	1226135	6	2	2	1	0	713	1	4	0	176	76	0	0	100
random	6	1	77	1227650	2	1	1	1	0	689	1	4	0	168	77	0	0	100
random	6	1	78	1229279	4	4	4	1	0	668	1	4	0	192	78	0	0	100
random	6	1	79	1230688	3	2	2	1	0	704	1	4	0	176	79	0	0	100
random	6	1	80	1231866	4	3	3	1	0	535	1	4	0	184	80	0	0	100
random	6	1	81	1233193	1	4	4	1	0	606	1	4	0	192	81	0	0	100
random	6	1	82	1234222	5	1	1	1	0	443	1	4	0	168	82	0	0	100
random	6	1	83	1235313	3	2	2	1	0	676	1	4	0	176	83	0	0	100
random	6	1	84	1236303	6	3	3	2	0	874	2	4	0	184	84	0	0	100
random	6	1	85	1238223	3	2	2	1	0	825	1	4	0	176	85	0	0	100
random	6	1	86	1239595	1	3	3	1	0	719	1	4	0	184	86	0	0	100
random	6	1	87	1241044	4	4	4	1	0	593	1	4	0	192	87	0	0	100
random	6	1	88	1242499	2	1	1	1	0	428	1	4	0	168	88	0	0	100
random	6	1	89	1243499	6	4	4	1	0	690	1	4	0	192	89	0	0	100
random	6	1	90	1245151	3	3	3	1	0	956	1	4	0	184	90	0	0	100
random	6	1	91	1246849	5	4	4	1	0	612	1	4	0	192	91	0	0	100
random	6	1	92	1247782	1	2	2	1	0	636	1	4	0	176	92	0	0	100
random	6	1	93	1249333	5	1	1	1	0	746	1	4	0	168	93	0	0	100
random	6	1	94	1251027	4	3	3	1	0	715	1	4	0	184	94	0	0	100
random	6	1	95	1252151	6	1	1	1	0	756	1	4	0	168	95	0	0	100
random	6	1	96	1253582	2	2	2	1	0	679	1	4	0	176	96	0	0	100
random	6	1	97	1255315	4	3	3	1	0	877	1	4	0	184	97	0	0	100
random	6	1	98	1256551	3	2	2	1	0	577	1	4	0	176	98	0	0	100
random	6	1	99	1257716	6	3	3	1	0	784	1	4	0	184	99	0	0	100
random	6	1	100	1259488	1	4	4	1	0	677	1	4	0	192	100	0	0	100
random	6	1	101	1260802	4	1	1	1	0	709	1	4	0	168	101	0	0	100
random	6	1	102	1262190	5	2	2	1	0	770	1	4	0	176	102	0	0	100
random	6	1	103	1263696	2	4	4	1	0	691	1	4	0	192	103	0	0	100
random	6	1	104	1264703	3	1	1	1	0	759	1	4	0	168	104	0	0	100
random	6	1	105	1266283	1	3	3	1	0	653	1	4	0	184	105	0	0	100
random	6	1	106	1267478	2	2	2	1	0	554	1	4	0	176	106	0	0	100
random	6	1	107	1268542	5	4	4	1	0	581	1	4	0	192	107	0	0	100
random	6	1	108	1269892	6	1	1	1	0	516	1	4	0	168	108	0	0	100
random	6	1	109	1271471	5	4	4	2	0	1137	2	4	0	192	109	0	0	100
random	6	1	110	1273028	6	3	3	1	0	807	1	4	0	184	110	0	0	100
random	6	1	111	1274551	2	2	2	1	0	839	1	4	0	176	111	0	0	100
random	6	1	112	1276108	3	1	1	1	0	757	1	4	0	168	112	0	0	100
random	6	1	113	1277247	1	2	2	1	0	693	1	4	0	176	113	0	0	100
random	6	1	114	1278777	2	3	3	1	0	724	1	4	0	184	114	0	0	100
random	6	1	115	1279833	3	1	1	1	0	639	1	4	0	168	115	0	0	100
random	6	1	116	1281468	4	4	4	1	0	666	1	4	0	192	116	0	0	100
random	6	1	117	1282590	6	1	1	1	0	610	1	4	0	168	117	0	0	100
random	6	1	118	1283808	5	3	3	1	0	687	1	4	0	184	118	0	0	100
random	6	1	119	1285347	1	4	4	1	0	629	1	4	0	192	119	0	0	100
random	6	1	120	1286586	4	2	2	1	0	601	1	4	0	176	120	0	0	100
fixed	7	1	1	1288578	4	1	1	1	0	812	1	4	0	200	1	0	0	100
fixed	7	1	2	1289684	1	2	2	1	0	661	1	4	0	208	2	0	0	100
fixed	7	1	3	1291320	6	4	4	1	0	568	1	4	0	224	3	0	0	100
fixed	7	1	4	1292514	2	1	1	1	0	510	1	4	0	200	4	0	0	100
fixed	7	1	5	1293919	5	3	3	1	0	762	1	4	0	216	5	0	0	100
fixed	7	1	6	1295495	6	4	4	1	0	559	1	4	0	224	6	0	0	100
fixed	7	1	7	1296667	3	1	1	1	0	742	1	4	0	200	7	0	0	100
fixed	7	1	8	1297731	2	3	3	1	0	817	1	4	0	216	8	0	0	100
fixed	7	1	9	1299453	3	2	2	1	0	544	1	4	0	208	9	0	0	100
fixed	7	1	10	1300660	1	4	4	1	0	597	1	4	0	224	10	0	0	100
fixed	7	1	11	1301597	5	2	2	1	0	717	1	4	0	208	11	0	0	100
fixed	7	1	12	1302910	4	3	3	1	0	702	1	4	0	216	12	0	0	100
fixed	7	2	1	1304252	4	1	1	1	0	820	1	4	0	200	1	0	0	8
fixed	7	2	2	1305598	1	2	2	1	0	684	1	4	0	208	2	0	0	14
fixed	7	2	3	1307199	6	4	4	1	0	616	1	4	0	224	3	0	0	20
fixed	7	2	4	1308779	2	1	1	1	0	477	1	4	0	200	4	0	0	25
fixed	7	2	5	1310285	5	3	3	1	0	709	1	4	0	216	5	0	0	29
fixed	7	2	6	1311848	6	4	4	1	0	691	1	4	0	224	6	0	0	33
fixed	7	2	7	1312957	3	1	1	1	0	652	1	4	0	200	7	0	0	37
fixed	7	2	8	1314600	2	3	3	1	0	686	1	4	0	216	8	0	0	40
fixed	7	2	9	1316088	3	2	2	1	0	703	1	4	0	208	9	0	0	43
fixed	7	2	10	1317817	1	4	4	1	0	670	1	4	0	224	10	0	0	45
fixed	7	2	11	1318983	5	2	2	1	0	733	1	4	0	208	11	0	0	48
fixed	7	2	12	1320489	4	3	3	1	0	677	1	4	0	216	12	0	0	50
fixed	7	3	1	1322346	4	1	1	1	0	670	1	4	0	200	1	0	0	4
fixed	7	3	2	1323549	1	2	2	1	0	675	1	4	0	208	2	0	0	8
fixed	7	3	3	1325057	6	4	4	1	0	635	1	4	0	224	3	0	0	11
fixed	7	3	4	1326382	2	1	1	1	0	643	1	4	0	200	4	0	0	14
fixed	7	3	5	1327732	5	3	3	1	0	674	1	4	0	216	5	0	0	17
fixed	7	3	6	1329322	6	4	4	1	0	671	1	4	0	224	6	0	0	20
fixed	7	3	7	1330325	3	1	1	1	0	644	1	4	0	200	7	0	0	23
fixed	7	3	8	1331897	2	3	3	1	0	890	1	4	0	216	8	0	0	25
fixed	7	3	9	1333759	3	2	2	1	0	403	1	4	0	208	9	0	0	27
fixed	7	3	10	1334828	1	4	4	1	0	541	1	4	0	224	10	0	0	29
fixed	7	3	11	1335685	5	2	2	1	0	753	1	4	0	208	11	0	0	31
fixed	7	3	12	1336925	4	3	3	1	0	685	1	4	0	216	12	0	0	33
fixed	7	4	1	1338168	4	1	1	1	0	768	1	4	0	200	1	0	0	3
fixed	7	4	2	1339287	1	2	2	1	0	744	1	4	0	208	2	0	0	5
fixed	7	4	3	1340766	6	4	4	1	0	546	1	4	0	224	3	0	0	8
fixed	7	4	4	1341650	2	1	1	1	0	629	1	4	0	200	4	0	0	10
fixed	7	4	5	1342637	5	3	3	1	0	611	1	4	0	216	5	0	0	12
fixed	7	4	6	1343983	6	4	4	1	0	602	1	4	0	224	6	0	0	14
fixed	7	4	7	1345260	3	1	1	1	0	716	1	4	0	200	7	0	0	16
fixed	7	4	8	1346373	2	3	3	1	0	700	1	4	0	216	8	0	0	18
fixed	7	4	9	1347489	3	2	2	1	0	477	1	4	0	208	9	0	0	20
fixed	7	4	10	1348528	1	4	4	1	0	689	1	4	0	224	10	0	0	22
fixed	7	4	11	1350132	5	2	2	1	0	677	1	4	0	208	11	0	0	23
fixed	7	4	12	1351208	4	3	3	1	0	712	1	4	0	216	12	0	0	25
fixed	7	5	1	1352671	4	1	1	1	0	882	1	4	0	200	1	0	0	2
fixed	7	5	2	1354177	1	2	2	1	0	762	1	4	0	208	2	0	0	4
fixed	7	5	3	1355381	6	4	4	1	0	583	1	4	0	224	3	0	0	6
fixed	7	5	4	1356984	2	1	1	1	0	547	1	4	0	200	4	0	0	8
fixed	7	5	5	1358212	5	3	3	1	0	671	1	4	0	216	5	0	0	9
fixed	7	5	6	1359543	6	4	4	1	0	679	1	4	0	224	6	0	0	11
fixed	7	5	7	1360920	3	1	1	1	0	661	1	4	0	200	7	0	0	13
fixed	7	5	8	1362151	2	3	3	1	0	736	1	4	0	216	8	0	0	14
fixed	7	5	9	1363407	3	2	2	1	0	627	1	4	0	208	9	0	0	16
fixed	7	5	10	1364829	1	4	4	1	0	615	1	4	0	224	10	0	0	17
fixed	7	5	11	1366248	5	2	2	1	0	675	1	4	0	208	11	0	0	19
fixed	7	5	12	1367554	4	3	3	1	0	1195	1	4	0	216	12	0	0	20
fixed	7	6	1	1369813	4	1	1	1	0	851	1	4	0	200	1	0	0	2
fixed	7	6	2	1371349	1	2	2	1	0	698	1	4	0	208	2	0	0	3
fixed	7	6	3	1372601	6	4	4	1	0	589	1	4	0	224	3	0	0	5
fixed	7	6	4	1373986	2	1	1	1	0	403	1	4	0	200	4	0	0	6
fixed	7	6	5	1375059	5	3	3	1	0	629	1	4	0	216	5	0	0	8
fixed	7	6	6	1376583	6	4	4	1	0	717	1	4	0	224	6	0	0	9
fixed	7	6	7	1377752	3	1	1	1	0	643	1	4	0	200	7	0	0	10
fixed	7	6	8	1379121	2	3	3	1	0	817	1	4	0	216	8	0	0	12
fixed	7	6	9	1380424	3	2	2	1	0	570	1	4	0	208	9	0	0	13
fixed	7	6	10	1381461	1	4	4	1	0	518	1	4	0	224	10	0	0	14
fixed	7	6	11	1382388	5	2	2	1	0	727	1	4	0	208	11	0	0	15
fixed	7	6	12	1383763	4	3	3	1	0	677	1	4	0	216	12	0	0	17
fixed	7	7	1	1385251	4	1	1	1	0	614	1	4	0	200	1	0	0	1
fixed	7	7	2	1386198	1	2	2	1	0	726	1	4	0	208	2	0	0	3
fixed	7	7	3	1387520	6	4	4	1	0	557	1	4	0	224	3	0	0	4
fixed	7	7	4	1389056	2	1	1	1	0	517	1	4	0	200	4	0	0	5
fixed	7	7	5	1390044	5	3	3	1	0	627	1	4	0	216	5	0	0	6
fixed	7	7	6	1391088	6	4	4	1	0	719	1	4	0	224	6	0	0	8
fixed	7	7	7	1392497	3	1	1	1	0	547	1	4	0	200	7	0	0	9
fixed	7	7	8	1393864	2	3	3	1	0	753	1	4	0	216	8	0	0	10
fixed	7	7	9	1395221	3	2	2	1	0	672	1	4	0	208	9	0	0	11
fixed	7	7	10	1396865	1	4	4	1	0	642	1	4	0	224	10	0	0	12
fixed	7	7	11	1397864	5	2	2	1	0	711	1	4	0	208	11	0	0	13
fixed	7	7	12	1399310	4	3	3	1	0	754	1	4	0	216	12	0	0	14
fixed	7	8	1	1401006	4	1	1	1	0	594	1	4	0	200	1	0	0	1
fixed	7	8	2	1402315	1	2	2	1	0	747	1	4	0	208	2	0	0	2
fixed	7	8	3	1404038	6	4	4	1	0	610	1	4	0	224	3	0	0	3
fixed	7	8	4	1405560	2	1	1	1	0	290	1	4	0	200	4	0	0	5
fixed	7	8	5	1406396	5	3	3	1	0	622	1	4	0	216	5	0	0	6
fixed	7	8	6	1407936	6	4	4	1	0	637	1	4	0	224	6	0	0	7
fixed	7	8	7	1409506	3	1	1	1	0	507	1	4	0	200	7	0	0	8
fixed	7	8	8	1410325	2	3	3	1	0	736	1	4	0	216	8	0	0	9
fixed	7	8	9	1411768	3	2	2	1	0	555	1	4	0	208	9	0	0	10
fixed	7	8	10	1412966	1	4	4	1	0	576	1	4	0	224	10	0	0	11
fixed	7	8	11	1413868	5	2	2	1	0	641	1	4	0	208	11	0	0	12
fixed	7	8	12	1415447	4	3	3	1	0	855	1	4	0	216	12	0	0	13
fixed	7	9	1	1417296	4	1	1	1	0	672	1	4	0	200	1	0	0	1
fixed	7	9	2	1418960	1	2	2	1	0	674	1	4	0	208	2	0	0	2
fixed	7	9	3	1420579	6	4	4	1	0	630	1	4	0	224	3	0	0	3
fixed	7	9	4	1421906	2	1	1	1	0	757	1	4	0	200	4	0	0	4
fixed	7	9	5	1423010	5	3	3	1	0	622	1	4	0	216	5	0	0	5
fixed	7	9	6	1424271	6	4	4	1	0	625	1	4	0	224	6	0	0	6
fixed	7	9	7	1425379	3	1	1	1	0	675	1	4	0	200	7	0	0	7
fixed	7	9	8	1426728	2	3	3	1	0	777	1	4	0	216	8	0	0	8
fixed	7	9	9	1428248	3	2	2	1	0	593	1	4	0	208	9	0	0	9
fixed	7	9	10	1429363	1	4	4	1	0	521	1	4	0	224	10	0	0	9
fixed	7	9	11	1430779	5	2	2	1	0	661	1	4	0	208	11	0	0	10
fixed	7	9	12	1432281	4	3	3	1	0	838	1	4	0	216	12	0	0	11
fixed	7	10	1	1434020	4	1	1	1	0	724	1	4	0	200	1	0	0	1
fixed	7	10	2	1435302	1	2	2	1	0	726	1	4	0	208	2	0	0	2
fixed	7	10	3	1436773	6	4	4	2	0	640	2	4	0	224	3	0	0	3
fixed	7	10	4	1437804	2	1	1	1	0	732	1	4	0	200	4	0	0	4
fixed	7	10	5	1438944	5	3	3	1	0	724	1	4	0	216	5	0	0	4
fixed	7	10	6	1440344	6	4	4	1	0	544	1	4	0	224	6	0	0	5
fixed	7	10	7	1441439	3	1	1	1	0	602	1	4	0	200	7	0	0	6
fixed	7	10	8	1442659	2	3	3	1	0	726	1	4	0	216	8	0	0	7
fixed	7	10	9	1443760	3	2	2	1	0	631	1	4	0	208	9	0	0	8
fixed	7	10	10	1445160	1	4	4	1	0	509	1	4	0	224	10	0	0	8
fixed	7	10	11	1446117	5	2	2	1	0	708	1	4	0	208	11	0	0	9
fixed	7	10	12	1447756	4	3	3	1	0	806	1	4	0	216	12	0	0	10
