type	block	sequ.	trial	time	Pos.	Color	Button	NumRsp	Resp_1	RT_1	R_Code	Resp_2	RT_2	Trigg.	n_hit	n_inc	n_miss	score_%

random	1	1	1	1453	6	1	1	1	0	945	1	4	0	8	1	0	0	100
random	1	1	2	2859	4	4	4	1	0	894	1	4	0	32	2	0	0	100
random	1	1	3	4455	2	2	2	1	0	1139	1	4	0	16	3	0	0	100
random	1	1	4	6027	3	3	3	1	0	1152	1	4	0	24	4	0	0	100
random	1	1	5	7482	5	2	2	1	0	1139	1	4	0	16	5	0	0	100
random	1	1	6	9003	1	4	4	1	0	954	1	4	0	32	6	0	0	100
random	1	1	7	10446	6	1	1	1	0	885	1	4	0	8	7	0	0	100
random	1	1	8	12114	2	3	3	1	0	1230	1	4	0	24	8	0	0	100
random	1	1	9	14264	4	2	2	1	0	1171	1	4	0	16	9	0	0	100
random	1	1	10	16047	1	1	1	1	0	888	1	4	0	8	10	0	0	100
random	1	1	11	17663	5	4	4	1	0	915	1	4	0	32	11	0	0	100
random	1	1	12	19229	3	3	3	1	0	1264	1	4	0	24	12	0	0	100
random	1	1	13	21052	5	2	2	1	0	1099	1	4	0	16	13	0	0	100
random	1	1	14	23120	1	4	4	1	0	1052	1	4	0	32	14	0	0	100
random	1	1	15	25005	3	1	1	1	0	812	1	4	0	8	15	0	0	100
random	1	1	16	26581	4	3	3	1	0	1161	1	4	0	24	16	0	0	100
random	1	1	17	28730	6	4	4	1	0	966	1	4	0	32	17	0	0	100
random	1	1	18	30346	2	1	1	1	0	866	1	4	0	8	18	0	0	100
random	1	1	19	32175	5	3	3	1	0	1005	1	4	0	24	19	0	0	100
random	1	1	20	33528	2	2	2	1	0	1275	1	4	0	16	20	0	0	100
random	1	1	21	35321	3	3	3	1	0	1007	1	4	0	24	21	0	0	100
random	1	1	22	37054	6	1	1	1	0	854	1	4	0	8	22	0	0	100
random	1	1	23	38329	4	2	2	1	0	1199	1	4	0	16	23	0	0	100
random	1	1	24	40238	1	4	4	1	0	967	1	4	0	32	24	0	0	100
random	1	1	25	42405	4	3	3	1	0	2155	1	4	0	24	25	0	0	100
random	1	1	26	45258	2	1	1	1	0	923	1	4	0	8	26	0	0	100
random	1	1	27	46523	5	2	2	1	0	1005	1	4	0	16	27	0	0	100
random	1	1	28	48061	6	4	4	1	0	876	1	4	0	32	28	0	0	100
random	1	1	29	49911	1	3	3	1	0	973	1	4	0	24	29	0	0	100
random	1	1	30	51564	5	2	2	1	0	967	1	4	0	16	30	0	0	100
random	1	1	31	53201	2	1	1	1	0	858	1	4	0	8	31	0	0	100
random	1	1	32	54516	3	3	3	1	0	1394	1	4	0	24	32	0	0	100
random	1	1	33	56499	6	4	4	1	0	1230	1	4	0	32	33	0	0	100
random	1	1	34	58752	4	2	0	1	2	0	3	4	0	16	33	0	1	97
random	1	1	35	62122	3	4	4	1	0	952	1	4	0	32	34	0	1	97
random	1	1	36	63626	1	1	1	1	0	992	1	4	0	8	35	0	1	97
random	1	1	37	65813	3	4	4	1	0	1155	1	4	0	32	36	0	1	97
random	1	1	38	67529	5	3	3	1	0	1643	1	4	0	24	37	0	1	97
random	1	1	39	69471	6	1	1	1	0	896	1	4	0	8	38	0	1	97
random	1	1	40	70793	1	2	2	1	0	1160	1	4	0	16	39	0	1	98
random	1	1	41	72744	2	3	3	1	0	2326	1	4	0	24	40	0	1	98
random	1	1	42	75716	4	4	4	1	0	1105	1	4	0	32	41	0	1	98
random	1	1	43	77765	1	2	2	1	0	1345	1	4	0	16	42	0	1	98
random	1	1	44	79836	6	3	3	1	0	1906	1	4	0	24	43	0	1	98
random	1	1	45	82699	3	1	1	1	0	809	1	4	0	8	44	0	1	98
random	1	1	46	83988	4	4	4	1	0	946	1	4	0	32	45	0	1	98
random	1	1	47	85403	2	2	2	1	0	1526	1	4	0	16	46	0	1	98
random	1	1	48	87735	5	1	1	1	0	883	1	4	0	8	47	0	1	98
random	1	1	49	89688	2	3	3	1	0	1672	1	4	0	24	48	0	1	98
random	1	1	50	92401	3	1	1	1	0	733	1	4	0	8	49	0	1	98
random	1	1	51	93816	1	4	4	1	0	1009	1	4	0	32	50	0	1	98
random	1	1	52	95761	5	3	0	0	2	0	3	4	0	24	50	0	2	96
random	1	1	53	99057	3	2	2	1	0	1212	1	4	0	16	51	0	2	96
random	1	1	54	100728	6	4	4	1	0	1141	1	4	0	32	52	0	2	96
random	1	1	55	102869	4	2	2	1	0	962	1	4	0	16	53	0	2	96
random	1	1	56	104745	1	1	1	1	0	1027	1	4	0	8	54	0	2	96
random	1	1	57	106591	5	4	4	1	0	869	1	4	0	32	55	0	2	96
random	1	1	58	108189	2	1	1	1	0	889	1	4	0	8	56	0	2	97
random	1	1	59	109570	6	2	2	1	0	1246	1	4	0	16	57	0	2	97
random	1	1	60	111508	4	3	3	1	0	1300	1	4	0	24	58	0	2	97
random	1	1	61	113931	1	2	2	1	0	1229	1	4	0	16	59	0	2	97
random	1	1	62	115818	6	4	4	1	0	845	1	4	0	32	60	0	2	97
random	1	1	63	117453	4	1	1	1	0	1385	1	4	0	8	61	0	2	97
random	1	1	64	119304	2	2	2	1	0	1034	1	4	0	16	62	0	2	97
random	1	1	65	120873	4	3	3	1	0	1336	1	4	0	24	63	0	2	97
random	1	1	66	122926	3	1	1	2	0	825	2	4	0	8	64	0	2	97
random	1	1	67	124534	1	3	3	1	0	1181	1	4	0	24	65	0	2	97
random	1	1	68	126169	5	4	4	1	0	1215	1	4	0	32	66	0	2	97
random	1	1	69	128038	2	2	2	1	0	1064	1	4	0	16	67	0	2	97
random	1	1	70	129426	3	1	1	1	0	1037	1	4	0	8	68	0	2	97
random	1	1	71	130988	5	4	4	2	0	1787	2	4	0	32	69	0	2	97
random	1	1	72	133716	6	3	3	1	0	1391	1	4	0	24	70	0	2	97
random	1	1	73	136086	2	1	1	1	0	851	1	4	0	8	71	0	2	97
random	1	1	74	137884	5	3	3	1	0	1023	1	4	0	24	72	0	2	97
random	1	1	75	139521	1	4	4	1	0	1010	1	4	0	32	73	0	2	97
random	1	1	76	140955	6	2	2	1	0	1309	1	4	0	16	74	0	2	97
random	1	1	77	143013	2	1	1	1	0	878	1	4	0	8	75	0	2	97
random	1	1	78	144430	4	4	4	1	0	1074	1	4	0	32	76	0	2	97
random	1	1	79	145865	3	2	2	1	0	1069	1	4	0	16	77	0	2	97
random	1	1	80	147760	4	3	3	1	0	1293	1	4	0	24	78	0	2	98
random	1	1	81	150053	1	4	4	1	0	827	1	4	0	32	79	0	2	98
random	1	1	82	151898	5	1	1	1	0	957	1	4	0	8	80	0	2	98
random	1	1	83	153675	3	2	2	1	0	1066	1	4	0	16	81	0	2	98
random	1	1	84	155351	6	3	3	1	0	2003	1	4	0	24	82	0	2	98
random	1	1	85	158223	3	2	0	1	2	0	3	4	0	16	82	0	3	96
random	1	1	86	161538	1	3	3	1	0	1909	1	4	0	24	83	0	3	97
random	1	1	87	164095	4	4	4	1	0	1313	1	4	0	32	84	0	3	97
random	1	1	88	165783	2	1	1	1	0	913	1	4	0	8	85	0	3	97
random	1	1	89	167458	6	4	4	1	0	1051	1	4	0	32	86	0	3	97
random	1	1	90	169471	3	3	0	1	2	0	3	4	0	24	86	0	4	96
random	1	1	91	172314	5	4	4	1	0	1565	1	4	0	32	87	0	4	96
random	1	1	92	174346	1	2	2	1	0	1030	1	4	0	16	88	0	4	96
random	1	1	93	176115	5	1	1	1	0	963	1	4	0	8	89	0	4	96
random	1	1	94	177952	4	3	3	1	0	1150	1	4	0	24	90	0	4	96
random	1	1	95	179483	6	1	1	1	0	1141	1	4	0	8	91	0	4	96
random	1	1	96	181248	2	2	2	1	0	1314	1	4	0	16	92	0	4	96
random	1	1	97	183184	4	3	3	1	0	2456	1	4	0	24	93	0	4	96
random	1	1	98	186350	3	2	2	1	0	1450	1	4	0	16	94	0	4	96
random	1	1	99	188277	6	3	3	1	0	1601	1	4	0	24	95	0	4	96
random	1	1	100	190708	1	4	4	1	0	922	1	4	0	32	96	0	4	96
random	1	1	101	192058	4	1	1	1	0	1000	1	4	0	8	97	0	4	96
random	1	1	102	193957	5	2	2	1	0	1088	1	4	0	16	98	0	4	96
random	1	1	103	195955	2	4	4	1	0	1107	1	4	0	32	99	0	4	96
random	1	1	104	197834	3	1	1	1	0	1140	1	4	0	8	100	0	4	96
random	1	1	105	199538	1	3	3	1	0	1124	1	4	0	24	101	0	4	96
random	1	1	106	201561	2	2	2	1	0	958	1	4	0	16	102	0	4	96
random	1	1	107	203078	5	4	4	1	0	1030	1	4	0	32	103	0	4	96
random	1	1	108	204763	6	1	1	1	0	1142	1	4	0	8	104	0	4	96
random	1	1	109	206943	5	4	4	1	0	1234	1	4	0	32	105	0	4	96
random	1	1	110	208658	6	3	3	1	0	2042	1	4	0	24	106	0	4	96
random	1	1	111	211063	2	2	2	1	0	1452	1	4	0	16	107	0	4	96
random	1	1	112	213478	3	1	1	1	0	1045	1	4	0	8	108	0	4	96
random	1	1	113	215038	1	2	2	1	0	1403	1	4	0	16	109	0	4	96
random	1	1	114	216901	2	3	0	0	2	0	3	4	0	24	109	0	5	96
random	1	1	115	219930	3	1	1	2	0	1308	2	4	0	8	110	0	5	96
random	1	1	116	221641	4	4	4	1	0	1060	1	4	0	32	111	0	5	96
random	1	1	117	223206	6	1	1	1	0	1137	1	4	0	8	112	0	5	96
random	1	1	118	225061	5	3	3	1	0	1107	1	4	0	24	113	0	5	96
random	1	1	119	226751	1	4	4	1	0	1187	1	4	0	32	114	0	5	96
random	1	1	120	228469	4	2	2	1	0	1106	1	4	0	16	115	0	5	96
fixed	2	1	1	230582	4	1	1	1	0	824	1	4	0	40	1	0	0	100
fixed	2	1	2	231778	1	2	0	1	2	0	3	4	0	48	1	0	1	50
fixed	2	1	3	235213	6	4	4	1	0	1300	1	4	0	64	2	0	1	67
fixed	2	1	4	236837	2	1	1	1	0	1088	1	4	0	40	3	0	1	75
fixed	2	1	5	238339	5	3	3	1	0	2008	1	4	0	56	4	0	1	80
fixed	2	1	6	240874	6	4	4	1	0	908	1	4	0	64	5	0	1	83
fixed	2	1	7	242713	3	1	1	1	0	975	1	4	0	40	6	0	1	86
fixed	2	1	8	244064	2	3	3	1	0	1558	1	4	0	56	7	0	1	88
fixed	2	1	9	246342	3	2	2	1	0	989	1	4	0	48	8	0	1	89
fixed	2	1	10	248370	1	4	4	1	0	855	1	4	0	64	9	0	1	90
fixed	2	1	11	250050	5	2	2	1	0	2224	1	4	0	48	10	0	1	91
fixed	2	1	12	253103	4	3	3	1	0	1711	1	4	0	56	11	0	1	92
fixed	2	2	1	255545	4	1	1	1	0	839	1	4	0	40	12	0	1	92
fixed	2	2	2	257072	1	2	2	1	0	1591	1	4	0	48	13	0	1	93
fixed	2	2	3	259697	6	4	4	1	0	832	1	4	0	64	14	0	1	93
fixed	2	2	4	260925	2	1	1	1	0	947	1	4	0	40	15	0	1	94
fixed	2	2	5	262378	5	3	3	1	0	982	1	4	0	56	16	0	1	94
fixed	2	2	6	263940	6	4	4	1	0	1044	1	4	0	64	17	0	1	94
fixed	2	2	7	265542	3	1	1	1	0	1440	1	4	0	40	18	0	1	95
fixed	2	2	8	267643	2	3	3	1	0	1239	1	4	0	56	19	0	1	95
fixed	2	2	9	269398	3	2	2	1	0	1148	1	4	0	48	20	0	1	95
fixed	2	2	10	271536	1	4	4	1	0	898	1	4	0	64	21	0	1	95
fixed	2	2	11	272958	5	2	2	1	0	1038	1	4	0	48	22	0	1	96
fixed	2	2	12	274543	4	3	3	1	0	978	1	4	0	56	23	0	1	96
fixed	2	3	1	276497	4	1	1	1	0	872	1	4	0	40	24	0	1	96
fixed	2	3	2	277922	1	2	0	1	2	0	3	4	0	48	24	0	2	92
fixed	2	3	3	280866	6	4	4	1	0	2439	1	4	0	64	25	0	2	93
fixed	2	3	4	284219	2	1	1	1	0	769	1	4	0	40	26	0	2	93
fixed	2	3	5	285811	5	3	3	1	0	1926	1	4	0	56	27	0	2	93
fixed	2	3	6	288126	6	4	4	1	0	995	1	4	0	64	28	0	2	93
fixed	2	3	7	290139	3	1	1	1	0	918	1	4	0	40	29	0	2	94
fixed	2	3	8	291627	2	3	3	1	0	1511	1	4	0	56	30	0	2	94
fixed	2	3	9	293483	3	2	2	2	0	1713	2	4	0	48	31	0	2	94
fixed	2	3	10	295719	1	4	4	1	0	994	1	4	0	64	32	0	2	94
fixed	2	3	11	297596	5	2	2	1	0	1034	1	4	0	48	33	0	2	94
fixed	2	3	12	299526	4	3	3	1	0	1529	1	4	0	56	34	0	2	94
fixed	2	4	1	302310	4	1	1	1	0	898	1	4	0	40	35	0	2	95
fixed	2	4	2	304231	1	2	2	1	0	1249	1	4	0	48	36	0	2	95
fixed	2	4	3	305841	6	4	4	1	0	1077	1	4	0	64	37	0	2	95
fixed	2	4	4	307835	2	1	1	1	0	896	1	4	0	40	38	0	2	95
fixed	2	4	5	309363	5	3	3	1	0	1976	1	4	0	56	39	0	2	95
fixed	2	4	6	311925	6	4	4	1	0	1283	1	4	0	64	40	0	2	95
fixed	2	4	7	313589	3	1	1	1	0	1165	1	4	0	40	41	0	2	95
fixed	2	4	8	315140	2	3	3	1	0	1123	1	4	0	56	42	0	2	95
fixed	2	4	9	316880	3	2	2	1	0	921	1	4	0	48	43	0	2	96
fixed	2	4	10	318259	1	4	4	1	0	1039	1	4	0	64	44	0	2	96
fixed	2	4	11	319987	5	2	2	1	0	1270	1	4	0	48	45	0	2	96
fixed	2	4	12	321955	4	3	3	1	0	1858	1	4	0	56	46	0	2	96
fixed	2	5	1	324464	4	1	1	1	0	968	1	4	0	40	47	0	2	96
fixed	2	5	2	326145	1	2	2	1	0	1545	1	4	0	48	48	0	2	96
fixed	2	5	3	328705	6	4	4	1	0	917	1	4	0	64	49	0	2	96
fixed	2	5	4	329920	2	1	1	1	0	929	1	4	0	40	50	0	2	96
fixed	2	5	5	331137	5	3	3	1	0	1750	1	4	0	56	51	0	2	96
fixed	2	5	6	333256	6	4	4	1	0	1684	1	4	0	64	52	0	2	96
fixed	2	5	7	335457	3	1	1	1	0	990	1	4	0	40	53	0	2	96
fixed	2	5	8	337172	2	3	3	1	0	1382	1	4	0	56	54	0	2	96
fixed	2	5	9	339299	3	2	2	1	0	1060	1	4	0	48	55	0	2	96
fixed	2	5	10	340820	1	4	4	1	0	931	1	4	0	64	56	0	2	97
fixed	2	5	11	342760	5	2	2	1	0	1017	1	4	0	48	57	0	2	97
fixed	2	5	12	344626	4	3	3	1	0	1035	1	4	0	56	58	0	2	97
fixed	2	6	1	346352	4	1	1	1	0	873	1	4	0	40	59	0	2	97
fixed	2	6	2	348167	1	2	2	1	0	2365	1	4	0	48	60	0	2	97
fixed	2	6	3	351527	6	4	4	1	0	886	1	4	0	64	61	0	2	97
fixed	2	6	4	353046	2	1	1	1	0	830	1	4	0	40	62	0	2	97
fixed	2	6	5	354298	5	3	3	1	0	1113	1	4	0	56	63	0	2	97
fixed	2	6	6	356026	6	4	4	1	0	1047	1	4	0	64	64	0	2	97
fixed	2	6	7	357434	3	1	1	1	0	1052	1	4	0	40	65	0	2	97
fixed	2	6	8	359512	2	3	3	1	0	1172	1	4	0	56	66	0	2	97
fixed	2	6	9	361483	3	2	2	1	0	1001	1	4	0	48	67	0	2	97
fixed	2	6	10	362786	1	4	4	1	0	1169	1	4	0	64	68	0	2	97
fixed	2	6	11	364475	5	2	2	1	0	1106	1	4	0	48	69	0	2	97
fixed	2	6	12	366567	4	3	3	1	0	1169	1	4	0	56	70	0	2	97
fixed	2	7	1	368573	4	1	1	1	0	892	1	4	0	40	71	0	2	97
fixed	2	7	2	370128	1	2	0	1	2	0	3	4	0	48	71	0	3	96
fixed	2	7	3	373591	6	4	4	1	0	1111	1	4	0	64	72	0	3	96
fixed	2	7	4	375253	2	1	1	1	0	929	1	4	0	40	73	0	3	96
fixed	2	7	5	376740	5	3	3	1	0	1146	1	4	0	56	74	0	3	96
fixed	2	7	6	378190	6	4	4	1	0	965	1	4	0	64	75	0	3	96
fixed	2	7	7	379693	3	1	1	1	0	989	1	4	0	40	76	0	3	96
fixed	2	7	8	381681	2	3	3	1	0	1537	1	4	0	56	77	0	3	96
fixed	2	7	9	383966	3	2	2	1	0	712	1	4	0	48	78	0	3	96
fixed	2	7	10	385385	1	4	4	1	0	892	1	4	0	64	79	0	3	96
fixed	2	7	11	386944	5	2	2	1	0	1506	1	4	0	48	80	0	3	96
fixed	2	7	12	388780	4	3	3	1	0	1148	1	4	0	56	81	0	3	96
fixed	2	8	1	390944	4	1	1	1	0	856	1	4	0	40	82	0	3	96
fixed	2	8	2	392724	1	2	2	1	0	1829	1	4	0	48	83	0	3	97
fixed	2	8	3	394958	6	4	4	1	0	1358	1	4	0	64	84	0	3	97
fixed	2	8	4	396988	2	1	1	1	0	905	1	4	0	40	85	0	3	97
fixed	2	8	5	398363	5	3	3	1	0	1086	1	4	0	56	86	0	3	97
fixed	2	8	6	400450	6	4	4	1	0	942	1	4	0	64	87	0	3	97
fixed	2	8	7	401975	3	1	1	1	0	893	1	4	0	40	88	0	3	97
fixed	2	8	8	403734	2	3	3	1	0	1027	1	4	0	56	89	0	3	97
fixed	2	8	9	405066	3	2	2	1	0	1178	1	4	0	48	90	0	3	97
fixed	2	8	10	406956	1	4	4	1	0	1122	1	4	0	64	91	0	3	97
fixed	2	8	11	408976	5	2	2	1	0	1133	1	4	0	48	92	0	3	97
fixed	2	8	12	411046	4	3	3	1	0	1325	1	4	0	56	93	0	3	97
fixed	2	9	1	413182	4	1	1	2	0	882	2	4	0	40	94	0	3	97
fixed	2	9	2	414665	1	2	2	1	0	1532	1	4	0	48	95	0	3	97
fixed	2	9	3	416721	6	4	4	1	0	1053	1	4	0	64	96	0	3	97
fixed	2	9	4	418514	2	1	1	1	0	953	1	4	0	40	97	0	3	97
fixed	2	9	5	419774	5	3	3	1	0	1259	1	4	0	56	98	0	3	97
fixed	2	9	6	421657	6	4	4	1	0	1180	1	4	0	64	99	0	3	97
fixed	2	9	7	423282	3	1	1	1	0	1271	1	4	0	40	100	0	3	97
fixed	2	9	8	425091	2	3	3	1	0	1330	1	4	0	56	101	0	3	97
fixed	2	9	9	427313	3	2	2	1	0	1068	1	4	0	48	102	0	3	97
fixed	2	9	10	428966	1	4	4	1	0	1102	1	4	0	64	103	0	3	97
fixed	2	9	11	430497	5	2	2	1	0	1501	1	4	0	48	104	0	3	97
fixed	2	9	12	432553	4	3	3	1	0	1190	1	4	0	56	105	0	3	97
fixed	2	10	1	434434	4	1	1	1	0	910	1	4	0	40	106	0	3	97
fixed	2	10	2	435708	1	2	2	1	0	1128	1	4	0	48	107	0	3	97
fixed	2	10	3	437467	6	4	4	1	0	990	1	4	0	64	108	0	3	97
fixed	2	10	4	439203	2	1	1	1	0	845	1	4	0	40	109	0	3	97
fixed	2	10	5	440981	5	3	3	1	0	1017	1	4	0	56	110	0	3	97
fixed	2	10	6	442505	6	4	4	1	0	1088	1	4	0	64	111	0	3	97
fixed	2	10	7	444503	3	1	1	1	0	964	1	4	0	40	112	0	3	97
fixed	2	10	8	445792	2	3	0	1	2	0	3	4	0	56	112	0	4	97
fixed	2	10	9	449075	3	2	2	1	0	1346	1	4	0	48	113	0	4	97
fixed	2	10	10	450956	1	4	4	1	0	1546	1	4	0	64	114	0	4	97
fixed	2	10	11	453394	5	2	2	1	0	1076	1	4	0	48	115	0	4	97
fixed	2	10	12	455483	4	3	3	1	0	1131	1	4	0	56	116	0	4	97
fixed	3	1	1	457906	4	1	1	2	0	1220	2	4	0	72	1	0	0	100
fixed	3	1	2	460092	1	2	0	1	2	0	3	4	0	80	1	0	1	50
fixed	3	1	3	463559	6	4	4	2	0	1061	2	4	0	96	2	0	1	67
fixed	3	1	4	465165	2	1	1	1	0	865	1	4	0	72	3	0	1	75
fixed	3	1	5	466922	5	3	3	1	0	927	1	4	0	88	4	0	1	80
fixed	3	1	6	468502	6	4	4	1	0	947	1	4	0	96	5	0	1	83
fixed	3	1	7	470449	3	1	1	1	0	865	1	4	0	72	6	0	1	86
fixed	3	1	8	472130	2	3	3	1	0	1450	1	4	0	88	7	0	1	88
fixed	3	1	9	474336	3	2	2	1	0	868	1	4	0	80	8	0	1	89
fixed	3	1	10	475645	1	4	4	1	0	1005	1	4	0	96	9	0	1	90
fixed	3	1	11	477561	5	2	2	1	0	1012	1	4	0	80	10	0	1	91
fixed	3	1	12	478868	4	3	3	1	0	1421	1	4	0	88	11	0	1	92
fixed	3	2	1	480898	4	1	1	1	0	1702	1	4	0	72	12	0	1	92
fixed	3	2	2	483244	1	2	0	1	2	0	3	4	0	80	12	0	2	86
fixed	3	2	3	486130	6	4	4	1	0	1081	1	4	0	96	13	0	2	87
fixed	3	2	4	487678	2	1	1	1	0	968	1	4	0	72	14	0	2	88
fixed	3	2	5	489321	5	3	3	1	0	1081	1	4	0	88	15	0	2	88
fixed	3	2	6	491370	6	4	4	1	0	915	1	4	0	96	16	0	2	89
fixed	3	2	7	493278	3	1	1	1	0	842	1	4	0	72	17	0	2	89
fixed	3	2	8	494496	2	3	3	1	0	1366	1	4	0	88	18	0	2	90
fixed	3	2	9	496698	3	2	2	1	0	1409	1	4	0	80	19	0	2	90
fixed	3	2	10	498420	1	4	4	1	0	1745	1	4	0	96	20	0	2	91
fixed	3	2	11	500547	5	2	0	0	2	0	3	4	0	80	20	0	3	87
fixed	3	2	12	503553	4	3	3	2	0	1663	2	4	0	88	21	0	3	88
fixed	3	3	1	506428	4	1	1	1	0	885	1	4	0	72	22	0	3	88
fixed	3	3	2	508169	1	2	2	1	0	1939	1	4	0	80	23	0	3	88
fixed	3	3	3	510773	6	4	4	1	0	997	1	4	0	96	24	0	3	89
fixed	3	3	4	512182	2	1	1	1	0	1105	1	4	0	72	25	0	3	89
fixed	3	3	5	513918	5	3	3	2	0	968	2	4	0	88	26	0	3	90
fixed	3	3	6	515821	6	4	4	1	0	1511	1	4	0	96	27	0	3	90
fixed	3	3	7	517895	3	1	1	1	0	1055	1	4	0	72	28	0	3	90
fixed	3	3	8	519970	2	3	3	1	0	1144	1	4	0	88	29	0	3	91
fixed	3	3	9	521669	3	2	2	1	0	1151	1	4	0	80	30	0	3	91
fixed	3	3	10	523685	1	4	4	1	0	1218	1	4	0	96	31	0	3	91
fixed	3	3	11	525513	5	2	2	1	0	1037	1	4	0	80	32	0	3	91
fixed	3	3	12	527089	4	3	3	1	0	1026	1	4	0	88	33	0	3	92
fixed	3	4	1	528699	4	1	1	1	0	982	1	4	0	72	34	0	3	92
fixed	3	4	2	530479	1	2	2	1	0	1435	1	4	0	80	35	0	3	92
fixed	3	4	3	532309	6	4	4	1	0	981	1	4	0	96	36	0	3	92
fixed	3	4	4	534210	2	1	1	1	0	836	1	4	0	72	37	0	3	93
fixed	3	4	5	536080	5	3	3	1	0	1021	1	4	0	88	38	0	3	93
fixed	3	4	6	537635	6	4	4	1	0	1187	1	4	0	96	39	0	3	93
fixed	3	4	7	539557	3	1	1	1	0	1498	1	4	0	72	40	0	3	93
fixed	3	4	8	541730	2	3	3	1	0	1014	1	4	0	88	41	0	3	93
fixed	3	4	9	543302	3	2	2	1	0	1251	1	4	0	80	42	0	3	93
fixed	3	4	10	545038	1	4	4	1	0	1265	1	4	0	96	43	0	3	93
fixed	3	4	11	547164	5	2	2	1	0	1040	1	4	0	80	44	0	3	94
fixed	3	4	12	548775	4	3	3	1	0	2116	1	4	0	88	45	0	3	94
fixed	3	5	1	551856	4	1	1	1	0	873	1	4	0	72	46	0	3	94
fixed	3	5	2	553453	1	2	2	1	0	1373	1	4	0	80	47	0	3	94
fixed	3	5	3	555739	6	4	4	1	0	1197	1	4	0	96	48	0	3	94
fixed	3	5	4	557279	2	1	1	1	0	1036	1	4	0	72	49	0	3	94
fixed	3	5	5	559210	5	3	3	1	0	1049	1	4	0	88	50	0	3	94
fixed	3	5	6	560855	6	4	4	1	0	1132	1	4	0	96	51	0	3	94
fixed	3	5	7	562995	3	1	1	1	0	825	1	4	0	72	52	0	3	95
fixed	3	5	8	564496	2	3	3	1	0	1082	1	4	0	88	53	0	3	95
fixed	3	5	9	566301	3	2	2	1	0	1493	1	4	0	80	54	0	3	95
fixed	3	5	10	568331	1	4	4	1	0	1327	1	4	0	96	55	0	3	95
fixed	3	5	11	570344	5	2	2	1	0	1058	1	4	0	80	56	0	3	95
fixed	3	5	12	572299	4	3	3	1	0	1367	1	4	0	88	57	0	3	95
fixed	3	6	1	574946	4	1	1	1	0	991	1	4	0	72	58	0	3	95
fixed	3	6	2	576651	1	2	2	1	0	1631	1	4	0	80	59	0	3	95
fixed	3	6	3	579283	6	4	4	1	0	975	1	4	0	96	60	0	3	95
fixed	3	6	4	580833	2	1	1	1	0	990	1	4	0	72	61	0	3	95
fixed	3	6	5	582743	5	3	3	1	0	1069	1	4	0	88	62	0	3	95
fixed	3	6	6	584717	6	4	4	1	0	930	1	4	0	96	63	0	3	95
fixed	3	6	7	586585	3	1	1	1	0	922	1	4	0	72	64	0	3	96
fixed	3	6	8	588075	2	3	3	1	0	1443	1	4	0	88	65	0	3	96
fixed	3	6	9	589845	3	2	2	1	0	992	1	4	0	80	66	0	3	96
fixed	3	6	10	591591	1	4	4	1	0	1542	1	4	0	96	67	0	3	96
fixed	3	6	11	594012	5	2	2	1	0	1103	1	4	0	80	68	0	3	96
fixed	3	6	12	595421	4	3	3	1	0	1196	1	4	0	88	69	0	3	96
fixed	3	7	1	597702	4	1	1	2	0	971	2	4	0	72	70	0	3	96
fixed	3	7	2	599115	1	2	0	1	2	0	3	4	0	80	70	0	4	95
fixed	3	7	3	602108	6	4	4	1	0	865	1	4	0	96	71	0	4	95
fixed	3	7	4	603406	2	1	1	1	0	978	1	4	0	72	72	0	4	95
fixed	3	7	5	605196	5	3	3	1	0	1222	1	4	0	88	73	0	4	95
fixed	3	7	6	607229	6	4	4	1	0	920	1	4	0	96	74	0	4	95
fixed	3	7	7	608989	3	1	1	1	0	1077	1	4	0	72	75	0	4	95
fixed	3	7	8	610836	2	3	3	1	0	2215	1	4	0	88	76	0	4	95
fixed	3	7	9	613928	3	2	2	1	0	1220	1	4	0	80	77	0	4	95
fixed	3	7	10	615912	1	4	4	1	0	856	1	4	0	96	78	0	4	95
fixed	3	7	11	617749	5	2	2	1	0	1130	1	4	0	80	79	0	4	95
fixed	3	7	12	619846	4	3	3	1	0	1137	1	4	0	88	80	0	4	95
fixed	3	8	1	621961	4	1	1	1	0	887	1	4	0	72	81	0	4	95
fixed	3	8	2	623245	1	2	0	1	2	0	3	4	0	80	81	0	5	94
fixed	3	8	3	626328	6	4	4	1	0	1215	1	4	0	96	82	0	5	94
fixed	3	8	4	628227	2	1	1	1	0	870	1	4	0	72	83	0	5	94
fixed	3	8	5	629610	5	3	3	1	0	1588	1	4	0	88	84	0	5	94
fixed	3	8	6	632110	6	4	4	1	0	1186	1	4	0	96	85	0	5	94
fixed	3	8	7	634093	3	1	1	1	0	1214	1	4	0	72	86	0	5	95
fixed	3	8	8	635821	2	3	3	1	0	1357	1	4	0	88	87	0	5	95
fixed	3	8	9	637802	3	2	2	1	0	1217	1	4	0	80	88	0	5	95
fixed	3	8	10	639463	1	4	4	1	0	1555	1	4	0	96	89	0	5	95
fixed	3	8	11	641743	5	2	2	1	0	1450	1	4	0	80	90	0	5	95
fixed	3	8	12	644030	4	3	3	1	0	1025	1	4	0	88	91	0	5	95
fixed	3	9	1	645987	4	1	1	2	0	1542	2	4	0	72	92	0	5	95
fixed	3	9	2	648520	1	2	0	1	2	0	3	4	0	80	92	0	6	94
fixed	3	9	3	651950	6	4	4	1	0	977	1	4	0	96	93	0	6	94
fixed	3	9	4	653568	2	1	1	1	0	925	1	4	0	72	94	0	6	94
fixed	3	9	5	655097	5	3	3	2	0	1148	2	4	0	88	95	0	6	94
fixed	3	9	6	656752	6	4	4	1	0	1046	1	4	0	96	96	0	6	94
fixed	3	9	7	658099	3	1	1	1	0	1005	1	4	0	72	97	0	6	94
fixed	3	9	8	660146	2	3	3	1	0	1206	1	4	0	88	98	0	6	94
fixed	3	9	9	662103	3	2	2	1	0	1324	1	4	0	80	99	0	6	94
fixed	3	9	10	664256	1	4	4	1	0	1232	1	4	0	96	100	0	6	94
fixed	3	9	11	666013	5	2	2	1	0	926	1	4	0	80	101	0	6	94
fixed	3	9	12	667948	4	3	3	1	0	1076	1	4	0	88	102	0	6	94
fixed	3	10	1	670297	4	1	1	1	0	848	1	4	0	72	103	0	6	94
fixed	3	10	2	671813	1	2	0	1	2	0	3	4	0	80	103	0	7	94
fixed	3	10	3	675294	6	4	4	1	0	1133	1	4	0	96	104	0	7	94
fixed	3	10	4	677267	2	1	1	1	0	921	1	4	0	72	105	0	7	94
fixed	3	10	5	678569	5	3	3	1	0	1114	1	4	0	88	106	0	7	94
fixed	3	10	6	680533	6	4	4	1	0	1871	1	4	0	96	107	0	7	94
fixed	3	10	7	683423	3	1	1	1	0	1021	1	4	0	72	108	0	7	94
fixed	3	10	8	684884	2	3	3	1	0	1134	1	4	0	88	109	0	7	94
fixed	3	10	9	686973	3	2	2	1	0	1206	1	4	0	80	110	0	7	94
fixed	3	10	10	688910	1	4	4	1	0	1276	1	4	0	96	111	0	7	94
fixed	3	10	11	690577	5	2	2	1	0	1077	1	4	0	80	112	0	7	94
fixed	3	10	12	692571	4	3	3	1	0	1801	1	4	0	88	113	0	7	94
fixed	4	1	1	792611	4	1	1	1	0	1387	1	4	0	104	1	0	0	100
fixed	4	1	2	795025	1	2	0	2	2	0	3	4	0	112	1	0	1	50
fixed	4	1	3	798363	6	4	4	1	0	856	1	4	0	128	2	0	1	67
fixed	4	1	4	799958	2	1	1	1	0	1149	1	4	0	104	3	0	1	75
fixed	4	1	5	801745	5	3	3	1	0	1657	1	4	0	120	4	0	1	80
fixed	4	1	6	803836	6	4	4	2	0	1233	2	4	0	128	5	0	1	83
fixed	4	1	7	805760	3	1	1	1	0	790	1	4	0	104	6	0	1	86
fixed	4	1	8	806935	2	3	3	1	0	1221	1	4	0	120	7	0	1	88
fixed	4	1	9	808738	3	2	2	2	0	920	2	4	0	112	8	0	1	89
fixed	4	1	10	810029	1	4	4	1	0	1098	1	4	0	128	9	0	1	90
fixed	4	1	11	811484	5	2	2	1	0	1308	1	4	0	112	10	0	1	91
fixed	4	1	12	813436	4	3	3	1	0	1354	1	4	0	120	11	0	1	92
fixed	4	2	1	815870	4	1	1	1	0	834	1	4	0	104	12	0	1	92
fixed	4	2	2	817160	1	2	0	1	2	0	3	4	0	112	12	0	2	86
fixed	4	2	3	820466	6	4	4	1	0	816	1	4	0	128	13	0	2	87
fixed	4	2	4	821991	2	1	1	1	0	839	1	4	0	104	14	0	2	88
fixed	4	2	5	823154	5	3	3	1	0	2086	1	4	0	120	15	0	2	88
fixed	4	2	6	826112	6	4	4	2	0	849	2	4	0	128	16	0	2	89
fixed	4	2	7	827263	3	1	1	1	0	1704	1	4	0	104	17	0	2	89
fixed	4	2	8	829421	2	3	3	1	0	1308	1	4	0	120	18	0	2	90
fixed	4	2	9	831171	3	2	2	1	0	1115	1	4	0	112	19	0	2	90
fixed	4	2	10	832677	1	4	4	1	0	930	1	4	0	128	20	0	2	91
fixed	4	2	11	834312	5	2	2	1	0	1566	1	4	0	112	21	0	2	91
fixed	4	2	12	836360	4	3	3	1	0	1175	1	4	0	120	22	0	2	92
fixed	4	3	1	838593	4	1	1	1	0	784	1	4	0	104	23	0	2	92
fixed	4	3	2	840189	1	2	2	1	0	2101	1	4	0	112	24	0	2	92
fixed	4	3	3	843191	6	4	4	1	0	1077	1	4	0	128	25	0	2	93
fixed	4	3	4	844650	2	1	1	1	0	904	1	4	0	104	26	0	2	93
fixed	4	3	5	846233	5	3	3	1	0	1196	1	4	0	120	27	0	2	93
fixed	4	3	6	847755	6	4	4	1	0	980	1	4	0	128	28	0	2	93
fixed	4	3	7	849378	3	1	1	1	0	903	1	4	0	104	29	0	2	94
fixed	4	3	8	850747	2	3	3	1	0	437	1	4	0	120	30	0	2	94
fixed	4	3	9	851730	3	2	2	1	0	1156	1	4	0	112	31	0	2	94
fixed	4	3	10	853571	1	4	4	1	0	1350	1	4	0	128	32	0	2	94
fixed	4	3	11	855928	5	2	2	1	0	1594	1	4	0	112	33	0	2	94
fixed	4	3	12	857915	4	3	3	1	0	1278	1	4	0	120	34	0	2	94
fixed	4	4	1	860446	4	1	1	1	0	858	1	4	0	104	35	0	2	95
fixed	4	4	2	862302	1	2	0	2	2	0	3	4	0	112	35	0	3	92
fixed	4	4	3	865448	6	4	4	1	0	911	1	4	0	128	36	0	3	92
fixed	4	4	4	867209	2	1	1	1	0	1028	1	4	0	104	37	0	3	93
fixed	4	4	5	869078	5	3	3	1	0	1429	1	4	0	120	38	0	3	93
fixed	4	4	6	871206	6	4	4	1	0	1067	1	4	0	128	39	0	3	93
fixed	4	4	7	872850	3	1	1	1	0	1077	1	4	0	104	40	0	3	93
fixed	4	4	8	874760	2	3	3	1	0	1557	1	4	0	120	41	0	3	93
fixed	4	4	9	876732	3	2	0	0	2	0	3	4	0	112	41	0	4	91
fixed	4	4	10	879968	1	4	4	1	0	1328	1	4	0	128	42	0	4	91
fixed	4	4	11	881844	5	2	0	1	2	0	3	4	0	112	42	0	5	89
fixed	4	4	12	885144	4	3	3	1	0	1404	1	4	0	120	43	0	5	90
fixed	4	5	1	887529	4	1	1	1	0	967	1	4	0	104	44	0	5	90
fixed	4	5	2	888819	1	2	0	1	2	0	3	4	0	112	44	0	6	88
fixed	4	5	3	892287	6	4	4	1	0	838	1	4	0	128	45	0	6	88
fixed	4	5	4	893832	2	1	1	1	0	1052	1	4	0	104	46	0	6	88
fixed	4	5	5	895186	5	3	3	1	0	971	1	4	0	120	47	0	6	89
fixed	4	5	6	896750	6	4	4	2	0	1097	2	4	0	128	48	0	6	89
fixed	4	5	7	898346	3	1	1	1	0	2141	1	4	0	104	49	0	6	89
fixed	4	5	8	901213	2	3	3	1	0	1012	1	4	0	120	50	0	6	89
fixed	4	5	9	902965	3	2	2	2	0	1169	2	4	0	112	51	0	6	89
fixed	4	5	10	904545	1	4	4	1	0	1135	1	4	0	128	52	0	6	90
fixed	4	5	11	906694	5	2	2	1	0	1851	1	4	0	112	53	0	6	90
fixed	4	5	12	909347	4	3	3	2	0	1635	2	4	0	120	54	0	6	90
fixed	4	6	1	912257	4	1	1	2	0	944	2	4	0	104	55	0	6	90
fixed	4	6	2	914154	1	2	2	1	0	1968	1	4	0	112	56	0	6	90
fixed	4	6	3	916487	6	4	4	1	0	1085	1	4	0	128	57	0	6	90
fixed	4	6	4	918294	2	1	1	1	0	1120	1	4	0	104	58	0	6	91
fixed	4	6	5	920372	5	3	3	1	0	1105	1	4	0	120	59	0	6	91
fixed	4	6	6	921939	6	4	4	1	0	1246	1	4	0	128	60	0	6	91
fixed	4	6	7	923638	3	1	1	1	0	1518	1	4	0	104	61	0	6	91
fixed	4	6	8	926144	2	3	3	1	0	1300	1	4	0	120	62	0	6	91
fixed	4	6	9	927759	3	2	2	1	0	1167	1	4	0	112	63	0	6	91
fixed	4	6	10	929889	1	4	4	1	0	1573	1	4	0	128	64	0	6	91
fixed	4	6	11	932353	5	2	0	1	2	0	3	4	0	112	64	0	7	90
fixed	4	6	12	935793	4	3	3	1	0	43	1	4	0	120	65	0	7	90
fixed	4	7	1	936633	4	1	1	1	0	943	1	4	0	104	66	0	7	90
fixed	4	7	2	938480	1	2	0	2	2	0	3	4	0	112	66	0	8	89
fixed	4	7	3	941879	6	4	4	1	0	913	1	4	0	128	67	0	8	89
fixed	4	7	4	943494	2	1	1	1	0	917	1	4	0	104	68	0	8	89
fixed	4	7	5	945230	5	3	3	1	0	1380	1	4	0	120	69	0	8	90
fixed	4	7	6	947043	6	4	4	2	0	1078	2	4	0	128	70	0	8	90
fixed	4	7	7	948875	3	1	1	1	0	985	1	4	0	104	71	0	8	90
fixed	4	7	8	950776	2	3	3	1	0	1465	1	4	0	120	72	0	8	90
fixed	4	7	9	953234	3	2	2	2	0	1089	2	4	0	112	73	0	8	90
fixed	4	7	10	955094	1	4	4	1	0	857	1	4	0	128	74	0	8	90
fixed	4	7	11	956355	5	2	0	1	2	0	3	4	0	112	74	0	9	89
fixed	4	7	12	959498	4	3	3	1	0	247	1	4	0	120	75	0	9	89
fixed	4	8	1	960960	4	1	1	2	0	1641	2	4	0	104	76	0	9	89
fixed	4	8	2	963637	1	2	0	2	2	0	3	4	0	112	76	0	10	88
fixed	4	8	3	966754	6	4	4	1	0	892	1	4	0	128	77	0	10	89
fixed	4	8	4	968476	2	1	1	1	0	1091	1	4	0	104	78	0	10	89
fixed	4	8	5	969905	5	3	0	0	2	0	3	4	0	120	78	0	11	88
fixed	4	8	6	973248	6	4	4	1	0	841	1	4	0	128	79	0	11	88
fixed	4	8	7	974803	3	1	1	1	0	1071	1	4	0	104	80	0	11	88
fixed	4	8	8	976773	2	3	3	1	0	1276	1	4	0	120	81	0	11	88
fixed	4	8	9	978927	3	2	2	1	0	696	1	4	0	112	82	0	11	88
fixed	4	8	10	980211	1	4	4	1	0	1154	1	4	0	128	83	0	11	88
fixed	4	8	11	981987	5	2	0	1	2	0	3	4	0	112	83	0	12	87
fixed	4	8	12	985430	4	3	3	2	0	2269	2	4	0	120	84	0	12	88
fixed	4	9	1	988744	4	1	1	1	0	944	1	4	0	104	85	0	12	88
fixed	4	9	2	990048	1	2	0	3	2	0	3	4	0	112	85	0	13	87
fixed	4	9	3	992858	6	4	4	2	0	810	2	4	0	128	86	0	13	87
fixed	4	9	4	994106	2	1	1	1	0	1109	1	4	0	104	87	0	13	87
fixed	4	9	5	995941	5	3	3	1	0	1408	1	4	0	120	88	0	13	87
fixed	4	9	6	998093	6	4	4	1	0	1413	1	4	0	128	89	0	13	87
fixed	4	9	7	1000076	3	1	1	1	0	992	1	4	0	104	90	0	13	87
fixed	4	9	8	1002044	2	3	3	1	0	205	1	4	0	120	91	0	13	88
fixed	4	9	9	1002908	3	2	2	2	0	1321	2	4	0	112	92	0	13	88
fixed	4	9	10	1004540	1	4	4	1	0	1843	1	4	0	128	93	0	13	88
fixed	4	9	11	1007250	5	2	2	1	0	857	1	4	0	112	94	0	13	88
fixed	4	9	12	1008912	4	3	3	1	0	1882	1	4	0	120	95	0	13	88
fixed	4	10	1	1011718	4	1	1	2	0	979	2	4	0	104	96	0	13	88
fixed	4	10	2	1013124	1	2	0	1	2	0	3	4	0	112	96	0	14	87
fixed	4	10	3	1016133	6	4	4	2	0	792	2	4	0	128	97	0	14	87
fixed	4	10	4	1017247	2	1	1	1	0	961	1	4	0	104	98	0	14	88
fixed	4	10	5	1018671	5	3	0	0	2	0	3	4	0	120	98	0	15	87
fixed	4	10	6	1021840	6	4	4	1	0	1190	1	4	0	128	99	0	15	87
fixed	4	10	7	1023416	3	1	1	1	0	932	1	4	0	104	100	0	15	87
fixed	4	10	8	1025322	2	3	3	1	0	1251	1	4	0	120	101	0	15	87
fixed	4	10	9	1026899	3	2	0	1	2	0	3	4	0	112	101	0	16	86
fixed	4	10	10	1029727	1	4	4	2	0	904	2	4	0	128	102	0	16	86
fixed	4	10	11	1031184	5	2	0	0	2	0	3	4	0	112	102	0	17	86
fixed	4	10	12	1034653	4	3	3	1	0	1752	1	4	0	120	103	0	17	86
fixed	5	1	1	1037612	4	1	1	2	0	1714	2	4	0	136	1	0	0	100
fixed	5	1	2	1040190	1	2	0	2	2	0	3	4	0	144	1	0	1	50
fixed	5	1	3	1043227	6	4	4	2	0	956	2	4	0	160	2	0	1	67
fixed	5	1	4	1045014	2	1	1	1	0	977	1	4	0	136	3	0	1	75
fixed	5	1	5	1046878	5	3	3	1	0	978	1	4	0	152	4	0	1	80
fixed	5	1	6	1048240	6	4	4	2	0	992	2	4	0	160	5	0	1	83
fixed	5	1	7	1049754	3	1	1	1	0	2280	1	4	0	136	6	0	1	86
fixed	5	1	8	1052476	2	3	3	1	0	1573	1	4	0	152	7	0	1	88
fixed	5	1	9	1054756	3	2	2	1	0	1108	1	4	0	144	8	0	1	89
fixed	5	1	10	1056773	1	4	4	1	0	1911	1	4	0	160	9	0	1	90
fixed	5	1	11	1059439	5	2	0	1	2	0	3	4	0	144	9	0	2	82
fixed	5	1	12	1062798	4	3	3	1	0	376	1	4	0	152	10	0	2	83
fixed	5	2	1	1064163	4	1	0	1	2	0	3	4	0	136	10	0	3	77
fixed	5	2	2	1067402	1	2	0	3	2	0	3	4	0	144	10	0	4	71
fixed	5	2	3	1070420	6	4	4	1	0	933	1	4	0	160	11	0	4	73
fixed	5	2	4	1071762	2	1	1	1	0	1188	1	4	0	136	12	0	4	75
fixed	5	2	5	1073337	5	3	3	1	0	1369	1	4	0	152	13	0	4	76
fixed	5	2	6	1075684	6	4	4	1	0	1262	1	4	0	160	14	0	4	78
fixed	5	2	7	1077476	3	1	1	1	0	2418	1	4	0	136	15	0	4	79
fixed	5	2	8	1080488	2	3	3	1	0	986	1	4	0	152	16	0	4	80
fixed	5	2	9	1082059	3	2	2	3	0	1376	2	4	0	144	17	0	4	81
fixed	5	2	10	1083919	1	4	4	1	0	1017	1	4	0	160	18	0	4	82
fixed	5	2	11	1085331	5	2	2	1	0	1157	1	4	0	144	19	0	4	83
fixed	5	2	12	1086797	4	3	3	1	0	1704	1	4	0	152	20	0	4	83
fixed	5	3	1	1089609	4	1	1	2	0	984	2	4	0	136	21	0	4	84
fixed	5	3	2	1091260	1	2	0	1	2	0	3	4	0	144	21	0	5	81
fixed	5	3	3	1094101	6	4	4	1	0	1266	1	4	0	160	22	0	5	81
fixed	5	3	4	1095964	2	1	1	1	0	883	1	4	0	136	23	0	5	82
fixed	5	3	5	1097705	5	3	3	1	0	1081	1	4	0	152	24	0	5	83
fixed	5	3	6	1099750	6	4	4	1	0	922	1	4	0	160	25	0	5	83
fixed	5	3	7	1101263	3	1	1	1	0	1155	1	4	0	136	26	0	5	84
fixed	5	3	8	1102927	2	3	3	1	0	1092	1	4	0	152	27	0	5	84
fixed	5	3	9	1104760	3	2	2	3	0	1062	2	4	0	144	28	0	5	85
fixed	5	3	10	1106260	1	4	4	1	0	1759	1	4	0	160	29	0	5	85
fixed	5	3	11	1108465	5	2	2	1	0	2090	1	4	0	144	30	0	5	86
fixed	5	3	12	1111175	4	3	3	1	0	1295	1	4	0	152	31	0	5	86
fixed	5	4	1	1113517	4	1	1	1	0	995	1	4	0	136	32	0	5	86
fixed	5	4	2	1115234	1	2	2	1	0	2091	1	4	0	144	33	0	5	87
fixed	5	4	3	1117675	6	4	4	1	0	1467	1	4	0	160	34	0	5	87
fixed	5	4	4	1120152	2	1	1	1	0	938	1	4	0	136	35	0	5	88
fixed	5	4	5	1122130	5	3	3	1	0	1167	1	4	0	152	36	0	5	88
fixed	5	4	6	1124294	6	4	4	2	0	1235	2	4	0	160	37	0	5	88
fixed	5	4	7	1126250	3	1	1	1	0	1392	1	4	0	136	38	0	5	88
fixed	5	4	8	1128547	2	3	3	1	0	1479	1	4	0	152	39	0	5	89
fixed	5	4	9	1130696	3	2	2	2	0	980	2	4	0	144	40	0	5	89
fixed	5	4	10	1132124	1	4	4	2	0	1064	2	4	0	160	41	0	5	89
fixed	5	4	11	1133658	5	2	2	1	0	1527	1	4	0	144	42	0	5	89
fixed	5	4	12	1135781	4	3	3	1	0	1397	1	4	0	152	43	0	5	90
fixed	5	5	1	1138378	4	1	1	2	0	894	2	4	0	136	44	0	5	90
fixed	5	5	2	1140220	1	2	0	2	2	0	3	4	0	144	44	0	6	88
fixed	5	5	3	1143279	6	4	4	1	0	1935	1	4	0	160	45	0	6	88
fixed	5	5	4	1145624	2	1	1	1	0	884	1	4	0	136	46	0	6	88
fixed	5	5	5	1147442	5	3	0	1	2	0	3	4	0	152	46	0	7	87
fixed	5	5	6	1150743	6	4	4	1	0	1211	1	4	0	160	47	0	7	87
fixed	5	5	7	1152726	3	1	1	1	0	1695	1	4	0	136	48	0	7	87
fixed	5	5	8	1155215	2	3	3	1	0	1926	1	4	0	152	49	0	7	88
fixed	5	5	9	1157451	3	2	2	2	0	1231	2	4	0	144	50	0	7	88
fixed	5	5	10	1159148	1	4	4	1	0	1039	1	4	0	160	51	0	7	88
fixed	5	5	11	1160565	5	2	0	1	2	0	3	4	0	144	51	0	8	86
fixed	5	5	12	1163825	4	3	3	1	0	297	1	4	0	152	52	0	8	87
fixed	5	6	1	1165027	4	1	1	1	0	982	1	4	0	136	53	0	8	87
fixed	5	6	2	1166318	1	2	0	1	2	0	3	4	0	144	53	0	9	85
fixed	5	6	3	1169664	6	4	4	1	0	1146	1	4	0	160	54	0	9	86
fixed	5	6	4	1171682	2	1	1	1	0	924	1	4	0	136	55	0	9	86
fixed	5	6	5	1173042	5	3	3	1	0	2339	1	4	0	152	56	0	9	86
fixed	5	6	6	1175814	6	4	4	2	0	1101	2	4	0	160	57	0	9	86
fixed	5	6	7	1177698	3	1	1	1	0	1285	1	4	0	136	58	0	9	87
fixed	5	6	8	1179740	2	3	3	1	0	1183	1	4	0	152	59	0	9	87
fixed	5	6	9	1181712	3	2	0	3	2	0	3	4	0	144	59	0	10	86
fixed	5	6	10	1185190	1	4	4	2	0	1039	2	4	0	160	60	0	10	86
fixed	5	6	11	1186810	5	2	0	1	2	0	3	4	0	144	60	0	11	85
fixed	5	6	12	1189968	4	3	3	1	0	1798	1	4	0	152	61	0	11	85
fixed	5	7	1	1192829	4	1	1	1	0	988	1	4	0	136	62	0	11	85
fixed	5	7	2	1194403	1	2	2	1	0	1098	1	4	0	144	63	0	11	85
fixed	5	7	3	1196133	6	4	4	1	0	1513	1	4	0	160	64	0	11	85
fixed	5	7	4	1198121	2	1	1	1	0	1004	1	4	0	136	65	0	11	86
fixed	5	7	5	1199695	5	3	3	1	0	1241	1	4	0	152	66	0	11	86
fixed	5	7	6	1201780	6	4	4	1	0	1033	1	4	0	160	67	0	11	86
fixed	5	7	7	1203424	3	1	1	1	0	1971	1	4	0	136	68	0	11	86
fixed	5	7	8	1205808	2	3	3	1	0	1231	1	4	0	152	69	0	11	86
fixed	5	7	9	1207986	3	2	2	1	0	1210	1	4	0	144	70	0	11	86
fixed	5	7	10	1210235	1	4	4	1	0	1067	1	4	0	160	71	0	11	87
fixed	5	7	11	1212166	5	2	0	1	2	0	3	4	0	144	71	0	12	86
fixed	5	7	12	1215355	4	3	3	1	0	1394	1	4	0	152	72	0	12	86
fixed	5	8	1	1217305	4	1	1	2	0	935	2	4	0	136	73	0	12	86
fixed	5	8	2	1219205	1	2	0	0	2	0	3	4	0	144	73	0	13	85
fixed	5	8	3	1222469	6	4	4	1	0	1045	1	4	0	160	74	0	13	85
fixed	5	8	4	1223969	2	1	1	1	0	1173	1	4	0	136	75	0	13	85
fixed	5	8	5	1226017	5	3	3	1	0	1303	1	4	0	152	76	0	13	85
fixed	5	8	6	1228227	6	4	4	1	0	1161	1	4	0	160	77	0	13	86
fixed	5	8	7	1229699	3	1	1	1	0	1627	1	4	0	136	78	0	13	86
fixed	5	8	8	1232342	2	3	3	1	0	1610	1	4	0	152	79	0	13	86
fixed	5	8	9	1234818	3	2	2	1	0	1218	1	4	0	144	80	0	13	86
fixed	5	8	10	1236402	1	4	4	2	0	1423	2	4	0	160	81	0	13	86
fixed	5	8	11	1238418	5	2	0	1	2	0	3	4	0	144	81	0	14	85
fixed	5	8	12	1241336	4	3	3	1	0	94	1	4	0	152	82	0	14	85
fixed	5	9	1	1242317	4	1	1	2	0	1708	2	4	0	136	83	0	14	86
fixed	5	9	2	1245055	1	2	2	1	0	1968	1	4	0	144	84	0	14	86
fixed	5	9	3	1247949	6	4	4	1	0	1278	1	4	0	160	85	0	14	86
fixed	5	9	4	1249546	2	1	1	1	0	1026	1	4	0	136	86	0	14	86
fixed	5	9	5	1251485	5	3	3	1	0	1184	1	4	0	152	87	0	14	86
fixed	5	9	6	1253357	6	4	4	2	0	953	2	4	0	160	88	0	14	86
fixed	5	9	7	1255345	3	1	1	1	0	1925	1	4	0	136	89	0	14	86
fixed	5	9	8	1257830	2	3	3	1	0	843	1	4	0	152	90	0	14	87
fixed	5	9	9	1259641	3	2	2	3	0	1190	2	4	0	144	91	0	14	87
fixed	5	9	10	1261262	1	4	4	1	0	1050	1	4	0	160	92	0	14	87
fixed	5	9	11	1262734	5	2	0	0	2	0	3	4	0	144	92	0	15	86
fixed	5	9	12	1265871	4	3	3	1	0	1407	1	4	0	152	93	0	15	86
fixed	5	10	1	1268063	4	1	1	2	0	858	2	4	0	136	94	0	15	86
fixed	5	10	2	1269461	1	2	0	3	2	0	3	4	0	144	94	0	16	85
fixed	5	10	3	1272360	6	4	4	1	0	1132	1	4	0	160	95	0	16	86
fixed	5	10	4	1274210	2	1	1	1	0	1021	1	4	0	136	96	0	16	86
fixed	5	10	5	1275630	5	3	3	1	0	2241	1	4	0	152	97	0	16	86
fixed	5	10	6	1278392	6	4	4	2	0	1108	2	4	0	160	98	0	16	86
fixed	5	10	7	1280415	3	1	0	2	2	0	3	4	0	136	98	0	17	85
fixed	5	10	8	1283548	2	3	3	1	0	1338	1	4	0	152	99	0	17	85
fixed	5	10	9	1285453	3	2	2	2	0	962	2	4	0	144	100	0	17	85
fixed	5	10	10	1286715	1	4	4	1	0	1492	1	4	0	160	101	0	17	86
fixed	5	10	11	1288871	5	2	2	1	0	1200	1	4	0	144	102	0	17	86
fixed	5	10	12	1290673	4	3	3	1	0	1892	1	4	0	152	103	0	17	86
random	6	1	1	1383043	6	1	1	1	0	1180	1	4	0	168	1	0	0	100
random	6	1	2	1384984	4	4	4	2	0	1073	2	4	0	192	2	0	0	100
random	6	1	3	1386902	2	2	2	1	0	1384	1	4	0	176	3	0	0	100
random	6	1	4	1389284	3	3	3	1	0	956	1	4	0	184	4	0	0	100
random	6	1	5	1390581	5	2	2	1	0	988	1	4	0	176	5	0	0	100
random	6	1	6	1392178	1	4	4	1	0	897	1	4	0	192	6	0	0	100
random	6	1	7	1393450	6	1	1	1	0	979	1	4	0	168	7	0	0	100
random	6	1	8	1395037	2	3	3	1	0	1232	1	4	0	184	8	0	0	100
random	6	1	9	1396626	4	2	2	1	0	948	1	4	0	176	9	0	0	100
random	6	1	10	1398025	1	1	1	1	0	1001	1	4	0	168	10	0	0	100
random	6	1	11	1399764	5	4	4	2	0	1328	2	4	0	192	11	0	0	100
random	6	1	12	1401723	3	3	3	1	0	1716	1	4	0	184	12	0	0	100
random	6	1	13	1404381	5	2	0	3	2	0	3	4	0	176	12	0	1	92
random	6	1	14	1407402	1	4	4	1	0	1140	1	4	0	192	13	0	1	93
random	6	1	15	1409562	3	1	1	1	0	984	1	4	0	168	14	0	1	93
random	6	1	16	1410954	4	3	3	1	0	1582	1	4	0	184	15	0	1	94
random	6	1	17	1412887	6	4	4	2	0	940	2	4	0	192	16	0	1	94
random	6	1	18	1414346	2	1	1	1	0	1318	1	4	0	168	17	0	1	94
random	6	1	19	1416526	5	3	3	1	0	1201	1	4	0	184	18	0	1	95
random	6	1	20	1418135	2	2	0	2	2	0	3	4	0	176	18	0	2	90
random	6	1	21	1421290	3	3	3	1	0	224	1	4	0	184	19	0	2	90
random	6	1	22	1422005	6	1	1	2	0	1329	2	4	0	168	20	0	2	91
random	6	1	23	1423765	4	2	2	1	0	1079	1	4	0	176	21	0	2	91
random	6	1	24	1425555	1	4	4	3	0	915	2	4	0	192	22	0	2	92
random	6	1	25	1427638	4	3	3	1	0	1675	1	4	0	184	23	0	2	92
random	6	1	26	1430244	2	1	1	1	0	1100	1	4	0	168	24	0	2	92
random	6	1	27	1431868	5	2	2	1	0	936	1	4	0	176	25	0	2	93
random	6	1	28	1433589	6	4	4	1	0	967	1	4	0	192	26	0	2	93
random	6	1	29	1435010	1	3	3	1	0	1419	1	4	0	184	27	0	2	93
random	6	1	30	1437126	5	2	2	2	0	889	2	4	0	176	28	0	2	93
random	6	1	31	1438329	2	1	1	2	0	998	2	4	0	168	29	0	2	94
random	6	1	32	1440129	3	3	0	0	2	0	3	4	0	184	29	0	3	91
random	6	1	33	1443239	6	4	4	1	0	1143	1	4	0	192	30	0	3	91
random	6	1	34	1445168	4	2	2	1	0	1148	1	4	0	176	31	0	3	91
random	6	1	35	1447207	3	4	4	1	0	990	1	4	0	192	32	0	3	91
random	6	1	36	1448882	1	1	1	1	0	1559	1	4	0	168	33	0	3	92
random	6	1	37	1451246	3	4	4	1	0	1667	1	4	0	192	34	0	3	92
random	6	1	38	1453285	5	3	0	1	2	0	3	4	0	184	34	0	4	89
random	6	1	39	1456378	6	1	1	1	0	922	1	4	0	168	35	0	4	90
random	6	1	40	1457633	1	2	2	2	0	1797	2	4	0	176	36	0	4	90
random	6	1	41	1460032	2	3	3	1	0	1575	1	4	0	184	37	0	4	90
random	6	1	42	1462304	4	4	4	4	0	910	2	4	0	192	38	0	4	90
random	6	1	43	1464020	1	2	2	1	0	1422	1	4	0	176	39	0	4	91
random	6	1	44	1466105	6	3	3	1	0	1502	1	4	0	184	40	0	4	91
random	6	1	45	1468551	3	1	1	1	0	774	1	4	0	168	41	0	4	91
random	6	1	46	1470287	4	4	4	1	0	1413	1	4	0	192	42	0	4	91
random	6	1	47	1472344	2	2	2	1	0	1238	1	4	0	176	43	0	4	91
random	6	1	48	1474121	5	1	1	1	0	914	1	4	0	168	44	0	4	92
random	6	1	49	1476224	2	3	3	1	0	1641	1	4	0	184	45	0	4	92
random	6	1	50	1478718	3	1	1	2	0	1631	2	4	0	168	46	0	4	92
random	6	1	51	1481277	1	4	4	2	0	1059	2	4	0	192	47	0	4	92
random	6	1	52	1483078	5	3	3	1	0	351	1	4	0	184	48	0	4	92
random	6	1	53	1483986	3	2	2	1	0	1097	1	4	0	176	49	0	4	92
random	6	1	54	1485771	6	4	4	1	0	1365	1	4	0	192	50	0	4	93
random	6	1	55	1487982	4	2	2	1	0	1319	1	4	0	176	51	0	4	93
random	6	1	56	1489753	1	1	1	2	0	1028	2	4	0	168	52	0	4	93
random	6	1	57	1491263	5	4	4	1	0	1732	1	4	0	192	53	0	4	93
random	6	1	58	1493881	2	1	1	1	0	2253	1	4	0	168	54	0	4	93
random	6	1	59	1496609	6	2	2	1	0	1354	1	4	0	176	55	0	4	93
random	6	1	60	1498793	4	3	3	1	0	1173	1	4	0	184	56	0	4	93
random	6	1	61	1500751	1	2	2	1	0	970	1	4	0	176	57	0	4	93
random	6	1	62	1502744	6	4	4	1	0	966	1	4	0	192	58	0	4	94
random	6	1	63	1504506	4	1	1	1	0	1980	1	4	0	168	59	0	4	94
random	6	1	64	1507377	2	2	2	2	0	1130	2	4	0	176	60	0	4	94
random	6	1	65	1509363	4	3	3	2	0	430	2	4	0	184	61	0	4	94
random	6	1	66	1510601	3	1	1	2	0	1537	2	4	0	168	62	0	4	94
random	6	1	67	1512529	1	3	3	1	0	1463	1	4	0	184	63	0	4	94
random	6	1	68	1514545	5	4	4	2	0	890	2	4	0	192	64	0	4	94
random	6	1	69	1515753	2	2	2	2	0	2391	2	4	0	176	65	0	4	94
random	6	1	70	1518664	3	1	1	1	0	1027	1	4	0	168	66	0	4	94
random	6	1	71	1520441	5	4	4	2	0	1592	2	4	0	192	67	0	4	94
random	6	1	72	1523015	6	3	3	1	0	1491	1	4	0	184	68	0	4	94
random	6	1	73	1525779	2	1	1	4	0	1630	2	4	0	168	69	0	4	95
random	6	1	74	1527808	5	3	3	1	0	1464	1	4	0	184	70	0	4	95
random	6	1	75	1530027	1	4	4	1	0	1162	1	4	0	192	71	0	4	95
random	6	1	76	1531697	6	2	0	2	2	0	3	4	0	176	71	0	5	93
random	6	1	77	1535106	2	1	1	1	0	995	1	4	0	168	72	0	5	94
random	6	1	78	1536705	4	4	4	2	0	1191	2	4	0	192	73	0	5	94
random	6	1	79	1538314	3	2	2	1	0	1235	1	4	0	176	74	0	5	94
random	6	1	80	1540422	4	3	3	1	0	1314	1	4	0	184	75	0	5	94
random	6	1	81	1542532	1	4	4	1	0	1305	1	4	0	192	76	0	5	94
random	6	1	82	1544215	5	1	1	1	0	1361	1	4	0	168	77	0	5	94
random	6	1	83	1546515	3	2	0	2	2	0	3	4	0	176	77	0	6	93
random	6	1	84	1549509	6	3	3	1	0	201	1	4	0	184	78	0	6	93
random	6	1	85	1550339	3	2	0	4	2	0	3	4	0	176	78	0	7	92
random	6	1	86	1553489	1	3	3	1	0	1001	1	4	0	184	79	0	7	92
random	6	1	87	1554822	4	4	4	1	0	1456	1	4	0	192	80	0	7	92
random	6	1	88	1556829	2	1	1	1	0	987	1	4	0	168	81	0	7	92
random	6	1	89	1558122	6	4	4	1	0	1436	1	4	0	192	82	0	7	92
random	6	1	90	1560035	3	3	3	1	0	1915	1	4	0	184	83	0	7	92
random	6	1	91	1562387	5	4	4	2	0	2296	2	4	0	192	84	0	7	92
random	6	1	92	1565520	1	2	0	2	2	0	3	4	0	176	84	0	8	91
random	6	1	93	1568978	5	1	1	1	0	961	1	4	0	168	85	0	8	91
random	6	1	94	1570558	4	3	3	1	0	221	1	4	0	184	86	0	8	91
random	6	1	95	1571722	6	1	1	1	0	1548	1	4	0	168	87	0	8	92
random	6	1	96	1573669	2	2	2	1	0	1378	1	4	0	176	88	0	8	92
random	6	1	97	1575952	4	3	3	1	0	1641	1	4	0	184	89	0	8	92
random	6	1	98	1578575	3	2	2	2	0	1386	2	4	0	176	90	0	8	92
random	6	1	99	1580343	6	3	3	1	0	1455	1	4	0	184	91	0	8	92
random	6	1	100	1582167	1	4	4	2	0	762	2	4	0	192	92	0	8	92
random	6	1	101	1583523	4	1	1	1	0	1528	1	4	0	168	93	0	8	92
random	6	1	102	1585792	5	2	2	1	0	1976	1	4	0	176	94	0	8	92
random	6	1	103	1588258	2	4	4	1	0	1280	1	4	0	192	95	0	8	92
random	6	1	104	1590286	3	1	0	2	2	0	3	4	0	168	95	0	9	91
random	6	1	105	1593224	1	3	0	0	2	0	3	4	0	184	95	0	10	90
random	6	1	106	1596027	2	2	2	2	0	1279	2	4	0	176	96	0	10	91
random	6	1	107	1597695	5	4	4	1	0	952	1	4	0	192	97	0	10	91
random	6	1	108	1599047	6	1	1	1	0	1135	1	4	0	168	98	0	10	91
random	6	1	109	1600946	5	4	4	1	0	1246	1	4	0	192	99	0	10	91
random	6	1	110	1603211	6	3	3	1	0	1383	1	4	0	184	100	0	10	91
random	6	1	111	1605340	2	2	2	2	0	1020	2	4	0	176	101	0	10	91
random	6	1	112	1607170	3	1	1	1	0	1751	1	4	0	168	102	0	10	91
random	6	1	113	1609822	1	2	0	2	2	0	3	4	0	176	102	0	11	90
random	6	1	114	1613120	2	3	3	1	0	387	1	4	0	184	103	0	11	90
random	6	1	115	1614400	3	1	1	2	0	1461	2	4	0	168	104	0	11	90
random	6	1	116	1616897	4	4	4	2	0	1835	2	4	0	192	105	0	11	91
random	6	1	117	1619294	6	1	1	2	0	973	2	4	0	168	106	0	11	91
random	6	1	118	1620939	5	3	3	1	0	1016	1	4	0	184	107	0	11	91
random	6	1	119	1622487	1	4	4	3	0	1278	2	4	0	192	108	0	11	91
random	6	1	120	1624284	4	2	2	2	0	1538	2	4	0	176	109	0	11	91
fixed	7	1	1	1626908	4	1	1	2	0	1227	2	4	0	200	1	0	0	100
fixed	7	1	2	1628716	1	2	2	2	0	1086	2	4	0	208	2	0	0	100
fixed	7	1	3	1630410	6	4	4	2	0	2223	2	4	0	224	3	0	0	100
fixed	7	1	4	1633003	2	1	1	1	0	977	1	4	0	200	4	0	0	100
fixed	7	1	5	1634585	5	3	3	1	0	110	1	4	0	216	5	0	0	100
fixed	7	1	6	1635594	6	4	4	2	0	1003	2	4	0	224	6	0	0	100
fixed	7	1	7	1637250	3	1	1	1	0	1269	1	4	0	200	7	0	0	100
fixed	7	1	8	1638908	2	3	3	1	0	254	1	4	0	216	8	0	0	100
fixed	7	1	9	1639663	3	2	2	3	0	1703	2	4	0	208	9	0	0	100
fixed	7	1	10	1642054	1	4	4	1	0	1161	1	4	0	224	10	0	0	100
fixed	7	1	11	1643794	5	2	2	1	0	1128	1	4	0	208	11	0	0	100
fixed	7	1	12	1645777	4	3	3	1	0	300	1	4	0	216	12	0	0	100
fixed	7	2	1	1646776	4	1	1	1	0	1113	1	4	0	200	1	0	0	8
fixed	7	2	2	1648372	1	2	0	1	2	0	3	4	0	208	1	0	1	7
fixed	7	2	3	1651821	6	4	4	1	0	1235	1	4	0	224	2	0	1	13
fixed	7	2	4	1654023	2	1	1	1	0	1359	1	4	0	200	3	0	1	19
fixed	7	2	5	1656025	5	3	3	1	0	594	1	4	0	216	4	0	1	24
fixed	7	2	6	1657133	6	4	4	2	0	1314	2	4	0	224	5	0	1	28
fixed	7	2	7	1659051	3	1	1	2	0	1146	2	4	0	200	6	0	1	32
fixed	7	2	8	1660650	2	3	3	1	0	190	1	4	0	216	7	0	1	35
fixed	7	2	9	1661419	3	2	2	1	0	1309	1	4	0	208	8	0	1	38
fixed	7	2	10	1663172	1	4	0	1	2	0	3	4	0	224	8	0	2	36
fixed	7	2	11	1666686	5	2	2	1	0	2222	1	4	0	208	9	0	2	39
fixed	7	2	12	1669560	4	3	3	1	0	1069	1	4	0	216	10	0	2	42
fixed	7	3	1	1671503	4	1	1	2	0	810	2	4	0	200	1	0	0	4
fixed	7	3	2	1673160	1	2	2	1	0	1828	1	4	0	208	2	0	0	8
fixed	7	3	3	1675743	6	4	4	1	0	919	1	4	0	224	3	0	0	11
fixed	7	3	4	1677222	2	1	1	3	0	2136	2	4	0	200	4	0	0	14
fixed	7	3	5	1679683	5	3	3	2	0	2264	2	4	0	216	5	0	0	17
fixed	7	3	6	1682410	6	4	4	1	0	1172	1	4	0	224	6	0	0	20
fixed	7	3	7	1684382	3	1	1	2	0	1432	2	4	0	200	7	0	0	23
fixed	7	3	8	1686176	2	3	3	1	0	1460	1	4	0	216	8	0	0	25
fixed	7	3	9	1688140	3	2	2	2	0	922	2	4	0	208	9	0	0	27
fixed	7	3	10	1689899	1	4	4	3	0	2367	2	4	0	224	10	0	0	29
fixed	7	3	11	1692848	5	2	2	1	0	1434	1	4	0	208	11	0	0	31
fixed	7	3	12	1694671	4	3	3	1	0	1797	1	4	0	216	12	0	0	33
fixed	7	4	1	1697216	4	1	1	3	0	1593	2	4	0	200	1	0	0	3
fixed	7	4	2	1699116	1	2	2	2	0	2313	2	4	0	208	2	0	0	5
fixed	7	4	3	1702045	6	4	4	1	0	2148	1	4	0	224	3	0	0	8
fixed	7	4	4	1704929	2	1	1	1	0	1218	1	4	0	200	4	0	0	10
fixed	7	4	5	1707024	5	3	3	1	0	2177	1	4	0	216	5	0	0	12
fixed	7	4	6	1709662	6	4	4	3	0	1378	2	4	0	224	6	0	0	14
fixed	7	4	7	1712030	3	1	0	0	2	0	3	4	0	200	6	0	1	14
fixed	7	4	8	1715078	2	3	0	0	2	0	3	4	0	216	6	0	2	14
fixed	7	4	9	1718394	3	2	2	1	0	2064	1	4	0	208	7	0	2	16
fixed	7	4	10	1721490	1	4	4	1	0	860	1	4	0	224	8	0	2	17
fixed	7	4	11	1723348	5	2	0	1	2	0	3	4	0	208	8	0	3	17
fixed	7	4	12	1726656	4	3	0	1	2	0	3	4	0	216	8	0	4	17
fixed	7	5	1	1730113	4	1	1	3	0	2087	2	4	0	200	1	0	0	2
fixed	7	5	2	1732766	1	2	0	2	2	0	3	4	0	208	1	0	1	2
fixed	7	5	3	1736173	6	4	4	1	0	855	1	4	0	224	2	0	1	4
fixed	7	5	4	1737503	2	1	1	1	0	1783	1	4	0	200	3	0	1	6
fixed	7	5	5	1740290	5	3	3	1	0	1432	1	4	0	216	4	0	1	8
fixed	7	5	6	1742349	6	4	4	1	0	889	1	4	0	224	5	0	1	9
fixed	7	5	7	1743846	3	1	1	1	0	906	1	4	0	200	6	0	1	11
fixed	7	5	8	1745638	2	3	3	1	0	1062	1	4	0	216	7	0	1	13
fixed	7	5	9	1747646	3	2	0	1	2	0	3	4	0	208	7	0	2	12
fixed	7	5	10	1751165	1	4	4	1	0	948	1	4	0	224	8	0	2	14
fixed	7	5	11	1752538	5	2	0	1	2	0	3	4	0	208	8	0	3	14
fixed	7	5	12	1755901	4	3	3	1	0	1379	1	4	0	216	9	0	3	15
fixed	7	6	1	1757932	4	1	1	1	0	1173	1	4	0	200	1	0	0	2
fixed	7	6	2	1760084	1	2	2	2	0	1274	2	4	0	208	2	0	0	3
fixed	7	6	3	1761762	6	4	4	1	0	955	1	4	0	224	3	0	0	5
fixed	7	6	4	1763678	2	1	1	1	0	1986	1	4	0	200	4	0	0	6
fixed	7	6	5	1766542	5	3	3	1	0	1505	1	4	0	216	5	0	0	8
fixed	7	6	6	1768926	6	4	4	1	0	987	1	4	0	224	6	0	0	9
fixed	7	6	7	1770928	3	1	1	2	0	927	2	4	0	200	7	0	0	10
fixed	7	6	8	1772310	2	3	3	1	0	1261	1	4	0	216	8	0	0	12
fixed	7	6	9	1773879	3	2	2	1	0	1394	1	4	0	208	9	0	0	13
fixed	7	6	10	1775915	1	4	4	1	0	1700	1	4	0	224	10	0	0	14
fixed	7	6	11	1778415	5	2	2	2	0	2114	2	4	0	208	11	0	0	15
fixed	7	6	12	1781282	4	3	3	1	0	1112	1	4	0	216	12	0	0	17
fixed	7	7	1	1783428	4	1	1	1	0	1077	1	4	0	200	1	0	0	1
fixed	7	7	2	1785241	1	2	0	2	2	0	3	4	0	208	1	0	1	1
fixed	7	7	3	1788067	6	4	4	1	0	929	1	4	0	224	2	0	1	3
fixed	7	7	4	1789897	2	1	1	2	0	1747	2	4	0	200	3	0	1	4
fixed	7	7	5	1792147	5	3	3	1	0	1596	1	4	0	216	4	0	1	5
fixed	7	7	6	1794148	6	4	4	2	0	1624	2	4	0	224	5	0	1	6
fixed	7	7	7	1796756	3	1	1	1	0	1193	1	4	0	200	6	0	1	8
fixed	7	7	8	1798527	2	3	3	1	0	750	1	4	0	216	7	0	1	9
fixed	7	7	9	1799901	3	2	2	1	0	1419	1	4	0	208	8	0	1	10
fixed	7	7	10	1802320	1	4	4	2	0	1398	2	4	0	224	9	0	1	11
fixed	7	7	11	1804065	5	2	0	1	2	0	3	4	0	208	9	0	2	11
fixed	7	7	12	1807405	4	3	3	1	0	670	1	4	0	216	10	0	2	12
fixed	7	8	1	1809241	4	1	1	2	0	1120	2	4	0	200	1	0	0	1
fixed	7	8	2	1811301	1	2	2	2	0	1401	2	4	0	208	2	0	0	2
fixed	7	8	3	1813618	6	4	4	1	0	1934	1	4	0	224	3	0	0	3
fixed	7	8	4	1816139	2	1	1	1	0	1268	1	4	0	200	4	0	0	5
fixed	7	8	5	1818425	5	3	3	1	0	347	1	4	0	216	5	0	0	6
fixed	7	8	6	1819076	6	4	0	1	2	0	3	4	0	224	5	0	1	6
fixed	7	8	7	1822442	3	1	1	1	0	1273	1	4	0	200	6	0	1	7
fixed	7	8	8	1824459	2	3	3	1	0	435	1	4	0	216	7	0	1	8
fixed	7	8	9	1825680	3	2	2	2	0	1200	2	4	0	208	8	0	1	9
fixed	7	8	10	1827565	1	4	4	1	0	1008	1	4	0	224	9	0	1	10
fixed	7	8	11	1829052	5	2	2	1	0	1113	1	4	0	208	10	0	1	11
fixed	7	8	12	1830870	4	3	3	1	0	1484	1	4	0	216	11	0	1	11
fixed	7	9	1	1833300	4	1	1	1	0	1237	1	4	0	200	1	0	0	1
fixed	7	9	2	1834874	1	2	2	3	0	1914	2	4	0	208	2	0	0	2
fixed	7	9	3	1837363	6	4	0	3	2	0	3	4	0	224	2	0	1	2
fixed	7	9	4	1840627	2	1	1	1	0	911	1	4	0	200	3	0	1	3
fixed	7	9	5	1841913	5	3	3	1	0	752	1	4	0	216	4	0	1	4
fixed	7	9	6	1843280	6	4	4	2	0	1174	2	4	0	224	5	0	1	5
fixed	7	9	7	1845245	3	1	1	1	0	1011	1	4	0	200	6	0	1	6
fixed	7	9	8	1847210	2	3	3	1	0	448	1	4	0	216	7	0	1	7
fixed	7	9	9	1848544	3	2	2	1	0	983	1	4	0	208	8	0	1	8
fixed	7	9	10	1850239	1	4	4	1	0	967	1	4	0	224	9	0	1	8
fixed	7	9	11	1851954	5	2	2	1	0	967	1	4	0	208	10	0	1	9
fixed	7	9	12	1853691	4	3	3	1	0	590	1	4	0	216	11	0	1	10
fixed	7	10	1	1855003	4	1	1	1	0	1006	1	4	0	200	1	0	0	1
fixed	7	10	2	1856956	1	2	0	2	2	0	3	4	0	208	1	0	1	1
fixed	7	10	3	1860393	6	4	0	0	2	0	3	4	0	224	1	0	2	1
fixed	7	10	4	1863779	2	1	0	1	2	0	3	4	0	200	1	0	3	1
fixed	7	10	5	1866773	5	3	0	0	2	0	3	4	0	216	1	0	4	1
fixed	7	10	6	1869617	6	4	0	0	2	0	3	4	0	224	1	0	5	1
fixed	7	10	7	1872508	3	1	0	0	2	0	3	4	0	200	1	0	6	1
fixed	7	10	8	1875504	2	3	0	0	2	0	3	4	0	216	1	0	7	1
fixed	7	10	9	1878891	3	2	0	0	2	0	3	4	0	208	1	0	8	1
fixed	7	10	10	1881782	1	4	4	2	0	1072	2	4	0	224	2	0	8	2
fixed	7	10	11	1883489	5	2	0	1	2	0	3	4	0	208	2	0	9	2
fixed	7	10	12	1886791	4	3	3	2	0	1124	2	4	0	216	3	0	9	3
