type	block	sequ.	trial	time	Pos.	Color	Button	NumRsp	Resp_1	RT_1	R_Code	Resp_2	RT_2	Trigg.	n_hit	n_inc	n_miss	score_%

random	1	1	1	1607	6	1	1	1	0	863	1	4	0	8	1	0	0	100
random	1	1	2	3455	4	4	4	1	0	753	1	4	0	32	2	0	0	100
random	1	1	3	5235	2	2	2	1	0	1053	1	4	0	16	3	0	0	100
random	1	1	4	7012	3	3	3	1	0	714	1	4	0	24	4	0	0	100
random	1	1	5	8032	5	2	2	1	0	1207	1	4	0	16	5	0	0	100
random	1	1	6	9846	1	4	4	1	0	618	1	4	0	32	6	0	0	100
random	1	1	7	11028	6	1	1	1	0	848	1	4	0	8	7	0	0	100
random	1	1	8	12507	2	3	3	1	0	1169	1	4	0	24	8	0	0	100
random	1	1	9	14247	4	2	2	1	0	968	1	4	0	16	9	0	0	100
random	1	1	10	15920	1	1	1	1	0	745	1	4	0	8	10	0	0	100
random	1	1	11	17610	5	4	4	1	0	753	1	4	0	32	11	0	0	100
random	1	1	12	18816	3	3	3	1	0	1086	1	4	0	24	12	0	0	100
random	1	1	13	21123	5	2	2	1	0	756	1	4	0	16	13	0	0	100
random	1	1	14	22283	1	4	4	1	0	667	1	4	0	32	14	0	0	100
random	1	1	15	23746	3	1	1	1	0	805	1	4	0	8	15	0	0	100
random	1	1	16	25074	4	3	3	1	0	893	1	4	0	24	16	0	0	100
random	1	1	17	26483	6	4	4	1	0	674	1	4	0	32	17	0	0	100
random	1	1	18	27587	2	1	1	1	0	755	1	4	0	8	18	0	0	100
random	1	1	19	28672	5	3	3	1	0	893	1	4	0	24	19	0	0	100
random	1	1	20	29960	2	2	2	1	0	662	1	4	0	16	20	0	0	100
random	1	1	21	30999	3	3	3	1	0	1346	1	4	0	24	21	0	0	100
random	1	1	22	32816	6	1	1	1	0	893	1	4	0	8	22	0	0	100
random	1	1	23	34093	4	2	2	1	0	839	1	4	0	16	23	0	0	100
random	1	1	24	35646	1	4	4	1	0	669	1	4	0	32	24	0	0	100
random	1	1	25	37130	4	3	3	1	0	950	1	4	0	24	25	0	0	100
random	1	1	26	39073	2	1	1	1	0	1060	1	4	0	8	26	0	0	100
random	1	1	27	40570	5	2	2	1	0	828	1	4	0	16	27	0	0	100
random	1	1	28	42040	6	4	4	1	0	502	1	4	0	32	28	0	0	100
random	1	1	29	43170	1	3	3	1	0	815	1	4	0	24	29	0	0	100
random	1	1	30	44482	5	2	2	1	0	1183	1	4	0	16	30	0	0	100
random	1	1	31	46255	2	1	1	1	0	660	1	4	0	8	31	0	0	100
random	1	1	32	47667	3	3	3	1	0	1144	1	4	0	24	32	0	0	100
random	1	1	33	49765	6	4	4	1	0	623	1	4	0	32	33	0	0	100
random	1	1	34	50915	4	2	2	1	0	790	1	4	0	16	34	0	0	100
random	1	1	35	52179	3	4	4	1	0	817	1	4	0	32	35	0	0	100
random	1	1	36	53842	1	1	1	1	0	714	1	4	0	8	36	0	0	100
random	1	1	37	55742	3	4	4	1	0	1098	1	4	0	32	37	0	0	100
random	1	1	38	57574	5	3	3	1	0	1013	1	4	0	24	38	0	0	100
random	1	1	39	58917	6	1	1	1	0	963	1	4	0	8	39	0	0	100
random	1	1	40	60254	1	2	2	1	0	755	1	4	0	16	40	0	0	100
random	1	1	41	62030	2	3	3	1	0	992	1	4	0	24	41	0	0	100
random	1	1	42	63475	4	4	4	1	0	915	1	4	0	32	42	0	0	100
random	1	1	43	64843	1	2	2	1	0	961	1	4	0	16	43	0	0	100
random	1	1	44	66445	6	3	3	1	0	1261	1	4	0	24	44	0	0	100
random	1	1	45	67995	3	1	1	1	0	1067	1	4	0	8	45	0	0	100
random	1	1	46	70050	4	4	4	1	0	660	1	4	0	32	46	0	0	100
random	1	1	47	71357	2	2	2	1	0	877	1	4	0	16	47	0	0	100
random	1	1	48	72736	5	1	1	1	0	778	1	4	0	8	48	0	0	100
random	1	1	49	74188	2	3	3	1	0	1340	1	4	0	24	49	0	0	100
random	1	1	50	76377	3	1	1	1	0	1328	1	4	0	8	50	0	0	100
random	1	1	51	78161	1	4	4	1	0	677	1	4	0	32	51	0	0	100
random	1	1	52	79127	5	3	3	1	0	956	1	4	0	24	52	0	0	100
random	1	1	53	80403	3	2	2	1	0	797	1	4	0	16	53	0	0	100
random	1	1	54	82214	6	4	4	1	0	505	1	4	0	32	54	0	0	100
random	1	1	55	83492	4	2	2	1	0	1090	1	4	0	16	55	0	0	100
random	1	1	56	85142	1	1	1	1	0	621	1	4	0	8	56	0	0	100
random	1	1	57	86145	5	4	4	1	0	706	1	4	0	32	57	0	0	100
random	1	1	58	87156	2	1	1	1	0	871	1	4	0	8	58	0	0	100
random	1	1	59	89031	6	2	0	1	2	0	3	4	0	16	58	0	1	98
random	1	1	60	92432	4	3	3	1	0	920	1	4	0	24	59	0	1	98
random	1	1	61	94654	1	2	2	1	0	938	1	4	0	16	60	0	1	98
random	1	1	62	96354	6	4	4	1	0	730	1	4	0	32	61	0	1	98
random	1	1	63	97750	4	1	1	1	0	623	1	4	0	8	62	0	1	98
random	1	1	64	98708	2	2	2	1	0	886	1	4	0	16	63	0	1	98
random	1	1	65	99916	4	3	3	1	0	819	1	4	0	24	64	0	1	98
random	1	1	66	101706	3	1	1	1	0	639	1	4	0	8	65	0	1	98
random	1	1	67	103194	1	3	3	1	0	840	1	4	0	24	66	0	1	99
random	1	1	68	105031	5	4	4	1	0	658	1	4	0	32	67	0	1	99
random	1	1	69	106482	2	2	2	1	0	645	1	4	0	16	68	0	1	99
random	1	1	70	107860	3	1	1	1	0	802	1	4	0	8	69	0	1	99
random	1	1	71	109176	5	4	4	1	0	595	1	4	0	32	70	0	1	99
random	1	1	72	110176	6	3	3	1	0	1056	1	4	0	24	71	0	1	99
random	1	1	73	112248	2	1	1	1	0	728	1	4	0	8	72	0	1	99
random	1	1	74	113840	5	3	3	1	0	837	1	4	0	24	73	0	1	99
random	1	1	75	115623	1	4	4	1	0	609	1	4	0	32	74	0	1	99
random	1	1	76	117058	6	2	2	1	0	1101	1	4	0	16	75	0	1	99
random	1	1	77	119165	2	1	1	1	0	835	1	4	0	8	76	0	1	99
random	1	1	78	120751	4	4	4	1	0	656	1	4	0	32	77	0	1	99
random	1	1	79	122235	3	2	2	1	0	730	1	4	0	16	78	0	1	99
random	1	1	80	123285	4	3	3	1	0	933	1	4	0	24	79	0	1	99
random	1	1	81	125043	1	4	4	1	0	930	1	4	0	32	80	0	1	99
random	1	1	82	126742	5	1	1	1	0	491	1	4	0	8	81	0	1	99
random	1	1	83	127893	3	2	2	1	0	922	1	4	0	16	82	0	1	99
random	1	1	84	129814	6	3	3	1	0	801	1	4	0	24	83	0	1	99
random	1	1	85	131528	3	2	2	1	0	720	1	4	0	16	84	0	1	99
random	1	1	86	132714	1	3	3	1	0	717	1	4	0	24	85	0	1	99
random	1	1	87	133730	4	4	4	1	0	667	1	4	0	32	86	0	1	99
random	1	1	88	134722	2	1	1	1	0	569	1	4	0	8	87	0	1	99
random	1	1	89	136148	6	4	4	1	0	996	1	4	0	32	88	0	1	99
random	1	1	90	137699	3	3	3	2	0	835	2	4	0	24	89	0	1	99
random	1	1	91	139449	5	4	4	1	0	824	1	4	0	32	90	0	1	99
random	1	1	92	141278	1	2	2	1	0	1827	1	4	0	16	91	0	1	99
random	1	1	93	143896	5	1	1	1	0	1068	1	4	0	8	92	0	1	99
random	1	1	94	145313	4	3	3	1	0	816	1	4	0	24	93	0	1	99
random	1	1	95	146866	6	1	1	1	0	1062	1	4	0	8	94	0	1	99
random	1	1	96	148374	2	2	2	1	0	1006	1	4	0	16	95	0	1	99
random	1	1	97	150207	4	3	3	1	0	1025	1	4	0	24	96	0	1	99
random	1	1	98	151643	3	2	2	1	0	804	1	4	0	16	97	0	1	99
random	1	1	99	152885	6	3	3	1	0	791	1	4	0	24	98	0	1	99
random	1	1	100	154127	1	4	4	1	0	619	1	4	0	32	99	0	1	99
random	1	1	101	155106	4	1	1	1	0	753	1	4	0	8	100	0	1	99
random	1	1	102	156569	5	2	2	1	0	996	1	4	0	16	101	0	1	99
random	1	1	103	157875	2	4	4	1	0	556	1	4	0	32	102	0	1	99
random	1	1	104	158755	3	1	1	1	0	919	1	4	0	8	103	0	1	99
random	1	1	105	160566	1	3	3	1	0	826	1	4	0	24	104	0	1	99
random	1	1	106	162016	2	2	2	1	0	677	1	4	0	16	105	0	1	99
random	1	1	107	163125	5	4	4	1	0	654	1	4	0	32	106	0	1	99
random	1	1	108	164546	6	1	1	1	0	841	1	4	0	8	107	0	1	99
random	1	1	109	166548	5	4	4	1	0	677	1	4	0	32	108	0	1	99
random	1	1	110	167819	6	3	3	1	0	895	1	4	0	24	109	0	1	99
random	1	1	111	169390	2	2	2	1	0	620	1	4	0	16	110	0	1	99
random	1	1	112	170310	3	1	1	1	0	781	1	4	0	8	111	0	1	99
random	1	1	113	171998	1	2	2	1	0	1190	1	4	0	16	112	0	1	99
random	1	1	114	174024	2	3	3	1	0	776	1	4	0	24	113	0	1	99
random	1	1	115	175827	3	1	1	1	0	684	1	4	0	8	114	0	1	99
random	1	1	116	176988	4	4	4	1	0	626	1	4	0	32	115	0	1	99
random	1	1	117	178415	6	1	1	1	0	750	1	4	0	8	116	0	1	99
random	1	1	118	179570	5	3	3	1	0	757	1	4	0	24	117	0	1	99
random	1	1	119	180833	1	4	4	1	0	584	1	4	0	32	118	0	1	99
random	1	1	120	182030	4	2	2	1	0	749	1	4	0	16	119	0	1	99
fixed	2	1	1	184255	4	1	1	1	0	710	1	4	0	40	1	0	0	100
fixed	2	1	2	185962	1	2	2	1	0	1166	1	4	0	48	2	0	0	100
fixed	2	1	3	187913	6	4	4	1	0	644	1	4	0	64	3	0	0	100
fixed	2	1	4	189324	2	1	1	1	0	768	1	4	0	40	4	0	0	100
fixed	2	1	5	190728	5	3	3	1	0	532	1	4	0	56	5	0	0	100
fixed	2	1	6	191759	6	4	4	1	0	601	1	4	0	64	6	0	0	100
fixed	2	1	7	192890	3	1	1	1	0	689	1	4	0	40	7	0	0	100
fixed	2	1	8	193925	2	3	3	1	0	757	1	4	0	56	8	0	0	100
fixed	2	1	9	195060	3	2	2	1	0	637	1	4	0	48	9	0	0	100
fixed	2	1	10	196242	1	4	4	1	0	515	1	4	0	64	10	0	0	100
fixed	2	1	11	197459	5	2	2	1	0	1087	1	4	0	48	11	0	0	100
fixed	2	1	12	198973	4	3	3	1	0	728	1	4	0	56	12	0	0	100
fixed	2	2	1	200731	4	1	1	1	0	597	1	4	0	40	13	0	0	100
fixed	2	2	2	201909	1	2	2	1	0	1187	1	4	0	48	14	0	0	100
fixed	2	2	3	203468	6	4	4	1	0	649	1	4	0	64	15	0	0	100
fixed	2	2	4	204753	2	1	1	1	0	723	1	4	0	40	16	0	0	100
fixed	2	2	5	206189	5	3	3	1	0	462	1	4	0	56	17	0	0	100
fixed	2	2	6	207630	6	4	4	1	0	640	1	4	0	64	18	0	0	100
fixed	2	2	7	209244	3	1	1	1	0	532	1	4	0	40	19	0	0	100
fixed	2	2	8	210562	2	3	3	1	0	828	1	4	0	56	20	0	0	100
fixed	2	2	9	212225	3	2	2	1	0	574	1	4	0	48	21	0	0	100
fixed	2	2	10	213183	1	4	4	1	0	789	1	4	0	64	22	0	0	100
fixed	2	2	11	214593	5	2	2	1	0	1130	1	4	0	48	23	0	0	100
fixed	2	2	12	216403	4	3	3	1	0	581	1	4	0	56	24	0	0	100
fixed	2	3	1	218091	4	1	1	1	0	613	1	4	0	40	25	0	0	100
fixed	2	3	2	219315	1	2	2	1	0	1082	1	4	0	48	26	0	0	100
fixed	2	3	3	220834	6	4	4	1	0	561	1	4	0	64	27	0	0	100
fixed	2	3	4	221768	2	1	1	1	0	738	1	4	0	40	28	0	0	100
fixed	2	3	5	223135	5	3	3	1	0	864	1	4	0	56	29	0	0	100
fixed	2	3	6	224653	6	4	4	1	0	568	1	4	0	64	30	0	0	100
fixed	2	3	7	225767	3	1	1	1	0	665	1	4	0	40	31	0	0	100
fixed	2	3	8	227439	2	3	3	1	0	866	1	4	0	56	32	0	0	100
fixed	2	3	9	228693	3	2	2	1	0	669	1	4	0	48	33	0	0	100
fixed	2	3	10	230009	1	4	4	1	0	613	1	4	0	64	34	0	0	100
fixed	2	3	11	231302	5	2	2	1	0	886	1	4	0	48	35	0	0	100
fixed	2	3	12	232797	4	3	3	1	0	647	1	4	0	56	36	0	0	100
fixed	2	4	1	234481	4	1	1	1	0	583	1	4	0	40	37	0	0	100
fixed	2	4	2	235727	1	2	2	1	0	1067	1	4	0	48	38	0	0	100
fixed	2	4	3	237292	6	4	4	1	0	552	1	4	0	64	39	0	0	100
fixed	2	4	4	238560	2	1	1	1	0	723	1	4	0	40	40	0	0	100
fixed	2	4	5	239989	5	3	3	1	0	446	1	4	0	56	41	0	0	100
fixed	2	4	6	241064	6	4	4	1	0	616	1	4	0	64	42	0	0	100
fixed	2	4	7	242101	3	1	1	1	0	645	1	4	0	40	43	0	0	100
fixed	2	4	8	243732	2	3	3	1	0	720	1	4	0	56	44	0	0	100
fixed	2	4	9	244870	3	2	2	1	0	543	1	4	0	48	45	0	0	100
fixed	2	4	10	245880	1	4	4	1	0	540	1	4	0	64	46	0	0	100
fixed	2	4	11	247192	5	2	2	1	0	781	1	4	0	48	47	0	0	100
fixed	2	4	12	248650	4	3	3	1	0	1087	1	4	0	56	48	0	0	100
fixed	2	5	1	250921	4	1	1	1	0	623	1	4	0	40	49	0	0	100
fixed	2	5	2	252229	1	2	2	1	0	1168	1	4	0	48	50	0	0	100
fixed	2	5	3	254045	6	4	4	1	0	866	1	4	0	64	51	0	0	100
fixed	2	5	4	255796	2	1	1	1	0	657	1	4	0	40	52	0	0	100
fixed	2	5	5	256915	5	3	3	1	0	826	1	4	0	56	53	0	0	100
fixed	2	5	6	258765	6	4	4	1	0	731	1	4	0	64	54	0	0	100
fixed	2	5	7	260095	3	1	1	1	0	626	1	4	0	40	55	0	0	100
fixed	2	5	8	261323	2	3	3	1	0	831	1	4	0	56	56	0	0	100
fixed	2	5	9	263105	3	2	2	1	0	643	1	4	0	48	57	0	0	100
fixed	2	5	10	264371	1	4	4	1	0	629	1	4	0	64	58	0	0	100
fixed	2	5	11	265394	5	2	2	1	0	882	1	4	0	48	59	0	0	100
fixed	2	5	12	267065	4	3	3	1	0	819	1	4	0	56	60	0	0	100
fixed	2	6	1	268999	4	1	1	1	0	585	1	4	0	40	61	0	0	100
fixed	2	6	2	270472	1	2	2	1	0	763	1	4	0	48	62	0	0	100
fixed	2	6	3	271915	6	4	4	1	0	582	1	4	0	64	63	0	0	100
fixed	2	6	4	272922	2	1	1	1	0	747	1	4	0	40	64	0	0	100
fixed	2	6	5	274279	5	3	3	1	0	497	1	4	0	56	65	0	0	100
fixed	2	6	6	275800	6	4	4	1	0	737	1	4	0	64	66	0	0	100
fixed	2	6	7	277281	3	1	1	1	0	483	1	4	0	40	67	0	0	100
fixed	2	6	8	278362	2	3	3	1	0	957	1	4	0	56	68	0	0	100
fixed	2	6	9	279929	3	2	2	1	0	570	1	4	0	48	69	0	0	100
fixed	2	6	10	280895	1	4	4	1	0	561	1	4	0	64	70	0	0	100
fixed	2	6	11	282285	5	2	2	1	0	838	1	4	0	48	71	0	0	100
fixed	2	6	12	283529	4	3	3	1	0	730	1	4	0	56	72	0	0	100
fixed	2	7	1	285155	4	1	1	1	0	541	1	4	0	40	73	0	0	100
fixed	2	7	2	286108	1	2	2	1	0	708	1	4	0	48	74	0	0	100
fixed	2	7	3	287402	6	4	4	1	0	558	1	4	0	64	75	0	0	100
fixed	2	7	4	288701	2	1	1	1	0	623	1	4	0	40	76	0	0	100
fixed	2	7	5	290081	5	3	3	1	0	788	1	4	0	56	77	0	0	100
fixed	2	7	6	291353	6	4	4	1	0	710	1	4	0	64	78	0	0	100
fixed	2	7	7	292377	3	1	1	1	0	699	1	4	0	40	79	0	0	100
fixed	2	7	8	293968	2	3	3	1	0	768	1	4	0	56	80	0	0	100
fixed	2	7	9	295471	3	2	2	1	0	840	1	4	0	48	81	0	0	100
fixed	2	7	10	296766	1	4	4	1	0	577	1	4	0	64	82	0	0	100
fixed	2	7	11	298342	5	2	2	1	0	719	1	4	0	48	83	0	0	100
fixed	2	7	12	299932	4	3	3	1	0	531	1	4	0	56	84	0	0	100
fixed	2	8	1	301312	4	1	1	1	0	504	1	4	0	40	85	0	0	100
fixed	2	8	2	302379	1	2	2	1	0	819	1	4	0	48	86	0	0	100
fixed	2	8	3	303779	6	4	4	1	0	568	1	4	0	64	87	0	0	100
fixed	2	8	4	304758	2	1	1	1	0	903	1	4	0	40	88	0	0	100
fixed	2	8	5	306320	5	3	3	1	0	637	1	4	0	56	89	0	0	100
fixed	2	8	6	307617	6	4	4	1	0	574	1	4	0	64	90	0	0	100
fixed	2	8	7	308778	3	1	1	1	0	548	1	4	0	40	91	0	0	100
fixed	2	8	8	310000	2	3	3	1	0	737	1	4	0	56	92	0	0	100
fixed	2	8	9	311287	3	2	2	1	0	674	1	4	0	48	93	0	0	100
fixed	2	8	10	312293	1	4	4	1	0	688	1	4	0	64	94	0	0	100
fixed	2	8	11	313443	5	2	2	1	0	735	1	4	0	48	95	0	0	100
fixed	2	8	12	314716	4	3	3	1	0	585	1	4	0	56	96	0	0	100
fixed	2	9	1	316332	4	1	1	1	0	484	1	4	0	40	97	0	0	100
fixed	2	9	2	317243	1	2	2	1	0	790	1	4	0	48	98	0	0	100
fixed	2	9	3	318818	6	4	4	1	0	428	1	4	0	64	99	0	0	100
fixed	2	9	4	319855	2	1	1	1	0	735	1	4	0	40	100	0	0	100
fixed	2	9	5	321107	5	3	3	1	0	818	1	4	0	56	101	0	0	100
fixed	2	9	6	322309	6	4	4	1	0	864	1	4	0	64	102	0	0	100
fixed	2	9	7	323507	3	1	1	1	0	629	1	4	0	40	103	0	0	100
fixed	2	9	8	325130	2	3	3	1	0	816	1	4	0	56	104	0	0	100
fixed	2	9	9	326535	3	2	2	1	0	541	1	4	0	48	105	0	0	100
fixed	2	9	10	327485	1	4	4	1	0	532	1	4	0	64	106	0	0	100
fixed	2	9	11	328332	5	2	2	1	0	1128	1	4	0	48	107	0	0	100
fixed	2	9	12	329804	4	3	3	1	0	602	1	4	0	56	108	0	0	100
fixed	2	10	1	331536	4	1	1	1	0	576	1	4	0	40	109	0	0	100
fixed	2	10	2	332502	1	2	2	1	0	824	1	4	0	48	110	0	0	100
fixed	2	10	3	334170	6	4	4	1	0	353	1	4	0	64	111	0	0	100
fixed	2	10	4	335148	2	1	1	1	0	504	1	4	0	40	112	0	0	100
fixed	2	10	5	336105	5	3	3	1	0	543	1	4	0	56	113	0	0	100
fixed	2	10	6	337628	6	4	4	1	0	631	1	4	0	64	114	0	0	100
fixed	2	10	7	338662	3	1	1	1	0	635	1	4	0	40	115	0	0	100
fixed	2	10	8	339923	2	3	3	1	0	789	1	4	0	56	116	0	0	100
fixed	2	10	9	341726	3	2	2	1	0	545	1	4	0	48	117	0	0	100
fixed	2	10	10	343044	1	4	4	1	0	498	1	4	0	64	118	0	0	100
fixed	2	10	11	344051	5	2	2	1	0	710	1	4	0	48	119	0	0	100
fixed	2	10	12	345453	4	3	3	1	0	539	1	4	0	56	120	0	0	100
fixed	3	1	1	346988	4	1	1	1	0	570	1	4	0	72	1	0	0	100
fixed	3	1	2	348444	1	2	2	1	0	748	1	4	0	80	2	0	0	100
fixed	3	1	3	350035	6	4	4	1	0	553	1	4	0	96	3	0	0	100
fixed	3	1	4	351544	2	1	1	1	0	657	1	4	0	72	4	0	0	100
fixed	3	1	5	353213	5	3	3	1	0	739	1	4	0	88	5	0	0	100
fixed	3	1	6	354957	6	4	4	1	0	600	1	4	0	96	6	0	0	100
fixed	3	1	7	356543	3	1	1	1	0	582	1	4	0	72	7	0	0	100
fixed	3	1	8	357825	2	3	3	1	0	727	1	4	0	88	8	0	0	100
fixed	3	1	9	358922	3	2	2	1	0	609	1	4	0	80	9	0	0	100
fixed	3	1	10	360029	1	4	4	1	0	578	1	4	0	96	10	0	0	100
fixed	3	1	11	360963	5	2	2	1	0	1034	1	4	0	80	11	0	0	100
fixed	3	1	12	362918	4	3	3	1	0	863	1	4	0	88	12	0	0	100
fixed	3	2	1	364567	4	1	1	1	0	665	1	4	0	72	13	0	0	100
fixed	3	2	2	365717	1	2	2	1	0	912	1	4	0	80	14	0	0	100
fixed	3	2	3	367605	6	4	4	1	0	545	1	4	0	96	15	0	0	100
fixed	3	2	4	368858	2	1	1	1	0	763	1	4	0	72	16	0	0	100
fixed	3	2	5	370616	5	3	3	1	0	393	1	4	0	88	17	0	0	100
fixed	3	2	6	371430	6	4	4	1	0	831	1	4	0	96	18	0	0	100
fixed	3	2	7	372577	3	1	1	1	0	662	1	4	0	72	19	0	0	100
fixed	3	2	8	373992	2	3	3	1	0	722	1	4	0	88	20	0	0	100
fixed	3	2	9	375464	3	2	2	1	0	588	1	4	0	80	21	0	0	100
fixed	3	2	10	376419	1	4	4	1	0	708	1	4	0	96	22	0	0	100
fixed	3	2	11	377915	5	2	2	1	0	700	1	4	0	80	23	0	0	100
fixed	3	2	12	379162	4	3	3	1	0	480	1	4	0	88	24	0	0	100
fixed	3	3	1	380623	4	1	1	1	0	465	1	4	0	72	25	0	0	100
fixed	3	3	2	381722	1	2	2	1	0	923	1	4	0	80	26	0	0	100
fixed	3	3	3	383368	6	4	4	1	0	397	1	4	0	96	27	0	0	100
fixed	3	3	4	384217	2	1	1	1	0	641	1	4	0	72	28	0	0	100
fixed	3	3	5	385721	5	3	3	1	0	465	1	4	0	88	29	0	0	100
fixed	3	3	6	386684	6	4	4	1	0	761	1	4	0	96	30	0	0	100
fixed	3	3	7	387982	3	1	1	1	0	538	1	4	0	72	31	0	0	100
fixed	3	3	8	389298	2	3	3	1	0	1018	1	4	0	88	32	0	0	100
fixed	3	3	9	390830	3	2	2	1	0	633	1	4	0	80	33	0	0	100
fixed	3	3	10	391796	1	4	4	1	0	633	1	4	0	96	34	0	0	100
fixed	3	3	11	393187	5	2	2	1	0	725	1	4	0	80	35	0	0	100
fixed	3	3	12	394869	4	3	3	1	0	598	1	4	0	88	36	0	0	100
fixed	3	4	1	396328	4	1	1	1	0	440	1	4	0	72	37	0	0	100
fixed	3	4	2	397574	1	2	2	2	0	1708	2	4	0	80	38	0	0	100
fixed	3	4	3	400271	6	4	4	1	0	737	1	4	0	96	39	0	0	100
fixed	3	4	4	401375	2	1	1	1	0	730	1	4	0	72	40	0	0	100
fixed	3	4	5	402827	5	3	3	1	0	885	1	4	0	88	41	0	0	100
fixed	3	4	6	404734	6	4	4	1	0	628	1	4	0	96	42	0	0	100
fixed	3	4	7	406383	3	1	1	1	0	718	1	4	0	72	43	0	0	100
fixed	3	4	8	407898	2	3	3	1	0	806	1	4	0	88	44	0	0	100
fixed	3	4	9	409363	3	2	2	1	0	560	1	4	0	80	45	0	0	100
fixed	3	4	10	410827	1	4	4	1	0	539	1	4	0	96	46	0	0	100
fixed	3	4	11	411878	5	2	2	1	0	678	1	4	0	80	47	0	0	100
fixed	3	4	12	413229	4	3	3	1	0	525	1	4	0	88	48	0	0	100
fixed	3	5	1	414473	4	1	1	1	0	504	1	4	0	72	49	0	0	100
fixed	3	5	2	415414	1	2	2	1	0	1128	1	4	0	80	50	0	0	100
fixed	3	5	3	417101	6	4	4	1	0	480	1	4	0	96	51	0	0	100
fixed	3	5	4	418320	2	1	1	1	0	885	1	4	0	72	52	0	0	100
fixed	3	5	5	420094	5	3	3	1	0	418	1	4	0	88	53	0	0	100
fixed	3	5	6	420860	6	4	4	1	0	745	1	4	0	96	54	0	0	100
fixed	3	5	7	422446	3	1	1	1	0	638	1	4	0	72	55	0	0	100
fixed	3	5	8	423990	2	3	3	1	0	901	1	4	0	88	56	0	0	100
fixed	3	5	9	425630	3	2	2	1	0	479	1	4	0	80	57	0	0	100
fixed	3	5	10	426668	1	4	4	1	0	875	1	4	0	96	58	0	0	100
fixed	3	5	11	428569	5	2	2	1	0	1099	1	4	0	80	59	0	0	100
fixed	3	5	12	430382	4	3	3	1	0	734	1	4	0	88	60	0	0	100
fixed	3	6	1	432350	4	1	1	1	0	538	1	4	0	72	61	0	0	100
fixed	3	6	2	433338	1	2	2	1	0	785	1	4	0	80	62	0	0	100
fixed	3	6	3	435138	6	4	4	1	0	356	1	4	0	96	63	0	0	100
fixed	3	6	4	436165	2	1	1	1	0	569	1	4	0	72	64	0	0	100
fixed	3	6	5	437511	5	3	3	1	0	560	1	4	0	88	65	0	0	100
fixed	3	6	6	438460	6	4	4	1	0	704	1	4	0	96	66	0	0	100
fixed	3	6	7	439869	3	1	1	1	0	484	1	4	0	72	67	0	0	100
fixed	3	6	8	441375	2	3	3	1	0	860	1	4	0	88	68	0	0	100
fixed	3	6	9	442561	3	2	2	1	0	698	1	4	0	80	69	0	0	100
fixed	3	6	10	444227	1	4	4	1	0	467	1	4	0	96	70	0	0	100
fixed	3	6	11	445726	5	2	2	1	0	660	1	4	0	80	71	0	0	100
fixed	3	6	12	446865	4	3	3	1	0	508	1	4	0	88	72	0	0	100
fixed	3	7	1	448272	4	1	1	1	0	624	1	4	0	72	73	0	0	100
fixed	3	7	2	449231	1	2	2	1	0	944	1	4	0	80	74	0	0	100
fixed	3	7	3	451052	6	4	4	1	0	482	1	4	0	96	75	0	0	100
fixed	3	7	4	451873	2	1	1	1	0	680	1	4	0	72	76	0	0	100
fixed	3	7	5	453200	5	3	3	1	0	703	1	4	0	88	77	0	0	100
fixed	3	7	6	454845	6	4	4	1	0	618	1	4	0	96	78	0	0	100
fixed	3	7	7	456015	3	1	1	1	0	624	1	4	0	72	79	0	0	100
fixed	3	7	8	456969	2	3	3	1	0	632	1	4	0	88	80	0	0	100
fixed	3	7	9	458491	3	2	2	1	0	680	1	4	0	80	81	0	0	100
fixed	3	7	10	459723	1	4	4	1	0	587	1	4	0	96	82	0	0	100
fixed	3	7	11	461348	5	2	2	1	0	703	1	4	0	80	83	0	0	100
fixed	3	7	12	463022	4	3	3	1	0	544	1	4	0	88	84	0	0	100
fixed	3	8	1	464178	4	1	1	1	0	566	1	4	0	72	85	0	0	100
fixed	3	8	2	465628	1	2	2	1	0	737	1	4	0	80	86	0	0	100
fixed	3	8	3	466818	6	4	4	1	0	630	1	4	0	96	87	0	0	100
fixed	3	8	4	467868	2	1	1	1	0	426	1	4	0	72	88	0	0	100
fixed	3	8	5	469262	5	3	3	1	0	687	1	4	0	88	89	0	0	100
fixed	3	8	6	470564	6	4	4	1	0	568	1	4	0	96	90	0	0	100
fixed	3	8	7	471878	3	1	1	1	0	952	1	4	0	72	91	0	0	100
fixed	3	8	8	473553	2	3	3	1	0	841	1	4	0	88	92	0	0	100
fixed	3	8	9	474721	3	2	2	1	0	584	1	4	0	80	93	0	0	100
fixed	3	8	10	476180	1	4	4	1	0	466	1	4	0	96	94	0	0	100
fixed	3	8	11	477056	5	2	2	1	0	749	1	4	0	80	95	0	0	100
fixed	3	8	12	478371	4	3	3	1	0	653	1	4	0	88	96	0	0	100
fixed	3	9	1	479632	4	1	1	1	0	440	1	4	0	72	97	0	0	100
fixed	3	9	2	480818	1	2	2	1	0	861	1	4	0	80	98	0	0	100
fixed	3	9	3	482433	6	4	4	1	0	385	1	4	0	96	99	0	0	100
fixed	3	9	4	483740	2	1	1	1	0	762	1	4	0	72	100	0	0	100
fixed	3	9	5	485454	5	3	3	1	0	777	1	4	0	88	101	0	0	100
fixed	3	9	6	486812	6	4	4	1	0	712	1	4	0	96	102	0	0	100
fixed	3	9	7	487808	3	1	1	1	0	694	1	4	0	72	103	0	0	100
fixed	3	9	8	489103	2	3	3	1	0	566	1	4	0	88	104	0	0	100
fixed	3	9	9	490501	3	2	2	1	0	660	1	4	0	80	105	0	0	100
fixed	3	9	10	491940	1	4	4	1	0	631	1	4	0	96	106	0	0	100
fixed	3	9	11	492882	5	2	2	1	0	1102	1	4	0	80	107	0	0	100
fixed	3	9	12	494475	4	3	3	1	0	835	1	4	0	88	108	0	0	100
fixed	3	10	1	495989	4	1	1	1	0	491	1	4	0	72	109	0	0	100
fixed	3	10	2	497496	1	2	2	1	0	811	1	4	0	80	110	0	0	100
fixed	3	10	3	498940	6	4	4	1	0	358	1	4	0	96	111	0	0	100
fixed	3	10	4	500149	2	1	1	1	0	467	1	4	0	72	112	0	0	100
fixed	3	10	5	500913	5	3	3	1	0	547	1	4	0	88	113	0	0	100
fixed	3	10	6	502032	6	4	4	1	0	563	1	4	0	96	114	0	0	100
fixed	3	10	7	503340	3	1	1	1	0	523	1	4	0	72	115	0	0	100
fixed	3	10	8	504611	2	3	3	1	0	982	1	4	0	88	116	0	0	100
fixed	3	10	9	506031	3	2	2	1	0	658	1	4	0	80	117	0	0	100
fixed	3	10	10	507658	1	4	4	1	0	685	1	4	0	96	118	0	0	100
fixed	3	10	11	509160	5	2	2	1	0	685	1	4	0	80	119	0	0	100
fixed	3	10	12	510846	4	3	3	1	0	510	1	4	0	88	120	0	0	100
fixed	4	1	1	626724	4	1	1	1	0	785	1	4	0	104	1	0	0	100
fixed	4	1	2	627954	1	2	2	1	0	966	1	4	0	112	2	0	0	100
fixed	4	1	3	629358	6	4	4	1	0	1250	1	4	0	128	3	0	0	100
fixed	4	1	4	631093	2	1	1	1	0	673	1	4	0	104	4	0	0	100
fixed	4	1	5	632725	5	3	3	1	0	763	1	4	0	120	5	0	0	100
fixed	4	1	6	633980	6	4	4	1	0	654	1	4	0	128	6	0	0	100
fixed	4	1	7	635402	3	1	1	1	0	682	1	4	0	104	7	0	0	100
fixed	4	1	8	636670	2	3	3	1	0	732	1	4	0	120	8	0	0	100
fixed	4	1	9	638375	3	2	2	1	0	908	1	4	0	112	9	0	0	100
fixed	4	1	10	639903	1	4	4	1	0	548	1	4	0	128	10	0	0	100
fixed	4	1	11	641223	5	2	2	1	0	1596	1	4	0	112	11	0	0	100
fixed	4	1	12	643842	4	3	3	1	0	701	1	4	0	120	12	0	0	100
fixed	4	2	1	645256	4	1	1	1	0	609	1	4	0	104	13	0	0	100
fixed	4	2	2	646388	1	2	2	1	0	745	1	4	0	112	14	0	0	100
fixed	4	2	3	648043	6	4	4	1	0	554	1	4	0	128	15	0	0	100
fixed	4	2	4	649443	2	1	1	1	0	560	1	4	0	104	16	0	0	100
fixed	4	2	5	650407	5	3	3	1	0	879	1	4	0	120	17	0	0	100
fixed	4	2	6	652219	6	4	4	1	0	642	1	4	0	128	18	0	0	100
fixed	4	2	7	653844	3	1	1	1	0	637	1	4	0	104	19	0	0	100
fixed	4	2	8	655142	2	3	3	1	0	806	1	4	0	120	20	0	0	100
fixed	4	2	9	656507	3	2	2	1	0	660	1	4	0	112	21	0	0	100
fixed	4	2	10	657581	1	4	4	1	0	503	1	4	0	128	22	0	0	100
fixed	4	2	11	658868	5	2	2	1	0	801	1	4	0	112	23	0	0	100
fixed	4	2	12	660000	4	3	3	1	0	552	1	4	0	120	24	0	0	100
fixed	4	3	1	661846	4	1	1	2	0	610	2	4	0	104	25	0	0	100
fixed	4	3	2	663490	1	2	2	1	0	1077	1	4	0	112	26	0	0	100
fixed	4	3	3	665602	6	4	4	1	0	603	1	4	0	128	27	0	0	100
fixed	4	3	4	666535	2	1	1	1	0	732	1	4	0	104	28	0	0	100
fixed	4	3	5	668280	5	3	3	1	0	857	1	4	0	120	29	0	0	100
fixed	4	3	6	669805	6	4	4	1	0	681	1	4	0	128	30	0	0	100
fixed	4	3	7	670908	3	1	1	1	0	610	1	4	0	104	31	0	0	100
fixed	4	3	8	671870	2	3	3	1	0	657	1	4	0	120	32	0	0	100
fixed	4	3	9	673522	3	2	2	1	0	579	1	4	0	112	33	0	0	100
fixed	4	3	10	674444	1	4	4	1	0	580	1	4	0	128	34	0	0	100
fixed	4	3	11	675572	5	2	2	1	0	781	1	4	0	112	35	0	0	100
fixed	4	3	12	676947	4	3	3	1	0	1187	1	4	0	120	36	0	0	100
fixed	4	4	1	679389	4	1	1	1	0	619	1	4	0	104	37	0	0	100
fixed	4	4	2	680579	1	2	2	1	0	1153	1	4	0	112	38	0	0	100
fixed	4	4	3	682117	6	4	4	1	0	583	1	4	0	128	39	0	0	100
fixed	4	4	4	683036	2	1	1	1	0	833	1	4	0	104	40	0	0	100
fixed	4	4	5	684744	5	3	3	1	0	320	1	4	0	120	41	0	0	100
fixed	4	4	6	686010	6	4	4	1	0	627	1	4	0	128	42	0	0	100
fixed	4	4	7	687455	3	1	1	1	0	670	1	4	0	104	43	0	0	100
fixed	4	4	8	689112	2	3	3	1	0	823	1	4	0	120	44	0	0	100
fixed	4	4	9	690538	3	2	2	1	0	651	1	4	0	112	45	0	0	100
fixed	4	4	10	691890	1	4	4	1	0	594	1	4	0	128	46	0	0	100
fixed	4	4	11	693196	5	2	2	1	0	650	1	4	0	112	47	0	0	100
fixed	4	4	12	694597	4	3	3	1	0	567	1	4	0	120	48	0	0	100
fixed	4	5	1	696047	4	1	1	1	0	473	1	4	0	104	49	0	0	100
fixed	4	5	2	697340	1	2	2	1	0	771	1	4	0	112	50	0	0	100
fixed	4	5	3	698759	6	4	4	1	0	551	1	4	0	128	51	0	0	100
fixed	4	5	4	700243	2	1	1	1	0	624	1	4	0	104	52	0	0	100
fixed	4	5	5	701698	5	3	3	1	0	362	1	4	0	120	53	0	0	100
fixed	4	5	6	702539	6	4	4	1	0	767	1	4	0	128	54	0	0	100
fixed	4	5	7	703585	3	1	1	1	0	714	1	4	0	104	55	0	0	100
fixed	4	5	8	705055	2	3	3	1	0	756	1	4	0	120	56	0	0	100
fixed	4	5	9	706327	3	2	2	1	0	510	1	4	0	112	57	0	0	100
fixed	4	5	10	707597	1	4	4	1	0	544	1	4	0	128	58	0	0	100
fixed	4	5	11	709014	5	2	2	1	0	1140	1	4	0	112	59	0	0	100
fixed	4	5	12	710718	4	3	3	1	0	660	1	4	0	120	60	0	0	100
fixed	4	6	1	712153	4	1	1	1	0	751	1	4	0	104	61	0	0	100
fixed	4	6	2	713310	1	2	2	1	0	774	1	4	0	112	62	0	0	100
fixed	4	6	3	715094	6	4	4	1	0	379	1	4	0	128	63	0	0	100
fixed	4	6	4	716231	2	1	1	1	0	474	1	4	0	104	64	0	0	100
fixed	4	6	5	717194	5	3	3	1	0	466	1	4	0	120	65	0	0	100
fixed	4	6	6	718561	6	4	4	1	0	456	1	4	0	128	66	0	0	100
fixed	4	6	7	719991	3	1	1	1	0	547	1	4	0	104	67	0	0	100
fixed	4	6	8	721467	2	3	3	1	0	709	1	4	0	120	68	0	0	100
fixed	4	6	9	722777	3	2	2	1	0	453	1	4	0	112	69	0	0	100
fixed	4	6	10	723744	1	4	4	1	0	461	1	4	0	128	70	0	0	100
fixed	4	6	11	724767	5	2	2	1	0	897	1	4	0	112	71	0	0	100
fixed	4	6	12	726666	4	3	3	1	0	377	1	4	0	120	72	0	0	100
fixed	4	7	1	728159	4	1	1	1	0	497	1	4	0	104	73	0	0	100
fixed	4	7	2	728949	1	2	2	1	0	848	1	4	0	112	74	0	0	100
fixed	4	7	3	730765	6	4	4	1	0	363	1	4	0	128	75	0	0	100
fixed	4	7	4	731848	2	1	1	1	0	629	1	4	0	104	76	0	0	100
fixed	4	7	5	732797	5	3	3	1	0	581	1	4	0	120	77	0	0	100
fixed	4	7	6	734323	6	4	4	1	0	628	1	4	0	128	78	0	0	100
fixed	4	7	7	735678	3	1	1	1	0	579	1	4	0	104	79	0	0	100
fixed	4	7	8	737139	2	3	3	1	0	829	1	4	0	120	80	0	0	100
fixed	4	7	9	738977	3	2	2	1	0	575	1	4	0	112	81	0	0	100
fixed	4	7	10	740277	1	4	4	1	0	528	1	4	0	128	82	0	0	100
fixed	4	7	11	741265	5	2	2	1	0	934	1	4	0	112	83	0	0	100
fixed	4	7	12	742751	4	3	3	1	0	511	1	4	0	120	84	0	0	100
fixed	4	8	1	744315	4	1	1	1	0	437	1	4	0	104	85	0	0	100
fixed	4	8	2	745065	1	2	2	1	0	789	1	4	0	112	86	0	0	100
fixed	4	8	3	746432	6	4	4	1	0	572	1	4	0	128	87	0	0	100
fixed	4	8	4	747732	2	1	1	1	0	709	1	4	0	104	88	0	0	100
fixed	4	8	5	749223	5	3	3	1	0	790	1	4	0	120	89	0	0	100
fixed	4	8	6	750797	6	4	4	1	0	554	1	4	0	128	90	0	0	100
fixed	4	8	7	751899	3	1	1	1	0	716	1	4	0	104	91	0	0	100
fixed	4	8	8	753140	2	3	3	1	0	872	1	4	0	120	92	0	0	100
fixed	4	8	9	754533	3	2	2	1	0	588	1	4	0	112	93	0	0	100
fixed	4	8	10	755554	1	4	4	1	0	625	1	4	0	128	94	0	0	100
fixed	4	8	11	756694	5	2	2	1	0	736	1	4	0	112	95	0	0	100
fixed	4	8	12	757981	4	3	3	1	0	778	1	4	0	120	96	0	0	100
fixed	4	9	1	760054	4	1	1	1	0	666	1	4	0	104	97	0	0	100
fixed	4	9	2	761671	1	2	2	1	0	774	1	4	0	112	98	0	0	100
fixed	4	9	3	763418	6	4	4	1	0	388	1	4	0	128	99	0	0	100
fixed	4	9	4	764184	2	1	1	1	0	732	1	4	0	104	100	0	0	100
fixed	4	9	5	765850	5	3	3	1	0	709	1	4	0	120	101	0	0	100
fixed	4	9	6	767327	6	4	4	1	0	790	1	4	0	128	102	0	0	100
fixed	4	9	7	768424	3	1	1	1	0	648	1	4	0	104	103	0	0	100
fixed	4	9	8	769657	2	3	3	1	0	1028	1	4	0	120	104	0	0	100
fixed	4	9	9	771674	3	2	2	1	0	510	1	4	0	112	105	0	0	100
fixed	4	9	10	772585	1	4	4	1	0	615	1	4	0	128	106	0	0	100
fixed	4	9	11	774181	5	2	2	1	0	980	1	4	0	112	107	0	0	100
fixed	4	9	12	775527	4	3	3	1	0	875	1	4	0	120	108	0	0	100
fixed	4	10	1	777697	4	1	1	1	0	599	1	4	0	104	109	0	0	100
fixed	4	10	2	779193	1	2	2	1	0	776	1	4	0	112	110	0	0	100
fixed	4	10	3	780450	6	4	4	1	0	547	1	4	0	128	111	0	0	100
fixed	4	10	4	781562	2	1	1	1	0	515	1	4	0	104	112	0	0	100
fixed	4	10	5	782533	5	3	3	1	0	474	1	4	0	120	113	0	0	100
fixed	4	10	6	783301	6	4	4	1	0	610	1	4	0	128	114	0	0	100
fixed	4	10	7	784772	3	1	1	1	0	596	1	4	0	104	115	0	0	100
fixed	4	10	8	785687	2	3	3	1	0	805	1	4	0	120	116	0	0	100
fixed	4	10	9	787232	3	2	2	1	0	580	1	4	0	112	117	0	0	100
fixed	4	10	10	788279	1	4	4	1	0	519	1	4	0	128	118	0	0	100
fixed	4	10	11	789646	5	2	2	1	0	973	1	4	0	112	119	0	0	100
fixed	4	10	12	791440	4	3	3	1	0	665	1	4	0	120	120	0	0	100
fixed	5	1	1	793467	4	1	1	1	0	539	1	4	0	136	1	0	0	100
fixed	5	1	2	794481	1	2	2	1	0	712	1	4	0	144	2	0	0	100
fixed	5	1	3	795996	6	4	4	1	0	360	1	4	0	160	3	0	0	100
fixed	5	1	4	796846	2	1	1	1	0	580	1	4	0	136	4	0	0	100
fixed	5	1	5	798036	5	3	3	1	0	722	1	4	0	152	5	0	0	100
fixed	5	1	6	799493	6	4	4	1	0	644	1	4	0	160	6	0	0	100
fixed	5	1	7	801115	3	1	1	1	0	632	1	4	0	136	7	0	0	100
fixed	5	1	8	802730	2	3	3	1	0	731	1	4	0	152	8	0	0	100
fixed	5	1	9	804233	3	2	2	1	0	803	1	4	0	144	9	0	0	100
fixed	5	1	10	806051	1	4	4	1	0	934	1	4	0	160	10	0	0	100
fixed	5	1	11	807629	5	2	2	1	0	580	1	4	0	144	11	0	0	100
fixed	5	1	12	809199	4	3	3	1	0	553	1	4	0	152	12	0	0	100
fixed	5	2	1	810645	4	1	1	1	0	483	1	4	0	136	13	0	0	100
fixed	5	2	2	811826	1	2	2	2	0	1114	2	4	0	144	14	0	0	100
fixed	5	2	3	813289	6	4	4	1	0	676	1	4	0	160	15	0	0	100
fixed	5	2	4	814473	2	1	1	1	0	945	1	4	0	136	16	0	0	100
fixed	5	2	5	816305	5	3	3	1	0	668	1	4	0	152	17	0	0	100
fixed	5	2	6	817353	6	4	4	1	0	592	1	4	0	160	18	0	0	100
fixed	5	2	7	818870	3	1	1	1	0	759	1	4	0	136	19	0	0	100
fixed	5	2	8	820415	2	3	3	1	0	878	1	4	0	152	20	0	0	100
fixed	5	2	9	822061	3	2	2	1	0	720	1	4	0	144	21	0	0	100
fixed	5	2	10	823336	1	4	4	1	0	482	1	4	0	160	22	0	0	100
fixed	5	2	11	824513	5	2	2	1	0	904	1	4	0	144	23	0	0	100
fixed	5	2	12	826405	4	3	3	1	0	824	1	4	0	152	24	0	0	100
fixed	5	3	1	828054	4	1	1	1	0	458	1	4	0	136	25	0	0	100
fixed	5	3	2	828920	1	2	2	1	0	837	1	4	0	144	26	0	0	100
fixed	5	3	3	830105	6	4	4	1	0	564	1	4	0	160	27	0	0	100
fixed	5	3	4	830979	2	1	1	1	0	526	1	4	0	136	28	0	0	100
fixed	5	3	5	832164	5	3	3	1	0	1124	1	4	0	152	29	0	0	100
fixed	5	3	6	834275	6	4	4	1	0	635	1	4	0	160	30	0	0	100
fixed	5	3	7	835312	3	1	1	1	0	647	1	4	0	136	31	0	0	100
fixed	5	3	8	836408	2	3	3	1	0	776	1	4	0	152	32	0	0	100
fixed	5	3	9	838178	3	2	2	1	0	677	1	4	0	144	33	0	0	100
fixed	5	3	10	839564	1	4	4	1	0	490	1	4	0	160	34	0	0	100
fixed	5	3	11	840962	5	2	2	1	0	784	1	4	0	144	35	0	0	100
fixed	5	3	12	842143	4	3	3	1	0	710	1	4	0	152	36	0	0	100
fixed	5	4	1	844144	4	1	1	1	0	569	1	4	0	136	37	0	0	100
fixed	5	4	2	845750	1	2	2	1	0	701	1	4	0	144	38	0	0	100
fixed	5	4	3	846992	6	4	4	1	0	448	1	4	0	160	39	0	0	100
fixed	5	4	4	847807	2	1	1	1	0	582	1	4	0	136	40	0	0	100
fixed	5	4	5	849352	5	3	3	1	0	709	1	4	0	152	41	0	0	100
fixed	5	4	6	850884	6	4	4	1	0	659	1	4	0	160	42	0	0	100
fixed	5	4	7	852422	3	1	1	1	0	634	1	4	0	136	43	0	0	100
fixed	5	4	8	853931	2	3	3	1	0	619	1	4	0	152	44	0	0	100
fixed	5	4	9	855383	3	2	2	1	0	637	1	4	0	144	45	0	0	100
fixed	5	4	10	856652	1	4	4	1	0	823	1	4	0	160	46	0	0	100
fixed	5	4	11	858196	5	2	2	1	0	645	1	4	0	144	47	0	0	100
fixed	5	4	12	859729	4	3	3	1	0	524	1	4	0	152	48	0	0	100
fixed	5	5	1	860835	4	1	1	1	0	542	1	4	0	136	49	0	0	100
fixed	5	5	2	862351	1	2	2	1	0	750	1	4	0	144	50	0	0	100
fixed	5	5	3	863550	6	4	4	1	0	531	1	4	0	160	51	0	0	100
fixed	5	5	4	864635	2	1	1	1	0	453	1	4	0	136	52	0	0	100
fixed	5	5	5	865441	5	3	3	1	0	627	1	4	0	152	53	0	0	100
fixed	5	5	6	866380	6	4	4	1	0	643	1	4	0	160	54	0	0	100
fixed	5	5	7	867425	3	1	1	1	0	599	1	4	0	136	55	0	0	100
fixed	5	5	8	868343	2	3	3	1	0	824	1	4	0	152	56	0	0	100
fixed	5	5	9	869920	3	2	2	1	0	557	1	4	0	144	57	0	0	100
fixed	5	5	10	871386	1	4	4	1	0	495	1	4	0	160	58	0	0	100
fixed	5	5	11	872658	5	2	2	1	0	649	1	4	0	144	59	0	0	100
fixed	5	5	12	873798	4	3	3	1	0	592	1	4	0	152	60	0	0	100
fixed	5	6	1	875320	4	1	1	1	0	528	1	4	0	136	61	0	0	100
fixed	5	6	2	876609	1	2	2	1	0	690	1	4	0	144	62	0	0	100
fixed	5	6	3	878319	6	4	4	1	0	273	1	4	0	160	63	0	0	100
fixed	5	6	4	878943	2	1	1	1	0	575	1	4	0	136	64	0	0	100
fixed	5	6	5	880412	5	3	3	1	0	737	1	4	0	152	65	0	0	100
fixed	5	6	6	882014	6	4	4	1	0	573	1	4	0	160	66	0	0	100
fixed	5	6	7	883288	3	1	1	1	0	615	1	4	0	136	67	0	0	100
fixed	5	6	8	884472	2	3	3	1	0	1061	1	4	0	152	68	0	0	100
fixed	5	6	9	886348	3	2	2	1	0	605	1	4	0	144	69	0	0	100
fixed	5	6	10	887613	1	4	4	1	0	712	1	4	0	160	70	0	0	100
fixed	5	6	11	888870	5	2	2	1	0	690	1	4	0	144	71	0	0	100
fixed	5	6	12	890550	4	3	3	1	0	403	1	4	0	152	72	0	0	100
fixed	5	7	1	892195	4	1	1	1	0	549	1	4	0	136	73	0	0	100
fixed	5	7	2	893247	1	2	2	2	0	1505	2	4	0	144	74	0	0	100
fixed	5	7	3	895461	6	4	4	1	0	627	1	4	0	160	75	0	0	100
fixed	5	7	4	896769	2	1	1	1	0	708	1	4	0	136	76	0	0	100
fixed	5	7	5	897898	5	3	3	1	0	772	1	4	0	152	77	0	0	100
fixed	5	7	6	899094	6	4	4	1	0	617	1	4	0	160	78	0	0	100
fixed	5	7	7	900475	3	1	1	1	0	511	1	4	0	136	79	0	0	100
fixed	5	7	8	901355	2	3	3	1	0	826	1	4	0	152	80	0	0	100
fixed	5	7	9	902740	3	2	2	1	0	575	1	4	0	144	81	0	0	100
fixed	5	7	10	904351	1	4	4	1	0	451	1	4	0	160	82	0	0	100
fixed	5	7	11	905656	5	2	2	1	0	692	1	4	0	144	83	0	0	100
fixed	5	7	12	906756	4	3	3	1	0	525	1	4	0	152	84	0	0	100
fixed	5	8	1	908552	4	1	1	1	0	481	1	4	0	136	85	0	0	100
fixed	5	8	2	909448	1	2	2	1	0	1155	1	4	0	144	86	0	0	100
fixed	5	8	3	911378	6	4	4	1	0	313	1	4	0	160	87	0	0	100
fixed	5	8	4	912449	2	1	1	1	0	492	1	4	0	136	88	0	0	100
fixed	5	8	5	913609	5	3	3	1	0	875	1	4	0	152	89	0	0	100
fixed	5	8	6	915258	6	4	4	1	0	565	1	4	0	160	90	0	0	100
fixed	5	8	7	916619	3	1	1	1	0	667	1	4	0	136	91	0	0	100
fixed	5	8	8	917669	2	3	3	1	0	1551	1	4	0	152	92	0	0	100
fixed	5	8	9	919939	3	2	2	1	0	495	1	4	0	144	93	0	0	100
fixed	5	8	10	921103	1	4	4	1	0	445	1	4	0	160	94	0	0	100
fixed	5	8	11	922159	5	2	2	1	0	913	1	4	0	144	95	0	0	100
fixed	5	8	12	923927	4	3	3	1	0	598	1	4	0	152	96	0	0	100
fixed	5	9	1	925343	4	1	1	1	0	481	1	4	0	136	97	0	0	100
fixed	5	9	2	926533	1	2	2	1	0	759	1	4	0	144	98	0	0	100
fixed	5	9	3	928227	6	4	4	1	0	496	1	4	0	160	99	0	0	100
fixed	5	9	4	929505	2	1	1	1	0	505	1	4	0	136	100	0	0	100
fixed	5	9	5	930893	5	3	3	1	0	494	1	4	0	152	101	0	0	100
fixed	5	9	6	932199	6	4	4	1	0	543	1	4	0	160	102	0	0	100
fixed	5	9	7	933679	3	1	1	1	0	616	1	4	0	136	103	0	0	100
fixed	5	9	8	935209	2	3	3	1	0	1032	1	4	0	152	104	0	0	100
fixed	5	9	9	936909	3	2	2	1	0	776	1	4	0	144	105	0	0	100
fixed	5	9	10	938721	1	4	4	1	0	371	1	4	0	160	106	0	0	100
fixed	5	9	11	939810	5	2	2	1	0	805	1	4	0	144	107	0	0	100
fixed	5	9	12	941109	4	3	3	1	0	998	1	4	0	152	108	0	0	100
fixed	5	10	1	943036	4	1	1	1	0	476	1	4	0	136	109	0	0	100
fixed	5	10	2	944260	1	2	2	1	0	728	1	4	0	144	110	0	0	100
fixed	5	10	3	946008	6	4	4	1	0	310	1	4	0	160	111	0	0	100
fixed	5	10	4	947113	2	1	1	1	0	375	1	4	0	136	112	0	0	100
fixed	5	10	5	948130	5	3	3	1	0	828	1	4	0	152	113	0	0	100
fixed	5	10	6	949631	6	4	4	1	0	589	1	4	0	160	114	0	0	100
fixed	5	10	7	950605	3	1	1	1	0	723	1	4	0	136	115	0	0	100
fixed	5	10	8	952216	2	3	3	1	0	775	1	4	0	152	116	0	0	100
fixed	5	10	9	954010	3	2	2	1	0	476	1	4	0	144	117	0	0	100
fixed	5	10	10	955080	1	4	4	1	0	646	1	4	0	160	118	0	0	100
fixed	5	10	11	956359	5	2	2	1	0	792	1	4	0	144	119	0	0	100
fixed	5	10	12	957691	4	3	3	1	0	879	1	4	0	152	120	0	0	100
random	6	1	1	1061274	6	1	1	1	0	700	1	4	0	168	1	0	0	100
random	6	1	2	1062829	4	4	4	1	0	906	1	4	0	192	2	0	0	100
random	6	1	3	1064043	2	2	2	1	0	807	1	4	0	176	3	0	0	100
random	6	1	4	1065673	3	3	3	1	0	554	1	4	0	184	4	0	0	100
random	6	1	5	1066964	5	2	2	1	0	915	1	4	0	176	5	0	0	100
random	6	1	6	1068683	1	4	4	1	0	610	1	4	0	192	6	0	0	100
random	6	1	7	1069939	6	1	1	1	0	597	1	4	0	168	7	0	0	100
random	6	1	8	1070997	2	3	3	1	0	792	1	4	0	184	8	0	0	100
random	6	1	9	1072200	4	2	2	1	0	1069	1	4	0	176	9	0	0	100
random	6	1	10	1074208	1	1	1	1	0	976	1	4	0	168	10	0	0	100
random	6	1	11	1075478	5	4	4	1	0	666	1	4	0	192	11	0	0	100
random	6	1	12	1077060	3	3	3	1	0	1112	1	4	0	184	12	0	0	100
random	6	1	13	1079087	5	2	2	1	0	865	1	4	0	176	13	0	0	100
random	6	1	14	1080865	1	4	4	1	0	774	1	4	0	192	14	0	0	100
random	6	1	15	1082674	3	1	1	1	0	722	1	4	0	168	15	0	0	100
random	6	1	16	1084012	4	3	3	1	0	721	1	4	0	184	16	0	0	100
random	6	1	17	1085106	6	4	4	1	0	627	1	4	0	192	17	0	0	100
random	6	1	18	1086280	2	1	1	1	0	625	1	4	0	168	18	0	0	100
random	6	1	19	1087866	5	3	3	1	0	766	1	4	0	184	19	0	0	100
random	6	1	20	1089108	2	2	2	1	0	818	1	4	0	176	20	0	0	100
random	6	1	21	1090776	3	3	3	1	0	763	1	4	0	184	21	0	0	100
random	6	1	22	1092279	6	1	1	1	0	1011	1	4	0	168	22	0	0	100
random	6	1	23	1094196	4	2	2	1	0	642	1	4	0	176	23	0	0	100
random	6	1	24	1095147	1	4	4	1	0	505	1	4	0	192	24	0	0	100
random	6	1	25	1096596	4	3	3	1	0	1124	1	4	0	184	25	0	0	100
random	6	1	26	1098217	2	1	1	1	0	743	1	4	0	168	26	0	0	100
random	6	1	27	1099897	5	2	2	1	0	817	1	4	0	176	27	0	0	100
random	6	1	28	1101092	6	4	4	1	0	605	1	4	0	192	28	0	0	100
random	6	1	29	1102066	1	3	3	1	0	644	1	4	0	184	29	0	0	100
random	6	1	30	1103367	5	2	2	1	0	1149	1	4	0	176	30	0	0	100
random	6	1	31	1105001	2	1	1	1	0	760	1	4	0	168	31	0	0	100
random	6	1	32	1106297	3	3	3	1	0	721	1	4	0	184	32	0	0	100
random	6	1	33	1107306	6	4	4	1	0	734	1	4	0	192	33	0	0	100
random	6	1	34	1108961	4	2	2	1	0	896	1	4	0	176	34	0	0	100
random	6	1	35	1110477	3	4	4	1	0	600	1	4	0	192	35	0	0	100
random	6	1	36	1111402	1	1	1	1	0	689	1	4	0	168	36	0	0	100
random	6	1	37	1112953	3	4	4	1	0	1751	1	4	0	192	37	0	0	100
random	6	1	38	1115733	5	3	3	1	0	858	1	4	0	184	38	0	0	100
random	6	1	39	1117148	6	1	1	1	0	765	1	4	0	168	39	0	0	100
random	6	1	40	1118247	1	2	2	1	0	791	1	4	0	176	40	0	0	100
random	6	1	41	1119631	2	3	3	1	0	549	1	4	0	184	41	0	0	100
random	6	1	42	1120983	4	4	4	1	0	667	1	4	0	192	42	0	0	100
random	6	1	43	1122311	1	2	2	1	0	995	1	4	0	176	43	0	0	100
random	6	1	44	1123958	6	3	3	1	0	597	1	4	0	184	44	0	0	100
random	6	1	45	1125455	3	1	1	1	0	686	1	4	0	168	45	0	0	100
random	6	1	46	1126976	4	4	4	1	0	709	1	4	0	192	46	0	0	100
random	6	1	47	1128331	2	2	2	1	0	820	1	4	0	176	47	0	0	100
random	6	1	48	1129980	5	1	1	1	0	798	1	4	0	168	48	0	0	100
random	6	1	49	1131682	2	3	3	1	0	758	1	4	0	184	49	0	0	100
random	6	1	50	1132849	3	1	1	1	0	836	1	4	0	168	50	0	0	100
random	6	1	51	1134520	1	4	4	1	0	421	1	4	0	192	51	0	0	100
random	6	1	52	1135336	5	3	3	1	0	732	1	4	0	184	52	0	0	100
random	6	1	53	1136918	3	2	2	1	0	456	1	4	0	176	53	0	0	100
random	6	1	54	1138405	6	4	4	1	0	633	1	4	0	192	54	0	0	100
random	6	1	55	1140035	4	2	2	1	0	724	1	4	0	176	55	0	0	100
random	6	1	56	1141296	1	1	1	1	0	1015	1	4	0	168	56	0	0	100
random	6	1	57	1142694	5	4	4	1	0	715	1	4	0	192	57	0	0	100
random	6	1	58	1144367	2	1	1	1	0	693	1	4	0	168	58	0	0	100
random	6	1	59	1146039	6	2	0	1	2	0	3	4	0	176	58	0	1	98
random	6	1	60	1149033	4	3	3	2	0	1223	2	4	0	184	59	0	1	98
random	6	1	61	1151163	1	2	2	1	0	925	1	4	0	176	60	0	1	98
random	6	1	62	1152756	6	4	4	1	0	705	1	4	0	192	61	0	1	98
random	6	1	63	1154456	4	1	1	1	0	705	1	4	0	168	62	0	1	98
random	6	1	64	1155699	2	2	2	1	0	829	1	4	0	176	63	0	1	98
random	6	1	65	1157129	4	3	3	1	0	752	1	4	0	184	64	0	1	98
random	6	1	66	1158907	3	1	1	1	0	773	1	4	0	168	65	0	1	98
random	6	1	67	1160537	1	3	3	1	0	760	1	4	0	184	66	0	1	99
random	6	1	68	1162033	5	4	4	1	0	649	1	4	0	192	67	0	1	99
random	6	1	69	1163283	2	2	2	1	0	764	1	4	0	176	68	0	1	99
random	6	1	70	1164980	3	1	1	1	0	683	1	4	0	168	69	0	1	99
random	6	1	71	1166083	5	4	4	1	0	661	1	4	0	192	70	0	1	99
random	6	1	72	1167441	6	3	3	1	0	627	1	4	0	184	71	0	1	99
random	6	1	73	1168840	2	1	1	1	0	704	1	4	0	168	72	0	1	99
random	6	1	74	1169899	5	3	3	1	0	723	1	4	0	184	73	0	1	99
random	6	1	75	1170918	1	4	4	1	0	728	1	4	0	192	74	0	1	99
random	6	1	76	1172636	6	2	2	1	0	959	1	4	0	176	75	0	1	99
random	6	1	77	1174034	2	1	1	1	0	1140	1	4	0	168	76	0	1	99
random	6	1	78	1175947	4	4	4	1	0	611	1	4	0	192	77	0	1	99
random	6	1	79	1176961	3	2	2	1	0	784	1	4	0	176	78	0	1	99
random	6	1	80	1178046	4	3	3	1	0	562	1	4	0	184	79	0	1	99
random	6	1	81	1178939	1	4	4	1	0	589	1	4	0	192	80	0	1	99
random	6	1	82	1179908	5	1	1	1	0	507	1	4	0	168	81	0	1	99
random	6	1	83	1180870	3	2	2	1	0	850	1	4	0	176	82	0	1	99
random	6	1	84	1182649	6	3	3	1	0	559	1	4	0	184	83	0	1	99
random	6	1	85	1183894	3	2	2	2	0	1274	2	4	0	176	84	0	1	99
random	6	1	86	1185559	1	3	3	2	0	1028	2	4	0	184	85	0	1	99
random	6	1	87	1187415	4	4	4	1	0	854	1	4	0	192	86	0	1	99
random	6	1	88	1189295	2	1	1	1	0	590	1	4	0	168	87	0	1	99
random	6	1	89	1190723	6	4	4	1	0	850	1	4	0	192	88	0	1	99
random	6	1	90	1192301	3	3	3	1	0	854	1	4	0	184	89	0	1	99
random	6	1	91	1193751	5	4	4	1	0	897	1	4	0	192	90	0	1	99
random	6	1	92	1195607	1	2	2	1	0	1138	1	4	0	176	91	0	1	99
random	6	1	93	1197470	5	1	1	1	0	900	1	4	0	168	92	0	1	99
random	6	1	94	1198740	4	3	3	1	0	734	1	4	0	184	93	0	1	99
random	6	1	95	1200268	6	1	1	1	0	741	1	4	0	168	94	0	1	99
random	6	1	96	1201603	2	2	2	1	0	708	1	4	0	176	95	0	1	99
random	6	1	97	1202874	4	3	3	1	0	871	1	4	0	184	96	0	1	99
random	6	1	98	1204319	3	2	2	1	0	866	1	4	0	176	97	0	1	99
random	6	1	99	1205503	6	3	3	1	0	1071	1	4	0	184	98	0	1	99
random	6	1	100	1207401	1	4	4	1	0	575	1	4	0	192	99	0	1	99
random	6	1	101	1208475	4	1	1	1	0	729	1	4	0	168	100	0	1	99
random	6	1	102	1209806	5	2	2	1	0	809	1	4	0	176	101	0	1	99
random	6	1	103	1211177	2	4	4	1	0	671	1	4	0	192	102	0	1	99
random	6	1	104	1212786	3	1	1	1	0	667	1	4	0	168	103	0	1	99
random	6	1	105	1213967	1	3	3	1	0	737	1	4	0	184	104	0	1	99
random	6	1	106	1215490	2	2	2	1	0	680	1	4	0	176	105	0	1	99
random	6	1	107	1216815	5	4	4	1	0	472	1	4	0	192	106	0	1	99
random	6	1	108	1218192	6	1	1	1	0	446	1	4	0	168	107	0	1	99
random	6	1	109	1219732	5	4	4	1	0	948	1	4	0	192	108	0	1	99
random	6	1	110	1221454	6	3	3	1	0	796	1	4	0	184	109	0	1	99
random	6	1	111	1223011	2	2	2	1	0	634	1	4	0	176	110	0	1	99
random	6	1	112	1224674	3	1	0	1	2	0	3	4	0	168	110	0	2	98
random	6	1	113	1228054	1	2	2	1	0	2204	1	4	0	176	111	0	2	98
random	6	1	114	1230704	2	3	3	1	0	796	1	4	0	184	112	0	2	98
random	6	1	115	1232241	3	1	1	1	0	723	1	4	0	168	113	0	2	98
random	6	1	116	1233377	4	4	4	1	0	715	1	4	0	192	114	0	2	98
random	6	1	117	1234692	6	1	1	1	0	1003	1	4	0	168	115	0	2	98
random	6	1	118	1236021	5	3	3	1	0	755	1	4	0	184	116	0	2	98
random	6	1	119	1237226	1	4	4	1	0	624	1	4	0	192	117	0	2	98
random	6	1	120	1238885	4	2	2	1	0	961	1	4	0	176	118	0	2	98
fixed	7	1	1	1240814	4	1	1	1	0	695	1	4	0	200	1	0	0	100
fixed	7	1	2	1242069	1	2	2	1	0	1162	1	4	0	208	2	0	0	100
fixed	7	1	3	1244051	6	4	4	1	0	695	1	4	0	224	3	0	0	100
fixed	7	1	4	1245744	2	1	1	1	0	687	1	4	0	200	4	0	0	100
fixed	7	1	5	1246803	5	3	3	1	0	986	1	4	0	216	5	0	0	100
fixed	7	1	6	1248449	6	4	4	1	0	669	1	4	0	224	6	0	0	100
fixed	7	1	7	1249731	3	1	1	1	0	774	1	4	0	200	7	0	0	100
fixed	7	1	8	1250800	2	3	3	1	0	785	1	4	0	216	8	0	0	100
fixed	7	1	9	1252432	3	2	2	1	0	652	1	4	0	208	9	0	0	100
fixed	7	1	10	1253792	1	4	4	1	0	570	1	4	0	224	10	0	0	100
fixed	7	1	11	1255113	5	2	2	1	0	866	1	4	0	208	11	0	0	100
fixed	7	1	12	1256821	4	3	3	1	0	753	1	4	0	216	12	0	0	100
fixed	7	2	1	1258210	4	1	1	1	0	591	1	4	0	200	1	0	0	8
fixed	7	2	2	1259212	1	2	2	1	0	924	1	4	0	208	2	0	0	14
fixed	7	2	3	1261075	6	4	4	1	0	694	1	4	0	224	3	0	0	20
fixed	7	2	4	1262538	2	1	1	1	0	847	1	4	0	200	4	0	0	25
fixed	7	2	5	1263763	5	3	3	1	0	708	1	4	0	216	5	0	0	29
fixed	7	2	6	1265255	6	4	4	1	0	581	1	4	0	224	6	0	0	33
fixed	7	2	7	1266830	3	1	1	1	0	658	1	4	0	200	7	0	0	37
fixed	7	2	8	1268064	2	3	3	1	0	838	1	4	0	216	8	0	0	40
fixed	7	2	9	1269502	3	2	2	1	0	592	1	4	0	208	9	0	0	43
fixed	7	2	10	1271102	1	4	4	1	0	429	1	4	0	224	10	0	0	45
fixed	7	2	11	1272041	5	2	2	2	0	1445	2	4	0	208	11	0	0	48
fixed	7	2	12	1274302	4	3	3	1	0	709	1	4	0	216	12	0	0	50
fixed	7	3	1	1275953	4	1	1	1	0	647	1	4	0	200	1	0	0	4
fixed	7	3	2	1277633	1	2	2	1	0	960	1	4	0	208	2	0	0	8
fixed	7	3	3	1279400	6	4	4	1	0	517	1	4	0	224	3	0	0	11
fixed	7	3	4	1280606	2	1	1	1	0	682	1	4	0	200	4	0	0	14
fixed	7	3	5	1282264	5	3	3	1	0	684	1	4	0	216	5	0	0	17
fixed	7	3	6	1283522	6	4	4	1	0	615	1	4	0	224	6	0	0	20
fixed	7	3	7	1284644	3	1	1	1	0	599	1	4	0	200	7	0	0	23
fixed	7	3	8	1285720	2	3	3	1	0	954	1	4	0	216	8	0	0	25
fixed	7	3	9	1287635	3	2	2	1	0	657	1	4	0	208	9	0	0	27
fixed	7	3	10	1289200	1	4	4	1	0	550	1	4	0	224	10	0	0	29
fixed	7	3	11	1290160	5	2	2	1	0	702	1	4	0	208	11	0	0	31
fixed	7	3	12	1291772	4	3	3	1	0	802	1	4	0	216	12	0	0	33
fixed	7	4	1	1293864	4	1	1	1	0	681	1	4	0	200	1	0	0	3
fixed	7	4	2	1295065	1	2	2	1	0	806	1	4	0	208	2	0	0	5
fixed	7	4	3	1296672	6	4	4	1	0	586	1	4	0	224	3	0	0	8
fixed	7	4	4	1297640	2	1	1	1	0	633	1	4	0	200	4	0	0	10
fixed	7	4	5	1298653	5	3	3	1	0	662	1	4	0	216	5	0	0	12
fixed	7	4	6	1299785	6	4	4	1	0	710	1	4	0	224	6	0	0	14
fixed	7	4	7	1300840	3	1	1	1	0	617	1	4	0	200	7	0	0	16
fixed	7	4	8	1302132	2	3	3	1	0	714	1	4	0	216	8	0	0	18
fixed	7	4	9	1303592	3	2	2	1	0	613	1	4	0	208	9	0	0	20
fixed	7	4	10	1305200	1	4	4	1	0	985	1	4	0	224	10	0	0	22
fixed	7	4	11	1306535	5	2	2	1	0	760	1	4	0	208	11	0	0	23
fixed	7	4	12	1308021	4	3	3	1	0	633	1	4	0	216	12	0	0	25
fixed	7	5	1	1309753	4	1	1	1	0	544	1	4	0	200	1	0	0	2
fixed	7	5	2	1310896	1	2	2	1	0	815	1	4	0	208	2	0	0	4
fixed	7	5	3	1312079	6	4	4	1	0	661	1	4	0	224	3	0	0	6
fixed	7	5	4	1313117	2	1	1	1	0	697	1	4	0	200	4	0	0	8
fixed	7	5	5	1314112	5	3	3	1	0	767	1	4	0	216	5	0	0	9
fixed	7	5	6	1315272	6	4	4	1	0	598	1	4	0	224	6	0	0	11
fixed	7	5	7	1316564	3	1	1	1	0	568	1	4	0	200	7	0	0	13
fixed	7	5	8	1317458	2	3	3	1	0	737	1	4	0	216	8	0	0	14
fixed	7	5	9	1318947	3	2	2	1	0	538	1	4	0	208	9	0	0	16
fixed	7	5	10	1320281	1	4	4	1	0	642	1	4	0	224	10	0	0	17
fixed	7	5	11	1321318	5	2	2	1	0	710	1	4	0	208	11	0	0	19
fixed	7	5	12	1322998	4	3	3	1	0	719	1	4	0	216	12	0	0	20
fixed	7	6	1	1324539	4	1	1	1	0	565	1	4	0	200	1	0	0	2
fixed	7	6	2	1326059	1	2	2	1	0	893	1	4	0	208	2	0	0	3
fixed	7	6	3	1327404	6	4	4	1	0	588	1	4	0	224	3	0	0	5
fixed	7	6	4	1328393	2	1	1	1	0	787	1	4	0	200	4	0	0	6
fixed	7	6	5	1330064	5	3	3	1	0	676	1	4	0	216	5	0	0	8
fixed	7	6	6	1331766	6	4	4	1	0	588	1	4	0	224	6	0	0	9
fixed	7	6	7	1333063	3	1	1	1	0	540	1	4	0	200	7	0	0	10
fixed	7	6	8	1334323	2	3	3	2	0	1495	2	4	0	216	8	0	0	12
fixed	7	6	9	1336193	3	2	2	1	0	720	1	4	0	208	9	0	0	13
fixed	7	6	10	1337388	1	4	4	1	0	613	1	4	0	224	10	0	0	14
fixed	7	6	11	1338360	5	2	2	1	0	668	1	4	0	208	11	0	0	15
fixed	7	6	12	1339930	4	3	3	1	0	682	1	4	0	216	12	0	0	17
fixed	7	7	1	1341363	4	1	1	1	0	485	1	4	0	200	1	0	0	1
fixed	7	7	2	1342738	1	2	2	1	0	899	1	4	0	208	2	0	0	3
fixed	7	7	3	1344313	6	4	4	1	0	560	1	4	0	224	3	0	0	4
fixed	7	7	4	1345447	2	1	1	1	0	664	1	4	0	200	4	0	0	5
fixed	7	7	5	1346540	5	3	3	1	0	585	1	4	0	216	5	0	0	6
fixed	7	7	6	1347499	6	4	4	1	0	617	1	4	0	224	6	0	0	8
fixed	7	7	7	1349037	3	1	1	1	0	584	1	4	0	200	7	0	0	9
fixed	7	7	8	1350193	2	3	3	1	0	1167	1	4	0	216	8	0	0	10
fixed	7	7	9	1351884	3	2	2	1	0	520	1	4	0	208	9	0	0	11
fixed	7	7	10	1352859	1	4	4	1	0	614	1	4	0	224	10	0	0	12
fixed	7	7	11	1354136	5	2	2	1	0	792	1	4	0	208	11	0	0	13
fixed	7	7	12	1355653	4	3	3	1	0	672	1	4	0	216	12	0	0	14
fixed	7	8	1	1357303	4	1	1	1	0	594	1	4	0	200	1	0	0	1
fixed	7	8	2	1358308	1	2	2	1	0	815	1	4	0	208	2	0	0	2
fixed	7	8	3	1359815	6	4	4	1	0	679	1	4	0	224	3	0	0	3
fixed	7	8	4	1361367	2	1	1	1	0	734	1	4	0	200	4	0	0	5
fixed	7	8	5	1363010	5	3	3	1	0	640	1	4	0	216	5	0	0	6
fixed	7	8	6	1364426	6	4	4	1	0	556	1	4	0	224	6	0	0	7
fixed	7	8	7	1365753	3	1	1	1	0	620	1	4	0	200	7	0	0	8
fixed	7	8	8	1366837	2	3	3	1	0	742	1	4	0	216	8	0	0	9
fixed	7	8	9	1368474	3	2	2	1	0	489	1	4	0	208	9	0	0	10
fixed	7	8	10	1369765	1	4	4	1	0	450	1	4	0	224	10	0	0	11
fixed	7	8	11	1371196	5	2	2	1	0	774	1	4	0	208	11	0	0	12
fixed	7	8	12	1372816	4	3	3	1	0	673	1	4	0	216	12	0	0	13
fixed	7	9	1	1374228	4	1	1	1	0	421	1	4	0	200	1	0	0	1
fixed	7	9	2	1375198	1	2	2	1	0	740	1	4	0	208	2	0	0	2
fixed	7	9	3	1376854	6	4	4	1	0	446	1	4	0	224	3	0	0	3
fixed	7	9	4	1377737	2	1	1	1	0	632	1	4	0	200	4	0	0	4
fixed	7	9	5	1379318	5	3	3	1	0	470	1	4	0	216	5	0	0	5
fixed	7	9	6	1380229	6	4	4	1	0	647	1	4	0	224	6	0	0	6
fixed	7	9	7	1381315	3	1	1	1	0	601	1	4	0	200	7	0	0	7
fixed	7	9	8	1382740	2	3	3	1	0	885	1	4	0	216	8	0	0	8
fixed	7	9	9	1384008	3	2	2	1	0	495	1	4	0	208	9	0	0	9
fixed	7	9	10	1384835	1	4	4	1	0	571	1	4	0	224	10	0	0	9
fixed	7	9	11	1386211	5	2	2	1	0	1105	1	4	0	208	11	0	0	10
fixed	7	9	12	1387787	4	3	3	1	0	607	1	4	0	216	12	0	0	11
fixed	7	10	1	1389365	4	1	1	1	0	532	1	4	0	200	1	0	0	1
fixed	7	10	2	1390322	1	2	2	1	0	771	1	4	0	208	2	0	0	2
fixed	7	10	3	1391623	6	4	4	1	0	508	1	4	0	224	3	0	0	3
fixed	7	10	4	1393123	2	1	1	1	0	796	1	4	0	200	4	0	0	4
fixed	7	10	5	1394470	5	3	3	1	0	716	1	4	0	216	5	0	0	4
fixed	7	10	6	1396188	6	4	4	1	0	579	1	4	0	224	6	0	0	5
fixed	7	10	7	1397307	3	1	1	1	0	563	1	4	0	200	7	0	0	6
fixed	7	10	8	1398860	2	3	3	1	0	850	1	4	0	216	8	0	0	7
fixed	7	10	9	1400492	3	2	2	1	0	500	1	4	0	208	9	0	0	8
fixed	7	10	10	1401650	1	4	4	1	0	779	1	4	0	224	10	0	0	8
fixed	7	10	11	1403390	5	2	2	1	0	474	1	4	0	208	11	0	0	9
fixed	7	10	12	1404576	4	3	3	1	0	488	1	4	0	216	12	0	0	10
