type	block	sequ.	trial	time	Pos.	Color	Button	NumRsp	Resp_1	RT_1	R_Code	Resp_2	RT_2	Trigg.	n_hit	n_inc	n_miss	score_%

random	1	1	1	1717	6	1	0	3	2	0	3	4	0	8	0	0	1	0
random	1	1	2	4642	4	4	4	1	0	781	1	4	0	32	1	0	1	50
random	1	1	3	6048	2	2	2	1	0	706	1	4	0	16	2	0	1	67
random	1	1	4	7187	3	3	3	1	0	866	1	4	0	24	3	0	1	75
random	1	1	5	8555	5	2	2	1	0	848	1	4	0	16	4	0	1	80
random	1	1	6	10390	1	4	4	1	0	490	1	4	0	32	5	0	1	83
random	1	1	7	11554	6	1	1	1	0	793	1	4	0	8	6	0	1	86
random	1	1	8	12940	2	3	3	1	0	806	1	4	0	24	7	0	1	88
random	1	1	9	14644	4	2	2	1	0	582	1	4	0	16	8	0	1	89
random	1	1	10	15996	1	1	0	1	2	0	3	4	0	8	8	0	2	80
random	1	1	11	19261	5	4	4	1	0	962	1	4	0	32	9	0	2	82
random	1	1	12	21034	3	3	3	1	0	1047	1	4	0	24	10	0	2	83
random	1	1	13	22887	5	2	2	1	0	776	1	4	0	16	11	0	2	85
random	1	1	14	24343	1	4	4	1	0	635	1	4	0	32	12	0	2	86
random	1	1	15	26010	3	1	1	1	0	748	1	4	0	8	13	0	2	87
random	1	1	16	27264	4	3	3	1	0	759	1	4	0	24	14	0	2	88
random	1	1	17	28388	6	4	4	1	0	664	1	4	0	32	15	0	2	88
random	1	1	18	29623	2	1	1	1	0	555	1	4	0	8	16	0	2	89
random	1	1	19	30853	5	3	3	1	0	680	1	4	0	24	17	0	2	89
random	1	1	20	32242	2	2	2	1	0	588	1	4	0	16	18	0	2	90
random	1	1	21	33705	3	3	3	1	0	823	1	4	0	24	19	0	2	90
random	1	1	22	35361	6	1	1	3	0	1272	2	4	0	8	20	0	2	91
random	1	1	23	37324	4	2	2	1	0	789	1	4	0	16	21	0	2	91
random	1	1	24	38760	1	4	4	1	0	912	1	4	0	32	22	0	2	92
random	1	1	25	40547	4	3	3	1	0	820	1	4	0	24	23	0	2	92
random	1	1	26	42245	2	1	1	1	0	861	1	4	0	8	24	0	2	92
random	1	1	27	43789	5	2	2	1	0	739	1	4	0	16	25	0	2	93
random	1	1	28	45128	6	4	4	1	0	618	1	4	0	32	26	0	2	93
random	1	1	29	46296	1	3	3	1	0	737	1	4	0	24	27	0	2	93
random	1	1	30	48057	5	2	2	1	0	695	1	4	0	16	28	0	2	93
random	1	1	31	49090	2	1	1	2	0	1291	2	4	0	8	29	0	2	94
random	1	1	32	50749	3	3	3	1	0	1357	1	4	0	24	30	0	2	94
random	1	1	33	52765	6	4	4	1	0	703	1	4	0	32	31	0	2	94
random	1	1	34	54184	4	2	2	1	0	723	1	4	0	16	32	0	2	94
random	1	1	35	55731	3	4	4	1	0	890	1	4	0	32	33	0	2	94
random	1	1	36	57563	1	1	1	1	0	644	1	4	0	8	34	0	2	94
random	1	1	37	59026	3	4	4	1	0	750	1	4	0	32	35	0	2	95
random	1	1	38	60101	5	3	3	1	0	944	1	4	0	24	36	0	2	95
random	1	1	39	61904	6	1	1	1	0	780	1	4	0	8	37	0	2	95
random	1	1	40	63409	1	2	2	1	0	700	1	4	0	16	38	0	2	95
random	1	1	41	64499	2	3	3	1	0	742	1	4	0	24	39	0	2	95
random	1	1	42	65939	4	4	4	1	0	642	1	4	0	32	40	0	2	95
random	1	1	43	66919	1	2	2	1	0	1000	1	4	0	16	41	0	2	95
random	1	1	44	68799	6	3	3	1	0	792	1	4	0	24	42	0	2	95
random	1	1	45	70228	3	1	1	1	0	636	1	4	0	8	43	0	2	96
random	1	1	46	71572	4	4	4	1	0	666	1	4	0	32	44	0	2	96
random	1	1	47	72817	2	2	2	1	0	718	1	4	0	16	45	0	2	96
random	1	1	48	73979	5	1	1	1	0	804	1	4	0	8	46	0	2	96
random	1	1	49	75985	2	3	3	1	0	807	1	4	0	24	47	0	2	96
random	1	1	50	77324	3	1	1	1	0	671	1	4	0	8	48	0	2	96
random	1	1	51	78474	1	4	4	1	0	710	1	4	0	32	49	0	2	96
random	1	1	52	79878	5	3	3	1	0	779	1	4	0	24	50	0	2	96
random	1	1	53	80951	3	2	2	1	0	757	1	4	0	16	51	0	2	96
random	1	1	54	82050	6	4	4	1	0	639	1	4	0	32	52	0	2	96
random	1	1	55	83631	4	2	2	1	0	748	1	4	0	16	53	0	2	96
random	1	1	56	84741	1	1	1	1	0	813	1	4	0	8	54	0	2	96
random	1	1	57	85974	5	4	4	1	0	648	1	4	0	32	55	0	2	96
random	1	1	58	87489	2	1	1	1	0	625	1	4	0	8	56	0	2	97
random	1	1	59	88886	6	2	2	1	0	789	1	4	0	16	57	0	2	97
random	1	1	60	90067	4	3	3	1	0	659	1	4	0	24	58	0	2	97
random	1	1	61	91673	1	2	2	1	0	807	1	4	0	16	59	0	2	97
random	1	1	62	92938	6	4	4	1	0	634	1	4	0	32	60	0	2	97
random	1	1	63	94137	4	1	1	1	0	511	1	4	0	8	61	0	2	97
random	1	1	64	95393	2	2	2	1	0	682	1	4	0	16	62	0	2	97
random	1	1	65	96692	4	3	3	2	0	1243	2	4	0	24	63	0	2	97
random	1	1	66	98655	3	1	1	1	0	927	1	4	0	8	64	0	2	97
random	1	1	67	99934	1	3	3	1	0	801	1	4	0	24	65	0	2	97
random	1	1	68	101694	5	4	4	1	0	479	1	4	0	32	66	0	2	97
random	1	1	69	102759	2	2	2	1	0	778	1	4	0	16	67	0	2	97
random	1	1	70	104431	3	1	1	1	0	603	1	4	0	8	68	0	2	97
random	1	1	71	105925	5	4	4	1	0	611	1	4	0	32	69	0	2	97
random	1	1	72	107314	6	3	3	1	0	761	1	4	0	24	70	0	2	97
random	1	1	73	108698	2	1	1	1	0	726	1	4	0	8	71	0	2	97
random	1	1	74	109901	5	3	3	1	0	651	1	4	0	24	72	0	2	97
random	1	1	75	111040	1	4	4	1	0	555	1	4	0	32	73	0	2	97
random	1	1	76	112051	6	2	2	1	0	744	1	4	0	16	74	0	2	97
random	1	1	77	113472	2	1	1	1	0	764	1	4	0	8	75	0	2	97
random	1	1	78	114876	4	4	4	1	0	665	1	4	0	32	76	0	2	97
random	1	1	79	116133	3	2	2	1	0	795	1	4	0	16	77	0	2	97
random	1	1	80	117478	4	3	3	1	0	658	1	4	0	24	78	0	2	98
random	1	1	81	119155	1	4	4	1	0	819	1	4	0	32	79	0	2	98
random	1	1	82	120739	5	1	1	1	0	464	1	4	0	8	80	0	2	98
random	1	1	83	121827	3	2	2	1	0	690	1	4	0	16	81	0	2	98
random	1	1	84	122960	6	3	3	1	0	842	1	4	0	24	82	0	2	98
random	1	1	85	124654	3	2	2	2	0	1018	2	4	0	16	83	0	2	98
random	1	1	86	126622	1	3	3	1	0	951	1	4	0	24	84	0	2	98
random	1	1	87	128093	4	4	4	1	0	800	1	4	0	32	85	0	2	98
random	1	1	88	129735	2	1	1	1	0	523	1	4	0	8	86	0	2	98
random	1	1	89	130740	6	4	4	1	0	705	1	4	0	32	87	0	2	98
random	1	1	90	132087	3	3	3	1	0	775	1	4	0	24	88	0	2	98
random	1	1	91	133389	5	4	4	1	0	905	1	4	0	32	89	0	2	98
random	1	1	92	134581	1	2	2	1	0	798	1	4	0	16	90	0	2	98
random	1	1	93	136101	5	1	1	1	0	789	1	4	0	8	91	0	2	98
random	1	1	94	137813	4	3	3	1	0	749	1	4	0	24	92	0	2	98
random	1	1	95	139358	6	1	1	1	0	875	1	4	0	8	93	0	2	98
random	1	1	96	140635	2	2	2	1	0	934	1	4	0	16	94	0	2	98
random	1	1	97	142782	4	3	3	1	0	890	1	4	0	24	95	0	2	98
random	1	1	98	144255	3	2	2	1	0	692	1	4	0	16	96	0	2	98
random	1	1	99	145916	6	3	3	1	0	726	1	4	0	24	97	0	2	98
random	1	1	100	147641	1	4	4	1	0	724	1	4	0	32	98	0	2	98
random	1	1	101	148797	4	1	1	1	0	731	1	4	0	8	99	0	2	98
random	1	1	102	150134	5	2	2	1	0	843	1	4	0	16	100	0	2	98
random	1	1	103	152010	2	4	4	1	0	612	1	4	0	32	101	0	2	98
random	1	1	104	153349	3	1	1	1	0	715	1	4	0	8	102	0	2	98
random	1	1	105	154593	1	3	3	1	0	726	1	4	0	24	103	0	2	98
random	1	1	106	156286	2	2	2	1	0	735	1	4	0	16	104	0	2	98
random	1	1	107	157639	5	4	4	1	0	565	1	4	0	32	105	0	2	98
random	1	1	108	158887	6	1	1	1	0	520	1	4	0	8	106	0	2	98
random	1	1	109	160208	5	4	4	1	0	840	1	4	0	32	107	0	2	98
random	1	1	110	161950	6	3	3	1	0	735	1	4	0	24	108	0	2	98
random	1	1	111	163535	2	2	2	1	0	579	1	4	0	16	109	0	2	98
random	1	1	112	164747	3	1	1	1	0	800	1	4	0	8	110	0	2	98
random	1	1	113	166266	1	2	2	1	0	776	1	4	0	16	111	0	2	98
random	1	1	114	167598	2	3	3	1	0	719	1	4	0	24	112	0	2	98
random	1	1	115	168995	3	1	1	1	0	844	1	4	0	8	113	0	2	98
random	1	1	116	170267	4	4	4	1	0	734	1	4	0	32	114	0	2	98
random	1	1	117	171794	6	1	1	1	0	870	1	4	0	8	115	0	2	98
random	1	1	118	173696	5	3	3	1	0	677	1	4	0	24	116	0	2	98
random	1	1	119	174801	1	4	4	1	0	582	1	4	0	32	117	0	2	98
random	1	1	120	176312	4	2	2	1	0	630	1	4	0	16	118	0	2	98
fixed	2	1	1	178167	4	1	1	1	0	712	1	4	0	40	1	0	0	100
fixed	2	1	2	179246	1	2	2	1	0	762	1	4	0	48	2	0	0	100
fixed	2	1	3	180646	6	4	4	1	0	511	1	4	0	64	3	0	0	100
fixed	2	1	4	181810	2	1	1	1	0	645	1	4	0	40	4	0	0	100
fixed	2	1	5	183078	5	3	3	1	0	648	1	4	0	56	5	0	0	100
fixed	2	1	6	184535	6	4	4	1	0	658	1	4	0	64	6	0	0	100
fixed	2	1	7	186150	3	1	1	1	0	550	1	4	0	40	7	0	0	100
fixed	2	1	8	187164	2	3	3	1	0	747	1	4	0	56	8	0	0	100
fixed	2	1	9	188608	3	2	2	1	0	621	1	4	0	48	9	0	0	100
fixed	2	1	10	189563	1	4	4	1	0	677	1	4	0	64	10	0	0	100
fixed	2	1	11	190920	5	2	2	1	0	596	1	4	0	48	11	0	0	100
fixed	2	1	12	191957	4	3	3	1	0	576	1	4	0	56	12	0	0	100
fixed	2	2	1	193139	4	1	1	1	0	501	1	4	0	40	13	0	0	100
fixed	2	2	2	194505	1	2	2	1	0	1100	1	4	0	48	14	0	0	100
fixed	2	2	3	196561	6	4	4	1	0	413	1	4	0	64	15	0	0	100
fixed	2	2	4	197983	2	1	1	1	0	752	1	4	0	40	16	0	0	100
fixed	2	2	5	199397	5	3	3	1	0	845	1	4	0	56	17	0	0	100
fixed	2	2	6	200665	6	4	4	1	0	599	1	4	0	64	18	0	0	100
fixed	2	2	7	201554	3	1	1	1	0	553	1	4	0	40	19	0	0	100
fixed	2	2	8	202833	2	3	3	1	0	747	1	4	0	56	20	0	0	100
fixed	2	2	9	204581	3	2	2	1	0	553	1	4	0	48	21	0	0	100
fixed	2	2	10	205495	1	4	4	1	0	570	1	4	0	64	22	0	0	100
fixed	2	2	11	206556	5	2	2	1	0	757	1	4	0	48	23	0	0	100
fixed	2	2	12	208287	4	3	3	1	0	683	1	4	0	56	24	0	0	100
fixed	2	3	1	210080	4	1	1	1	0	536	1	4	0	40	25	0	0	100
fixed	2	3	2	211472	1	2	2	1	0	1061	1	4	0	48	26	0	0	100
fixed	2	3	3	213272	6	4	4	1	0	409	1	4	0	64	27	0	0	100
fixed	2	3	4	214119	2	1	1	1	0	797	1	4	0	40	28	0	0	100
fixed	2	3	5	215863	5	3	3	1	0	715	1	4	0	56	29	0	0	100
fixed	2	3	6	217610	6	4	4	1	0	553	1	4	0	64	30	0	0	100
fixed	2	3	7	219162	3	1	1	1	0	640	1	4	0	40	31	0	0	100
fixed	2	3	8	220383	2	3	3	1	0	828	1	4	0	56	32	0	0	100
fixed	2	3	9	221842	3	2	2	1	0	574	1	4	0	48	33	0	0	100
fixed	2	3	10	222725	1	4	4	1	0	576	1	4	0	64	34	0	0	100
fixed	2	3	11	224315	5	2	2	1	0	781	1	4	0	48	35	0	0	100
fixed	2	3	12	225589	4	3	3	1	0	655	1	4	0	56	36	0	0	100
fixed	2	4	1	227055	4	1	1	1	0	529	1	4	0	40	37	0	0	100
fixed	2	4	2	228503	1	2	2	1	0	716	1	4	0	48	38	0	0	100
fixed	2	4	3	229773	6	4	4	1	0	526	1	4	0	64	39	0	0	100
fixed	2	4	4	231123	2	1	1	1	0	565	1	4	0	40	40	0	0	100
fixed	2	4	5	232114	5	3	3	1	0	1235	1	4	0	56	41	0	0	100
fixed	2	4	6	233843	6	4	4	1	0	626	1	4	0	64	42	0	0	100
fixed	2	4	7	234846	3	1	1	1	0	439	1	4	0	40	43	0	0	100
fixed	2	4	8	236094	2	3	3	1	0	802	1	4	0	56	44	0	0	100
fixed	2	4	9	237345	3	2	2	1	0	877	1	4	0	48	45	0	0	100
fixed	2	4	10	239143	1	4	4	1	0	569	1	4	0	64	46	0	0	100
fixed	2	4	11	240077	5	2	2	1	0	1274	1	4	0	48	47	0	0	100
fixed	2	4	12	242059	4	3	3	1	0	789	1	4	0	56	48	0	0	100
fixed	2	5	1	243663	4	1	1	1	0	482	1	4	0	40	49	0	0	100
fixed	2	5	2	244588	1	2	2	2	0	1690	2	4	0	48	50	0	0	100
fixed	2	5	3	246797	6	4	4	1	0	565	1	4	0	64	51	0	0	100
fixed	2	5	4	248313	2	1	1	1	0	637	1	4	0	40	52	0	0	100
fixed	2	5	5	249620	5	3	3	1	0	598	1	4	0	56	53	0	0	100
fixed	2	5	6	250951	6	4	4	1	0	877	1	4	0	64	54	0	0	100
fixed	2	5	7	252817	3	1	1	1	0	566	1	4	0	40	55	0	0	100
fixed	2	5	8	253958	2	3	3	1	0	702	1	4	0	56	56	0	0	100
fixed	2	5	9	255275	3	2	2	1	0	542	1	4	0	48	57	0	0	100
fixed	2	5	10	256201	1	4	4	1	0	463	1	4	0	64	58	0	0	100
fixed	2	5	11	256991	5	2	2	1	0	765	1	4	0	48	59	0	0	100
fixed	2	5	12	258482	4	3	3	1	0	662	1	4	0	56	60	0	0	100
fixed	2	6	1	260354	4	1	1	1	0	551	1	4	0	40	61	0	0	100
fixed	2	6	2	261639	1	2	2	1	0	744	1	4	0	48	62	0	0	100
fixed	2	6	3	263401	6	4	4	1	0	534	1	4	0	64	63	0	0	100
fixed	2	6	4	264338	2	1	1	1	0	710	1	4	0	40	64	0	0	100
fixed	2	6	5	265554	5	3	3	1	0	602	1	4	0	56	65	0	0	100
fixed	2	6	6	266527	6	4	4	1	0	737	1	4	0	64	66	0	0	100
fixed	2	6	7	267727	3	1	1	1	0	654	1	4	0	40	67	0	0	100
fixed	2	6	8	269223	2	3	3	1	0	791	1	4	0	56	68	0	0	100
fixed	2	6	9	270881	3	2	2	1	0	473	1	4	0	48	69	0	0	100
fixed	2	6	10	271675	1	4	4	1	0	527	1	4	0	64	70	0	0	100
fixed	2	6	11	272972	5	2	2	1	0	704	1	4	0	48	71	0	0	100
fixed	2	6	12	274031	4	3	3	1	0	684	1	4	0	56	72	0	0	100
fixed	2	7	1	275909	4	1	1	1	0	468	1	4	0	40	73	0	0	100
fixed	2	7	2	277308	1	2	2	1	0	721	1	4	0	48	74	0	0	100
fixed	2	7	3	278963	6	4	4	1	0	379	1	4	0	64	75	0	0	100
fixed	2	7	4	279927	2	1	1	1	0	562	1	4	0	40	76	0	0	100
fixed	2	7	5	281108	5	3	3	1	0	688	1	4	0	56	77	0	0	100
fixed	2	7	6	282458	6	4	4	1	0	670	1	4	0	64	78	0	0	100
fixed	2	7	7	283513	3	1	1	1	0	698	1	4	0	40	79	0	0	100
fixed	2	7	8	285220	2	3	3	2	0	1042	2	4	0	56	80	0	0	100
fixed	2	7	9	286686	3	2	2	1	0	787	1	4	0	48	81	0	0	100
fixed	2	7	10	288010	1	4	4	1	0	731	1	4	0	64	82	0	0	100
fixed	2	7	11	289332	5	2	2	1	0	1171	1	4	0	48	83	0	0	100
fixed	2	7	12	290910	4	3	3	1	0	752	1	4	0	56	84	0	0	100
fixed	2	8	1	292533	4	1	1	1	0	644	1	4	0	40	85	0	0	100
fixed	2	8	2	294080	1	2	2	1	0	706	1	4	0	48	86	0	0	100
fixed	2	8	3	295308	6	4	4	1	0	478	1	4	0	64	87	0	0	100
fixed	2	8	4	296131	2	1	1	1	0	819	1	4	0	40	88	0	0	100
fixed	2	8	5	297812	5	3	3	1	0	604	1	4	0	56	89	0	0	100
fixed	2	8	6	298739	6	4	4	1	0	621	1	4	0	64	90	0	0	100
fixed	2	8	7	300332	3	1	1	1	0	490	1	4	0	40	91	0	0	100
fixed	2	8	8	301675	2	3	3	1	0	697	1	4	0	56	92	0	0	100
fixed	2	8	9	303189	3	2	2	1	0	617	1	4	0	48	93	0	0	100
fixed	2	8	10	304273	1	4	4	1	0	571	1	4	0	64	94	0	0	100
fixed	2	8	11	305148	5	2	2	1	0	789	1	4	0	48	95	0	0	100
fixed	2	8	12	306461	4	3	3	1	0	710	1	4	0	56	96	0	0	100
fixed	2	9	1	308104	4	1	1	1	0	624	1	4	0	40	97	0	0	100
fixed	2	9	2	309682	1	2	2	1	0	758	1	4	0	48	98	0	0	100
fixed	2	9	3	311113	6	4	4	1	0	457	1	4	0	64	99	0	0	100
fixed	2	9	4	312138	2	1	1	1	0	742	1	4	0	40	100	0	0	100
fixed	2	9	5	313519	5	3	3	1	0	651	1	4	0	56	101	0	0	100
fixed	2	9	6	315082	6	4	4	1	0	633	1	4	0	64	102	0	0	100
fixed	2	9	7	316635	3	1	1	1	0	591	1	4	0	40	103	0	0	100
fixed	2	9	8	317827	2	3	3	1	0	748	1	4	0	56	104	0	0	100
fixed	2	9	9	319493	3	2	2	1	0	534	1	4	0	48	105	0	0	100
fixed	2	9	10	321049	1	4	4	1	0	444	1	4	0	64	106	0	0	100
fixed	2	9	11	322352	5	2	2	1	0	1277	1	4	0	48	107	0	0	100
fixed	2	9	12	324489	4	3	3	1	0	659	1	4	0	56	108	0	0	100
fixed	2	10	1	325898	4	1	1	1	0	542	1	4	0	40	109	0	0	100
fixed	2	10	2	327367	1	2	2	1	0	680	1	4	0	48	110	0	0	100
fixed	2	10	3	328553	6	4	4	1	0	614	1	4	0	64	111	0	0	100
fixed	2	10	4	330081	2	1	1	1	0	558	1	4	0	40	112	0	0	100
fixed	2	10	5	331172	5	3	3	1	0	696	1	4	0	56	113	0	0	100
fixed	2	10	6	332436	6	4	4	1	0	586	1	4	0	64	114	0	0	100
fixed	2	10	7	334040	3	1	1	1	0	598	1	4	0	40	115	0	0	100
fixed	2	10	8	335296	2	3	3	1	0	729	1	4	0	56	116	0	0	100
fixed	2	10	9	336982	3	2	2	1	0	473	1	4	0	48	117	0	0	100
fixed	2	10	10	337926	1	4	4	1	0	497	1	4	0	64	118	0	0	100
fixed	2	10	11	339385	5	2	2	1	0	771	1	4	0	48	119	0	0	100
fixed	2	10	12	340927	4	3	3	1	0	802	1	4	0	56	120	0	0	100
fixed	3	1	1	342553	4	1	1	1	0	605	1	4	0	72	1	0	0	100
fixed	3	1	2	344207	1	2	2	1	0	863	1	4	0	80	2	0	0	100
fixed	3	1	3	345836	6	4	4	1	0	586	1	4	0	96	3	0	0	100
fixed	3	1	4	346717	2	1	1	1	0	717	1	4	0	72	4	0	0	100
fixed	3	1	5	348164	5	3	3	1	0	584	1	4	0	88	5	0	0	100
fixed	3	1	6	349385	6	4	4	1	0	572	1	4	0	96	6	0	0	100
fixed	3	1	7	350251	3	1	1	1	0	599	1	4	0	72	7	0	0	100
fixed	3	1	8	351634	2	3	3	1	0	837	1	4	0	88	8	0	0	100
fixed	3	1	9	353451	3	2	2	1	0	639	1	4	0	80	9	0	0	100
fixed	3	1	10	354491	1	4	4	1	0	548	1	4	0	96	10	0	0	100
fixed	3	1	11	355906	5	2	2	1	0	719	1	4	0	80	11	0	0	100
fixed	3	1	12	357620	4	3	3	1	0	807	1	4	0	88	12	0	0	100
fixed	3	2	1	359280	4	1	1	1	0	529	1	4	0	72	13	0	0	100
fixed	3	2	2	360472	1	2	2	1	0	694	1	4	0	80	14	0	0	100
fixed	3	2	3	361919	6	4	4	1	0	385	1	4	0	96	15	0	0	100
fixed	3	2	4	362720	2	1	1	1	0	583	1	4	0	72	16	0	0	100
fixed	3	2	5	363830	5	3	3	1	0	640	1	4	0	88	17	0	0	100
fixed	3	2	6	365186	6	4	4	1	0	559	1	4	0	96	18	0	0	100
fixed	3	2	7	366056	3	1	1	1	0	738	1	4	0	72	19	0	0	100
fixed	3	2	8	367114	2	3	3	1	0	1085	1	4	0	88	20	0	0	100
fixed	3	2	9	368899	3	2	2	1	0	490	1	4	0	80	21	0	0	100
fixed	3	2	10	369748	1	4	4	1	0	598	1	4	0	96	22	0	0	100
fixed	3	2	11	370627	5	2	2	1	0	736	1	4	0	80	23	0	0	100
fixed	3	2	12	372063	4	3	3	1	0	715	1	4	0	88	24	0	0	100
fixed	3	3	1	373548	4	1	1	1	0	524	1	4	0	72	25	0	0	100
fixed	3	3	2	374626	1	2	2	1	0	759	1	4	0	80	26	0	0	100
fixed	3	3	3	376162	6	4	4	1	0	374	1	4	0	96	27	0	0	100
fixed	3	3	4	377159	2	1	1	1	0	547	1	4	0	72	28	0	0	100
fixed	3	3	5	378526	5	3	3	1	0	673	1	4	0	88	29	0	0	100
fixed	3	3	6	379911	6	4	4	1	0	559	1	4	0	96	30	0	0	100
fixed	3	3	7	381025	3	1	1	1	0	592	1	4	0	72	31	0	0	100
fixed	3	3	8	381929	2	3	3	1	0	706	1	4	0	88	32	0	0	100
fixed	3	3	9	383485	3	2	2	1	0	800	1	4	0	80	33	0	0	100
fixed	3	3	10	384880	1	4	4	1	0	516	1	4	0	96	34	0	0	100
fixed	3	3	11	385909	5	2	2	1	0	505	1	4	0	80	35	0	0	100
fixed	3	3	12	387402	4	3	3	1	0	442	1	4	0	88	36	0	0	100
fixed	3	4	1	388618	4	1	1	1	0	486	1	4	0	72	37	0	0	100
fixed	3	4	2	389914	1	2	2	1	0	703	1	4	0	80	38	0	0	100
fixed	3	4	3	391519	6	4	4	1	0	515	1	4	0	96	39	0	0	100
fixed	3	4	4	392573	2	1	1	1	0	663	1	4	0	72	40	0	0	100
fixed	3	4	5	394054	5	3	3	1	0	752	1	4	0	88	41	0	0	100
fixed	3	4	6	395524	6	4	4	1	0	546	1	4	0	96	42	0	0	100
fixed	3	4	7	396885	3	1	1	1	0	528	1	4	0	72	43	0	0	100
fixed	3	4	8	398393	2	3	3	1	0	672	1	4	0	88	44	0	0	100
fixed	3	4	9	399397	3	2	2	1	0	669	1	4	0	80	45	0	0	100
fixed	3	4	10	400549	1	4	4	1	0	429	1	4	0	96	46	0	0	100
fixed	3	4	11	401445	5	2	2	1	0	815	1	4	0	80	47	0	0	100
fixed	3	4	12	402540	4	3	3	1	0	624	1	4	0	88	48	0	0	100
fixed	3	5	1	403939	4	1	1	1	0	485	1	4	0	72	49	0	0	100
fixed	3	5	2	404956	1	2	2	1	0	787	1	4	0	80	50	0	0	100
fixed	3	5	3	406288	6	4	4	1	0	530	1	4	0	96	51	0	0	100
fixed	3	5	4	407690	2	1	1	1	0	654	1	4	0	72	52	0	0	100
fixed	3	5	5	408922	5	3	3	1	0	738	1	4	0	88	53	0	0	100
fixed	3	5	6	410696	6	4	4	1	0	559	1	4	0	96	54	0	0	100
fixed	3	5	7	411864	3	1	1	1	0	606	1	4	0	72	55	0	0	100
fixed	3	5	8	413260	2	3	3	1	0	626	1	4	0	88	56	0	0	100
fixed	3	5	9	414277	3	2	2	1	0	584	1	4	0	80	57	0	0	100
fixed	3	5	10	415754	1	4	4	1	0	601	1	4	0	96	58	0	0	100
fixed	3	5	11	417151	5	2	2	1	0	566	1	4	0	80	59	0	0	100
fixed	3	5	12	418528	4	3	3	1	0	475	1	4	0	88	60	0	0	100
fixed	3	6	1	419845	4	1	1	1	0	475	1	4	0	72	61	0	0	100
fixed	3	6	2	420785	1	2	2	1	0	996	1	4	0	80	62	0	0	100
fixed	3	6	3	422504	6	4	4	1	0	379	1	4	0	96	63	0	0	100
fixed	3	6	4	423319	2	1	1	1	0	536	1	4	0	72	64	0	0	100
fixed	3	6	5	424715	5	3	3	1	0	797	1	4	0	88	65	0	0	100
fixed	3	6	6	425933	6	4	4	1	0	714	1	4	0	96	66	0	0	100
fixed	3	6	7	427411	3	1	1	1	0	499	1	4	0	72	67	0	0	100
fixed	3	6	8	428421	2	3	3	1	0	688	1	4	0	88	68	0	0	100
fixed	3	6	9	429912	3	2	2	1	0	649	1	4	0	80	69	0	0	100
fixed	3	6	10	430909	1	4	4	1	0	735	1	4	0	96	70	0	0	100
fixed	3	6	11	432236	5	2	2	1	0	687	1	4	0	80	71	0	0	100
fixed	3	6	12	433336	4	3	3	1	0	768	1	4	0	88	72	0	0	100
fixed	3	7	1	435283	4	1	1	1	0	597	1	4	0	72	73	0	0	100
fixed	3	7	2	436782	1	2	2	1	0	718	1	4	0	80	74	0	0	100
fixed	3	7	3	438366	6	4	4	1	0	395	1	4	0	96	75	0	0	100
fixed	3	7	4	439260	2	1	1	1	0	541	1	4	0	72	76	0	0	100
fixed	3	7	5	440225	5	3	3	1	0	709	1	4	0	88	77	0	0	100
fixed	3	7	6	441299	6	4	4	1	0	719	1	4	0	96	78	0	0	100
fixed	3	7	7	442826	3	1	1	1	0	718	1	4	0	72	79	0	0	100
fixed	3	7	8	443840	2	3	3	1	0	827	1	4	0	88	80	0	0	100
fixed	3	7	9	444967	3	2	2	1	0	652	1	4	0	80	81	0	0	100
fixed	3	7	10	445948	1	4	4	1	0	586	1	4	0	96	82	0	0	100
fixed	3	7	11	447435	5	2	2	1	0	619	1	4	0	80	83	0	0	100
fixed	3	7	12	449020	4	3	3	1	0	512	1	4	0	88	84	0	0	100
fixed	3	8	1	450504	4	1	1	1	0	489	1	4	0	72	85	0	0	100
fixed	3	8	2	451826	1	2	2	1	0	633	1	4	0	80	86	0	0	100
fixed	3	8	3	452916	6	4	4	1	0	515	1	4	0	96	87	0	0	100
fixed	3	8	4	453748	2	1	1	1	0	463	1	4	0	72	88	0	0	100
fixed	3	8	5	455200	5	3	3	1	0	1010	1	4	0	88	89	0	0	100
fixed	3	8	6	456517	6	4	4	1	0	714	1	4	0	96	90	0	0	100
fixed	3	8	7	457646	3	1	1	1	0	595	1	4	0	72	91	0	0	100
fixed	3	8	8	458716	2	3	3	1	0	725	1	4	0	88	92	0	0	100
fixed	3	8	9	460088	3	2	2	1	0	731	1	4	0	80	93	0	0	100
fixed	3	8	10	461592	1	4	4	1	0	508	1	4	0	96	94	0	0	100
fixed	3	8	11	462531	5	2	2	1	0	827	1	4	0	80	95	0	0	100
fixed	3	8	12	464080	4	3	3	1	0	522	1	4	0	88	96	0	0	100
fixed	3	9	1	465540	4	1	1	1	0	380	1	4	0	72	97	0	0	100
fixed	3	9	2	466243	1	2	2	1	0	1062	1	4	0	80	98	0	0	100
fixed	3	9	3	468286	6	4	4	1	0	392	1	4	0	96	99	0	0	100
fixed	3	9	4	469627	2	1	1	1	0	519	1	4	0	72	100	0	0	100
fixed	3	9	5	470982	5	3	3	1	0	646	1	4	0	88	101	0	0	100
fixed	3	9	6	471973	6	4	4	1	0	667	1	4	0	96	102	0	0	100
fixed	3	9	7	473098	3	1	1	1	0	556	1	4	0	72	103	0	0	100
fixed	3	9	8	473992	2	3	3	1	0	990	1	4	0	88	104	0	0	100
fixed	3	9	9	475317	3	2	2	1	0	678	1	4	0	80	105	0	0	100
fixed	3	9	10	476677	1	4	4	1	0	501	1	4	0	96	106	0	0	100
fixed	3	9	11	478204	5	2	2	1	0	635	1	4	0	80	107	0	0	100
fixed	3	9	12	479412	4	3	3	1	0	840	1	4	0	88	108	0	0	100
fixed	3	10	1	481145	4	1	1	1	0	535	1	4	0	72	109	0	0	100
fixed	3	10	2	482484	1	2	2	1	0	670	1	4	0	80	110	0	0	100
fixed	3	10	3	483645	6	4	4	1	0	461	1	4	0	96	111	0	0	100
fixed	3	10	4	484600	2	1	1	1	0	749	1	4	0	72	112	0	0	100
fixed	3	10	5	486346	5	3	3	1	0	563	1	4	0	88	113	0	0	100
fixed	3	10	6	487385	6	4	4	1	0	543	1	4	0	96	114	0	0	100
fixed	3	10	7	488343	3	1	1	1	0	775	1	4	0	72	115	0	0	100
fixed	3	10	8	489880	2	3	3	1	0	621	1	4	0	88	116	0	0	100
fixed	3	10	9	490974	3	2	2	1	0	551	1	4	0	80	117	0	0	100
fixed	3	10	10	492150	1	4	4	1	0	437	1	4	0	96	118	0	0	100
fixed	3	10	11	493363	5	2	2	1	0	650	1	4	0	80	119	0	0	100
fixed	3	10	12	494352	4	3	3	1	0	576	1	4	0	88	120	0	0	100
fixed	4	1	1	607286	4	1	1	1	0	704	1	4	0	104	1	0	0	100
fixed	4	1	2	608322	1	2	2	1	0	1204	1	4	0	112	2	0	0	100
fixed	4	1	3	610427	6	4	4	1	0	563	1	4	0	128	3	0	0	100
fixed	4	1	4	612008	2	1	1	1	0	689	1	4	0	104	4	0	0	100
fixed	4	1	5	613402	5	3	3	1	0	829	1	4	0	120	5	0	0	100
fixed	4	1	6	614934	6	4	4	1	0	557	1	4	0	128	6	0	0	100
fixed	4	1	7	615983	3	1	1	1	0	584	1	4	0	104	7	0	0	100
fixed	4	1	8	616907	2	3	3	1	0	769	1	4	0	120	8	0	0	100
fixed	4	1	9	618255	3	2	2	1	0	512	1	4	0	112	9	0	0	100
fixed	4	1	10	619565	1	4	4	1	0	465	1	4	0	128	10	0	0	100
fixed	4	1	11	620939	5	2	2	1	0	630	1	4	0	112	11	0	0	100
fixed	4	1	12	622596	4	3	3	1	0	824	1	4	0	120	12	0	0	100
fixed	4	2	1	624531	4	1	1	1	0	526	1	4	0	104	13	0	0	100
fixed	4	2	2	625861	1	2	2	1	0	686	1	4	0	112	14	0	0	100
fixed	4	2	3	627457	6	4	4	1	0	578	1	4	0	128	15	0	0	100
fixed	4	2	4	628957	2	1	1	2	0	706	2	4	0	104	16	0	0	100
fixed	4	2	5	629997	5	3	3	1	0	822	1	4	0	120	17	0	0	100
fixed	4	2	6	631390	6	4	4	1	0	676	1	4	0	128	18	0	0	100
fixed	4	2	7	632976	3	1	1	1	0	624	1	4	0	104	19	0	0	100
fixed	4	2	8	634024	2	3	3	1	0	708	1	4	0	120	20	0	0	100
fixed	4	2	9	635132	3	2	2	1	0	549	1	4	0	112	21	0	0	100
fixed	4	2	10	635971	1	4	4	1	0	554	1	4	0	128	22	0	0	100
fixed	4	2	11	636835	5	2	2	1	0	693	1	4	0	112	23	0	0	100
fixed	4	2	12	638319	4	3	3	1	0	726	1	4	0	120	24	0	0	100
fixed	4	3	1	640052	4	1	1	1	0	580	1	4	0	104	25	0	0	100
fixed	4	3	2	641195	1	2	2	1	0	804	1	4	0	112	26	0	0	100
fixed	4	3	3	642389	6	4	4	1	0	545	1	4	0	128	27	0	0	100
fixed	4	3	4	643703	2	1	1	1	0	434	1	4	0	104	28	0	0	100
fixed	4	3	5	644737	5	3	3	1	0	678	1	4	0	120	29	0	0	100
fixed	4	3	6	646140	6	4	4	1	0	619	1	4	0	128	30	0	0	100
fixed	4	3	7	647094	3	1	1	1	0	546	1	4	0	104	31	0	0	100
fixed	4	3	8	648109	2	3	3	1	0	879	1	4	0	120	32	0	0	100
fixed	4	3	9	649347	3	2	2	1	0	619	1	4	0	112	33	0	0	100
fixed	4	3	10	650945	1	4	4	1	0	423	1	4	0	128	34	0	0	100
fixed	4	3	11	651875	5	2	2	1	0	672	1	4	0	112	35	0	0	100
fixed	4	3	12	653287	4	3	3	1	0	740	1	4	0	120	36	0	0	100
fixed	4	4	1	655072	4	1	1	1	0	528	1	4	0	104	37	0	0	100
fixed	4	4	2	656627	1	2	2	1	0	726	1	4	0	112	38	0	0	100
fixed	4	4	3	658122	6	4	4	1	0	447	1	4	0	128	39	0	0	100
fixed	4	4	4	659548	2	1	1	1	0	667	1	4	0	104	40	0	0	100
fixed	4	4	5	660674	5	3	3	1	0	707	1	4	0	120	41	0	0	100
fixed	4	4	6	662060	6	4	4	1	0	608	1	4	0	128	42	0	0	100
fixed	4	4	7	663378	3	1	1	1	0	432	1	4	0	104	43	0	0	100
fixed	4	4	8	664273	2	3	3	1	0	731	1	4	0	120	44	0	0	100
fixed	4	4	9	665770	3	2	2	1	0	523	1	4	0	112	45	0	0	100
fixed	4	4	10	667035	1	4	4	1	0	350	1	4	0	128	46	0	0	100
fixed	4	4	11	667852	5	2	2	1	0	603	1	4	0	112	47	0	0	100
fixed	4	4	12	668938	4	3	3	1	0	605	1	4	0	120	48	0	0	100
fixed	4	5	1	670493	4	1	1	1	0	499	1	4	0	104	49	0	0	100
fixed	4	5	2	671753	1	2	2	1	0	670	1	4	0	112	50	0	0	100
fixed	4	5	3	672760	6	4	4	1	0	563	1	4	0	128	51	0	0	100
fixed	4	5	4	674102	2	1	1	1	0	490	1	4	0	104	52	0	0	100
fixed	4	5	5	675089	5	3	3	1	0	624	1	4	0	120	53	0	0	100
fixed	4	5	6	676755	6	4	4	1	0	538	1	4	0	128	54	0	0	100
fixed	4	5	7	677663	3	1	1	1	0	539	1	4	0	104	55	0	0	100
fixed	4	5	8	678549	2	3	3	1	0	678	1	4	0	120	56	0	0	100
fixed	4	5	9	679611	3	2	2	1	0	569	1	4	0	112	57	0	0	100
fixed	4	5	10	681026	1	4	4	1	0	341	1	4	0	128	58	0	0	100
fixed	4	5	11	681738	5	2	2	1	0	639	1	4	0	112	59	0	0	100
fixed	4	5	12	682739	4	3	3	1	0	588	1	4	0	120	60	0	0	100
fixed	4	6	1	684629	4	1	1	1	0	548	1	4	0	104	61	0	0	100
fixed	4	6	2	685769	1	2	2	1	0	804	1	4	0	112	62	0	0	100
fixed	4	6	3	687512	6	4	4	1	0	491	1	4	0	128	63	0	0	100
fixed	4	6	4	688521	2	1	1	1	0	719	1	4	0	104	64	0	0	100
fixed	4	6	5	690007	5	3	3	1	0	800	1	4	0	120	65	0	0	100
fixed	4	6	6	691284	6	4	4	1	0	611	1	4	0	128	66	0	0	100
fixed	4	6	7	692776	3	1	1	1	0	668	1	4	0	104	67	0	0	100
fixed	4	6	8	694320	2	3	3	1	0	738	1	4	0	120	68	0	0	100
fixed	4	6	9	695698	3	2	2	1	0	456	1	4	0	112	69	0	0	100
fixed	4	6	10	696984	1	4	4	1	0	441	1	4	0	128	70	0	0	100
fixed	4	6	11	697818	5	2	2	1	0	662	1	4	0	112	71	0	0	100
fixed	4	6	12	698771	4	3	3	1	0	534	1	4	0	120	72	0	0	100
fixed	4	7	1	700083	4	1	1	1	0	550	1	4	0	104	73	0	0	100
fixed	4	7	2	701316	1	2	2	1	0	770	1	4	0	112	74	0	0	100
fixed	4	7	3	702797	6	4	4	1	0	683	1	4	0	128	75	0	0	100
fixed	4	7	4	703776	2	1	1	1	0	753	1	4	0	104	76	0	0	100
fixed	4	7	5	705248	5	3	3	1	0	699	1	4	0	120	77	0	0	100
fixed	4	7	6	706438	6	4	4	1	0	633	1	4	0	128	78	0	0	100
fixed	4	7	7	707735	3	1	1	1	0	538	1	4	0	104	79	0	0	100
fixed	4	7	8	708911	2	3	3	1	0	976	1	4	0	120	80	0	0	100
fixed	4	7	9	710583	3	2	2	1	0	537	1	4	0	112	81	0	0	100
fixed	4	7	10	711693	1	4	4	1	0	562	1	4	0	128	82	0	0	100
fixed	4	7	11	713069	5	2	2	1	0	584	1	4	0	112	83	0	0	100
fixed	4	7	12	714342	4	3	3	1	0	970	1	4	0	120	84	0	0	100
fixed	4	8	1	716022	4	1	1	1	0	603	1	4	0	104	85	0	0	100
fixed	4	8	2	717637	1	2	2	1	0	695	1	4	0	112	86	0	0	100
fixed	4	8	3	719084	6	4	4	1	0	465	1	4	0	128	87	0	0	100
fixed	4	8	4	720200	2	1	1	1	0	506	1	4	0	104	88	0	0	100
fixed	4	8	5	721285	5	3	3	1	0	652	1	4	0	120	89	0	0	100
fixed	4	8	6	722847	6	4	4	1	0	562	1	4	0	128	90	0	0	100
fixed	4	8	7	724215	3	1	1	1	0	664	1	4	0	104	91	0	0	100
fixed	4	8	8	725481	2	3	3	1	0	858	1	4	0	120	92	0	0	100
fixed	4	8	9	726744	3	2	2	1	0	669	1	4	0	112	93	0	0	100
fixed	4	8	10	728011	1	4	4	1	0	415	1	4	0	128	94	0	0	100
fixed	4	8	11	729143	5	2	2	2	0	1303	2	4	0	112	95	0	0	100
fixed	4	8	12	731385	4	3	3	1	0	672	1	4	0	120	96	0	0	100
fixed	4	9	1	733347	4	1	1	1	0	565	1	4	0	104	97	0	0	100
fixed	4	9	2	734521	1	2	2	1	0	691	1	4	0	112	98	0	0	100
fixed	4	9	3	735856	6	4	4	1	0	435	1	4	0	128	99	0	0	100
fixed	4	9	4	736618	2	1	1	1	0	675	1	4	0	104	100	0	0	100
fixed	4	9	5	738141	5	3	3	1	0	658	1	4	0	120	101	0	0	100
fixed	4	9	6	739150	6	4	4	1	0	607	1	4	0	128	102	0	0	100
fixed	4	9	7	740122	3	1	1	1	0	518	1	4	0	104	103	0	0	100
fixed	4	9	8	740993	2	3	3	1	0	721	1	4	0	120	104	0	0	100
fixed	4	9	9	742547	3	2	2	1	0	424	1	4	0	112	105	0	0	100
fixed	4	9	10	743557	1	4	4	1	0	660	1	4	0	128	106	0	0	100
fixed	4	9	11	744824	5	2	2	1	0	863	1	4	0	112	107	0	0	100
fixed	4	9	12	746070	4	3	3	1	0	818	1	4	0	120	108	0	0	100
fixed	4	10	1	747649	4	1	1	1	0	407	1	4	0	104	109	0	0	100
fixed	4	10	2	748388	1	2	2	1	0	712	1	4	0	112	110	0	0	100
fixed	4	10	3	749914	6	4	4	1	0	312	1	4	0	128	111	0	0	100
fixed	4	10	4	750757	2	1	1	1	0	587	1	4	0	104	112	0	0	100
fixed	4	10	5	751810	5	3	3	1	0	687	1	4	0	120	113	0	0	100
fixed	4	10	6	753428	6	4	4	1	0	738	1	4	0	128	114	0	0	100
fixed	4	10	7	754994	3	1	1	1	0	616	1	4	0	104	115	0	0	100
fixed	4	10	8	756517	2	3	3	1	0	720	1	4	0	120	116	0	0	100
fixed	4	10	9	757658	3	2	2	1	0	551	1	4	0	112	117	0	0	100
fixed	4	10	10	758554	1	4	4	1	0	562	1	4	0	128	118	0	0	100
fixed	4	10	11	759710	5	2	2	1	0	768	1	4	0	112	119	0	0	100
fixed	4	10	12	761337	4	3	3	1	0	844	1	4	0	120	120	0	0	100
fixed	5	1	1	763453	4	1	1	1	0	546	1	4	0	136	1	0	0	100
fixed	5	1	2	765034	1	2	2	1	0	823	1	4	0	144	2	0	0	100
fixed	5	1	3	766400	6	4	4	1	0	637	1	4	0	160	3	0	0	100
fixed	5	1	4	767969	2	1	1	1	0	827	1	4	0	136	4	0	0	100
fixed	5	1	5	769091	5	3	3	1	0	755	1	4	0	152	5	0	0	100
fixed	5	1	6	770604	6	4	4	1	0	579	1	4	0	160	6	0	0	100
fixed	5	1	7	772121	3	1	1	1	0	587	1	4	0	136	7	0	0	100
fixed	5	1	8	773505	2	3	3	1	0	712	1	4	0	152	8	0	0	100
fixed	5	1	9	774609	3	2	2	1	0	618	1	4	0	144	9	0	0	100
fixed	5	1	10	776090	1	4	4	1	0	635	1	4	0	160	10	0	0	100
fixed	5	1	11	777383	5	2	2	1	0	788	1	4	0	144	11	0	0	100
fixed	5	1	12	778624	4	3	3	1	0	599	1	4	0	152	12	0	0	100
fixed	5	2	1	780095	4	1	1	1	0	497	1	4	0	136	13	0	0	100
fixed	5	2	2	781422	1	2	2	1	0	993	1	4	0	144	14	0	0	100
fixed	5	2	3	782917	6	4	4	1	0	601	1	4	0	160	15	0	0	100
fixed	5	2	4	784413	2	1	1	1	0	770	1	4	0	136	16	0	0	100
fixed	5	2	5	786075	5	3	3	1	0	643	1	4	0	152	17	0	0	100
fixed	5	2	6	787248	6	4	4	1	0	578	1	4	0	160	18	0	0	100
fixed	5	2	7	788464	3	1	1	1	0	638	1	4	0	136	19	0	0	100
fixed	5	2	8	789582	2	3	3	1	0	776	1	4	0	152	20	0	0	100
fixed	5	2	9	790954	3	2	2	1	0	477	1	4	0	144	21	0	0	100
fixed	5	2	10	792359	1	4	4	1	0	345	1	4	0	160	22	0	0	100
fixed	5	2	11	793111	5	2	2	1	0	634	1	4	0	144	23	0	0	100
fixed	5	2	12	794338	4	3	3	1	0	422	1	4	0	152	24	0	0	100
fixed	5	3	1	795416	4	1	1	1	0	456	1	4	0	136	25	0	0	100
fixed	5	3	2	796888	1	2	2	1	0	746	1	4	0	144	26	0	0	100
fixed	5	3	3	798478	6	4	4	1	0	262	1	4	0	160	27	0	0	100
fixed	5	3	4	799461	2	1	1	1	0	573	1	4	0	136	28	0	0	100
fixed	5	3	5	800480	5	3	3	1	0	649	1	4	0	152	29	0	0	100
fixed	5	3	6	801745	6	4	4	1	0	676	1	4	0	160	30	0	0	100
fixed	5	3	7	803348	3	1	1	1	0	696	1	4	0	136	31	0	0	100
fixed	5	3	8	804355	2	3	3	1	0	757	1	4	0	152	32	0	0	100
fixed	5	3	9	805704	3	2	2	1	0	637	1	4	0	144	33	0	0	100
fixed	5	3	10	806805	1	4	4	1	0	502	1	4	0	160	34	0	0	100
fixed	5	3	11	808097	5	2	2	1	0	703	1	4	0	144	35	0	0	100
fixed	5	3	12	809515	4	3	3	1	0	427	1	4	0	152	36	0	0	100
fixed	5	4	1	810804	4	1	1	1	0	468	1	4	0	136	37	0	0	100
fixed	5	4	2	812290	1	2	2	1	0	773	1	4	0	144	38	0	0	100
fixed	5	4	3	813732	6	4	4	1	0	400	1	4	0	160	39	0	0	100
fixed	5	4	4	815070	2	1	1	1	0	736	1	4	0	136	40	0	0	100
fixed	5	4	5	816273	5	3	3	1	0	685	1	4	0	152	41	0	0	100
fixed	5	4	6	817640	6	4	4	1	0	491	1	4	0	160	42	0	0	100
fixed	5	4	7	818565	3	1	1	1	0	660	1	4	0	136	43	0	0	100
fixed	5	4	8	820081	2	3	3	1	0	747	1	4	0	152	44	0	0	100
fixed	5	4	9	821238	3	2	2	1	0	539	1	4	0	144	45	0	0	100
fixed	5	4	10	822119	1	4	4	1	0	477	1	4	0	160	46	0	0	100
fixed	5	4	11	823517	5	2	2	1	0	698	1	4	0	144	47	0	0	100
fixed	5	4	12	825223	4	3	3	1	0	1017	1	4	0	152	48	0	0	100
fixed	5	5	1	827011	4	1	1	1	0	542	1	4	0	136	49	0	0	100
fixed	5	5	2	828326	1	2	2	1	0	943	1	4	0	144	50	0	0	100
fixed	5	5	3	829617	6	4	4	1	0	519	1	4	0	160	51	0	0	100
fixed	5	5	4	830641	2	1	1	1	0	484	1	4	0	136	52	0	0	100
fixed	5	5	5	831918	5	3	3	1	0	702	1	4	0	152	53	0	0	100
fixed	5	5	6	833295	6	4	4	1	0	620	1	4	0	160	54	0	0	100
fixed	5	5	7	834915	3	1	1	1	0	631	1	4	0	136	55	0	0	100
fixed	5	5	8	836222	2	3	3	1	0	808	1	4	0	152	56	0	0	100
fixed	5	5	9	837814	3	2	2	1	0	525	1	4	0	144	57	0	0	100
fixed	5	5	10	839002	1	4	4	1	0	442	1	4	0	160	58	0	0	100
fixed	5	5	11	839859	5	2	2	2	0	1310	2	4	0	144	59	0	0	100
fixed	5	5	12	842012	4	3	3	1	0	642	1	4	0	152	60	0	0	100
fixed	5	6	1	843434	4	1	1	1	0	542	1	4	0	136	61	0	0	100
fixed	5	6	2	844975	1	2	2	1	0	709	1	4	0	144	62	0	0	100
fixed	5	6	3	846256	6	4	4	1	0	430	1	4	0	160	63	0	0	100
fixed	5	6	4	847568	2	1	1	1	0	511	1	4	0	136	64	0	0	100
fixed	5	6	5	848820	5	3	3	1	0	626	1	4	0	152	65	0	0	100
fixed	5	6	6	850201	6	4	4	1	0	575	1	4	0	160	66	0	0	100
fixed	5	6	7	851160	3	1	1	1	0	695	1	4	0	136	67	0	0	100
fixed	5	6	8	852460	2	3	3	1	0	856	1	4	0	152	68	0	0	100
fixed	5	6	9	854260	3	2	2	1	0	420	1	4	0	144	69	0	0	100
fixed	5	6	10	855334	1	4	4	1	0	558	1	4	0	160	70	0	0	100
fixed	5	6	11	856311	5	2	2	1	0	677	1	4	0	144	71	0	0	100
fixed	5	6	12	857778	4	3	3	1	0	447	1	4	0	152	72	0	0	100
fixed	5	7	1	859089	4	1	1	1	0	543	1	4	0	136	73	0	0	100
fixed	5	7	2	860597	1	2	2	2	0	1383	2	4	0	144	74	0	0	100
fixed	5	7	3	862345	6	4	4	1	0	605	1	4	0	160	75	0	0	100
fixed	5	7	4	863334	2	1	1	1	0	507	1	4	0	136	76	0	0	100
fixed	5	7	5	864563	5	3	3	1	0	696	1	4	0	152	77	0	0	100
fixed	5	7	6	866020	6	4	4	1	0	497	1	4	0	160	78	0	0	100
fixed	5	7	7	867286	3	1	1	1	0	524	1	4	0	136	79	0	0	100
fixed	5	7	8	868733	2	3	3	1	0	423	1	4	0	152	80	0	0	100
fixed	5	7	9	869740	3	2	2	1	0	500	1	4	0	144	81	0	0	100
fixed	5	7	10	870535	1	4	4	1	0	506	1	4	0	160	82	0	0	100
fixed	5	7	11	871416	5	2	2	1	0	653	1	4	0	144	83	0	0	100
fixed	5	7	12	872948	4	3	3	1	0	1340	1	4	0	152	84	0	0	100
fixed	5	8	1	875045	4	1	1	1	0	651	1	4	0	136	85	0	0	100
fixed	5	8	2	876474	1	2	2	1	0	735	1	4	0	144	86	0	0	100
fixed	5	8	3	877912	6	4	4	1	0	514	1	4	0	160	87	0	0	100
fixed	5	8	4	878855	2	1	1	1	0	722	1	4	0	136	88	0	0	100
fixed	5	8	5	879902	5	3	3	1	0	838	1	4	0	152	89	0	0	100
fixed	5	8	6	881651	6	4	4	1	0	588	1	4	0	160	90	0	0	100
fixed	5	8	7	882758	3	1	1	1	0	621	1	4	0	136	91	0	0	100
fixed	5	8	8	884011	2	3	3	1	0	784	1	4	0	152	92	0	0	100
fixed	5	8	9	885217	3	2	2	1	0	565	1	4	0	144	93	0	0	100
fixed	5	8	10	886634	1	4	4	1	0	377	1	4	0	160	94	0	0	100
fixed	5	8	11	887338	5	2	2	1	0	747	1	4	0	144	95	0	0	100
fixed	5	8	12	888842	4	3	3	1	0	475	1	4	0	152	96	0	0	100
fixed	5	9	1	890583	4	1	1	1	0	513	1	4	0	136	97	0	0	100
fixed	5	9	2	891964	1	2	2	1	0	991	1	4	0	144	98	0	0	100
fixed	5	9	3	893859	6	4	4	1	0	270	1	4	0	160	99	0	0	100
fixed	5	9	4	894657	2	1	1	1	0	501	1	4	0	136	100	0	0	100
fixed	5	9	5	895475	5	3	3	1	0	715	1	4	0	152	101	0	0	100
fixed	5	9	6	896589	6	4	4	1	0	611	1	4	0	160	102	0	0	100
fixed	5	9	7	898172	3	1	1	1	0	600	1	4	0	136	103	0	0	100
fixed	5	9	8	899152	2	3	3	1	0	734	1	4	0	152	104	0	0	100
fixed	5	9	9	900757	3	2	2	1	0	402	1	4	0	144	105	0	0	100
fixed	5	9	10	901872	1	4	4	1	0	436	1	4	0	160	106	0	0	100
fixed	5	9	11	902598	5	2	2	1	0	700	1	4	0	144	107	0	0	100
fixed	5	9	12	903899	4	3	3	1	0	565	1	4	0	152	108	0	0	100
fixed	5	10	1	905069	4	1	1	1	0	660	1	4	0	136	109	0	0	100
fixed	5	10	2	906542	1	2	2	1	0	1293	1	4	0	144	110	0	0	100
fixed	5	10	3	908303	6	4	4	1	0	723	1	4	0	160	111	0	0	100
fixed	5	10	4	909906	2	1	1	1	0	559	1	4	0	136	112	0	0	100
fixed	5	10	5	910864	5	3	3	1	0	702	1	4	0	152	113	0	0	100
fixed	5	10	6	912105	6	4	4	1	0	554	1	4	0	160	114	0	0	100
fixed	5	10	7	913059	3	1	1	1	0	593	1	4	0	136	115	0	0	100
fixed	5	10	8	914613	2	3	3	1	0	807	1	4	0	152	116	0	0	100
fixed	5	10	9	915964	3	2	2	1	0	582	1	4	0	144	117	0	0	100
fixed	5	10	10	917397	1	4	4	1	0	353	1	4	0	160	118	0	0	100
fixed	5	10	11	918359	5	2	2	1	0	713	1	4	0	144	119	0	0	100
fixed	5	10	12	919376	4	3	3	1	0	622	1	4	0	152	120	0	0	100
random	6	1	1	1048485	6	1	1	1	0	721	1	4	0	168	1	0	0	100
random	6	1	2	1050107	4	4	4	1	0	876	1	4	0	192	2	0	0	100
random	6	1	3	1051407	2	2	2	1	0	766	1	4	0	176	3	0	0	100
random	6	1	4	1052998	3	3	3	1	0	794	1	4	0	184	4	0	0	100
random	6	1	5	1054237	5	2	2	1	0	742	1	4	0	176	5	0	0	100
random	6	1	6	1055407	1	4	4	1	0	620	1	4	0	192	6	0	0	100
random	6	1	7	1057044	6	1	1	1	0	599	1	4	0	168	7	0	0	100
random	6	1	8	1058363	2	3	3	1	0	679	1	4	0	184	8	0	0	100
random	6	1	9	1059643	4	2	2	1	0	465	1	4	0	176	9	0	0	100
random	6	1	10	1060527	1	1	1	1	0	668	1	4	0	168	10	0	0	100
random	6	1	11	1061759	5	4	4	1	0	623	1	4	0	192	11	0	0	100
random	6	1	12	1063224	3	3	3	1	0	753	1	4	0	184	12	0	0	100
random	6	1	13	1065011	5	2	2	1	0	765	1	4	0	176	13	0	0	100
random	6	1	14	1066782	1	4	4	1	0	602	1	4	0	192	14	0	0	100
random	6	1	15	1067693	3	1	1	1	0	716	1	4	0	168	15	0	0	100
random	6	1	16	1069225	4	3	3	1	0	923	1	4	0	184	16	0	0	100
random	6	1	17	1070559	6	4	4	1	0	1106	1	4	0	192	17	0	0	100
random	6	1	18	1072343	2	1	1	1	0	687	1	4	0	168	18	0	0	100
random	6	1	19	1074009	5	3	3	1	0	681	1	4	0	184	19	0	0	100
random	6	1	20	1075408	2	2	2	1	0	501	1	4	0	176	20	0	0	100
random	6	1	21	1076249	3	3	3	1	0	890	1	4	0	184	21	0	0	100
random	6	1	22	1077808	6	1	1	2	0	1247	2	4	0	168	22	0	0	100
random	6	1	23	1079635	4	2	2	1	0	866	1	4	0	176	23	0	0	100
random	6	1	24	1080896	1	4	4	1	0	549	1	4	0	192	24	0	0	100
random	6	1	25	1082404	4	3	3	1	0	941	1	4	0	184	25	0	0	100
random	6	1	26	1084271	2	1	1	1	0	606	1	4	0	168	26	0	0	100
random	6	1	27	1085599	5	2	2	1	0	749	1	4	0	176	27	0	0	100
random	6	1	28	1087229	6	4	4	1	0	577	1	4	0	192	28	0	0	100
random	6	1	29	1088450	1	3	3	1	0	852	1	4	0	184	29	0	0	100
random	6	1	30	1089853	5	2	2	1	0	681	1	4	0	176	30	0	0	100
random	6	1	31	1090851	2	1	1	1	0	807	1	4	0	168	31	0	0	100
random	6	1	32	1092484	3	3	3	1	0	730	1	4	0	184	32	0	0	100
random	6	1	33	1093901	6	4	4	1	0	630	1	4	0	192	33	0	0	100
random	6	1	34	1095567	4	2	2	1	0	664	1	4	0	176	34	0	0	100
random	6	1	35	1096860	3	4	4	1	0	824	1	4	0	192	35	0	0	100
random	6	1	36	1098447	1	1	1	1	0	805	1	4	0	168	36	0	0	100
random	6	1	37	1100047	3	4	4	1	0	1009	1	4	0	192	37	0	0	100
random	6	1	38	1101504	5	3	3	1	0	812	1	4	0	184	38	0	0	100
random	6	1	39	1102945	6	1	1	1	0	727	1	4	0	168	39	0	0	100
random	6	1	40	1104562	1	2	2	1	0	754	1	4	0	176	40	0	0	100
random	6	1	41	1105737	2	3	3	1	0	721	1	4	0	184	41	0	0	100
random	6	1	42	1106873	4	4	4	1	0	657	1	4	0	192	42	0	0	100
random	6	1	43	1108232	1	2	2	1	0	807	1	4	0	176	43	0	0	100
random	6	1	44	1109997	6	3	3	1	0	732	1	4	0	184	44	0	0	100
random	6	1	45	1111122	3	1	1	1	0	684	1	4	0	168	45	0	0	100
random	6	1	46	1112550	4	4	4	1	0	440	1	4	0	192	46	0	0	100
random	6	1	47	1113580	2	2	2	1	0	740	1	4	0	176	47	0	0	100
random	6	1	48	1115201	5	1	1	1	0	1143	1	4	0	168	48	0	0	100
random	6	1	49	1117640	2	3	3	1	0	896	1	4	0	184	49	0	0	100
random	6	1	50	1119479	3	1	1	1	0	674	1	4	0	168	50	0	0	100
random	6	1	51	1121007	1	4	4	1	0	594	1	4	0	192	51	0	0	100
random	6	1	52	1121955	5	3	3	1	0	770	1	4	0	184	52	0	0	100
random	6	1	53	1123759	3	2	2	1	0	493	1	4	0	176	53	0	0	100
random	6	1	54	1124591	6	4	4	1	0	570	1	4	0	192	54	0	0	100
random	6	1	55	1125587	4	2	2	1	0	720	1	4	0	176	55	0	0	100
random	6	1	56	1126642	1	1	1	1	0	787	1	4	0	168	56	0	0	100
random	6	1	57	1128118	5	4	4	1	0	676	1	4	0	192	57	0	0	100
random	6	1	58	1129694	2	1	1	1	0	650	1	4	0	168	58	0	0	100
random	6	1	59	1130766	6	2	2	1	0	957	1	4	0	176	59	0	0	100
random	6	1	60	1132200	4	3	3	1	0	552	1	4	0	184	60	0	0	100
random	6	1	61	1133997	1	2	2	1	0	939	1	4	0	176	61	0	0	100
random	6	1	62	1135338	6	4	4	1	0	611	1	4	0	192	62	0	0	100
random	6	1	63	1136384	4	1	1	1	0	526	1	4	0	168	63	0	0	100
random	6	1	64	1137576	2	2	2	1	0	732	1	4	0	176	64	0	0	100
random	6	1	65	1139274	4	3	3	1	0	748	1	4	0	184	65	0	0	100
random	6	1	66	1140564	3	1	1	1	0	837	1	4	0	168	66	0	0	100
random	6	1	67	1141897	1	3	3	1	0	725	1	4	0	184	67	0	0	100
random	6	1	68	1143120	5	4	4	1	0	625	1	4	0	192	68	0	0	100
random	6	1	69	1144733	2	2	2	1	0	677	1	4	0	176	69	0	0	100
random	6	1	70	1145795	3	1	1	1	0	712	1	4	0	168	70	0	0	100
random	6	1	71	1147206	5	4	4	1	0	564	1	4	0	192	71	0	0	100
random	6	1	72	1148370	6	3	3	1	0	667	1	4	0	184	72	0	0	100
random	6	1	73	1150220	2	1	1	1	0	724	1	4	0	168	73	0	0	100
random	6	1	74	1151947	5	3	3	1	0	683	1	4	0	184	74	0	0	100
random	6	1	75	1153418	1	4	4	1	0	621	1	4	0	192	75	0	0	100
random	6	1	76	1154993	6	2	2	1	0	586	1	4	0	176	76	0	0	100
random	6	1	77	1156589	2	1	1	1	0	1143	1	4	0	168	77	0	0	100
random	6	1	78	1158592	4	4	4	1	0	802	1	4	0	192	78	0	0	100
random	6	1	79	1159837	3	2	2	1	0	709	1	4	0	176	79	0	0	100
random	6	1	80	1161131	4	3	3	1	0	606	1	4	0	184	80	0	0	100
random	6	1	81	1162492	1	4	4	1	0	629	1	4	0	192	81	0	0	100
random	6	1	82	1163740	5	1	1	1	0	536	1	4	0	168	82	0	0	100
random	6	1	83	1165094	3	2	2	1	0	790	1	4	0	176	83	0	0	100
random	6	1	84	1166785	6	3	3	1	0	503	1	4	0	184	84	0	0	100
random	6	1	85	1168331	3	2	2	1	0	797	1	4	0	176	85	0	0	100
random	6	1	86	1169603	1	3	3	1	0	1055	1	4	0	184	86	0	0	100
random	6	1	87	1171238	4	4	4	1	0	650	1	4	0	192	87	0	0	100
random	6	1	88	1172534	2	1	1	1	0	531	1	4	0	168	88	0	0	100
random	6	1	89	1173806	6	4	4	1	0	950	1	4	0	192	89	0	0	100
random	6	1	90	1175217	3	3	3	1	0	986	1	4	0	184	90	0	0	100
random	6	1	91	1176773	5	4	4	1	0	808	1	4	0	192	91	0	0	100
random	6	1	92	1178562	1	2	2	1	0	668	1	4	0	176	92	0	0	100
random	6	1	93	1179650	5	1	1	1	0	758	1	4	0	168	93	0	0	100
random	6	1	94	1180974	4	3	3	1	0	774	1	4	0	184	94	0	0	100
random	6	1	95	1182172	6	1	1	1	0	851	1	4	0	168	95	0	0	100
random	6	1	96	1183428	2	2	2	1	0	766	1	4	0	176	96	0	0	100
random	6	1	97	1185423	4	3	3	1	0	793	1	4	0	184	97	0	0	100
random	6	1	98	1186578	3	2	2	1	0	712	1	4	0	176	98	0	0	100
random	6	1	99	1187581	6	3	3	1	0	886	1	4	0	184	99	0	0	100
random	6	1	100	1189067	1	4	4	1	0	535	1	4	0	192	100	0	0	100
random	6	1	101	1190538	4	1	1	1	0	745	1	4	0	168	101	0	0	100
random	6	1	102	1191764	5	2	2	1	0	741	1	4	0	176	102	0	0	100
random	6	1	103	1193013	2	4	4	1	0	520	1	4	0	192	103	0	0	100
random	6	1	104	1194435	3	1	1	1	0	716	1	4	0	168	104	0	0	100
random	6	1	105	1195800	1	3	3	1	0	730	1	4	0	184	105	0	0	100
random	6	1	106	1196848	2	2	2	1	0	630	1	4	0	176	106	0	0	100
random	6	1	107	1197810	5	4	4	1	0	621	1	4	0	192	107	0	0	100
random	6	1	108	1199364	6	1	1	2	0	1139	2	4	0	168	108	0	0	100
random	6	1	109	1201162	5	4	4	1	0	959	1	4	0	192	109	0	0	100
random	6	1	110	1202808	6	3	3	1	0	881	1	4	0	184	110	0	0	100
random	6	1	111	1204003	2	2	2	1	0	582	1	4	0	176	111	0	0	100
random	6	1	112	1205383	3	1	1	1	0	580	1	4	0	168	112	0	0	100
random	6	1	113	1206510	1	2	2	1	0	748	1	4	0	176	113	0	0	100
random	6	1	114	1207837	2	3	3	1	0	724	1	4	0	184	114	0	0	100
random	6	1	115	1209082	3	1	1	1	0	559	1	4	0	168	115	0	0	100
random	6	1	116	1210218	4	4	4	1	0	487	1	4	0	192	116	0	0	100
random	6	1	117	1211504	6	1	1	1	0	881	1	4	0	168	117	0	0	100
random	6	1	118	1213400	5	3	3	1	0	769	1	4	0	184	118	0	0	100
random	6	1	119	1214945	1	4	4	1	0	519	1	4	0	192	119	0	0	100
random	6	1	120	1216427	4	2	2	1	0	608	1	4	0	176	120	0	0	100
fixed	7	1	1	1218452	4	1	1	1	0	602	1	4	0	200	1	0	0	100
fixed	7	1	2	1219640	1	2	2	1	0	904	1	4	0	208	2	0	0	100
fixed	7	1	3	1221394	6	4	4	1	0	534	1	4	0	224	3	0	0	100
fixed	7	1	4	1222473	2	1	1	1	0	608	1	4	0	200	4	0	0	100
fixed	7	1	5	1223450	5	3	3	1	0	615	1	4	0	216	5	0	0	100
fixed	7	1	6	1224759	6	4	4	1	0	647	1	4	0	224	6	0	0	100
fixed	7	1	7	1226363	3	1	1	1	0	531	1	4	0	200	7	0	0	100
fixed	7	1	8	1227489	2	3	3	1	0	1116	1	4	0	216	8	0	0	100
fixed	7	1	9	1229109	3	2	2	1	0	535	1	4	0	208	9	0	0	100
fixed	7	1	10	1230256	1	4	4	1	0	463	1	4	0	224	10	0	0	100
fixed	7	1	11	1231638	5	2	2	1	0	676	1	4	0	208	11	0	0	100
fixed	7	1	12	1233089	4	3	3	1	0	814	1	4	0	216	12	0	0	100
fixed	7	2	1	1234711	4	1	1	1	0	554	1	4	0	200	1	0	0	8
fixed	7	2	2	1236124	1	2	2	1	0	742	1	4	0	208	2	0	0	14
fixed	7	2	3	1237563	6	4	4	1	0	417	1	4	0	224	3	0	0	20
fixed	7	2	4	1238398	2	1	1	1	0	734	1	4	0	200	4	0	0	25
fixed	7	2	5	1239475	5	3	3	1	0	648	1	4	0	216	5	0	0	29
fixed	7	2	6	1240816	6	4	4	1	0	671	1	4	0	224	6	0	0	33
fixed	7	2	7	1242411	3	1	1	1	0	507	1	4	0	200	7	0	0	37
fixed	7	2	8	1243591	2	3	3	1	0	890	1	4	0	216	8	0	0	40
fixed	7	2	9	1245051	3	2	2	1	0	556	1	4	0	208	9	0	0	43
fixed	7	2	10	1246367	1	4	4	1	0	428	1	4	0	224	10	0	0	45
fixed	7	2	11	1247308	5	2	2	1	0	668	1	4	0	208	11	0	0	48
fixed	7	2	12	1248939	4	3	3	1	0	703	1	4	0	216	12	0	0	50
fixed	7	3	1	1250199	4	1	1	1	0	546	1	4	0	200	1	0	0	4
fixed	7	3	2	1251084	1	2	2	1	0	956	1	4	0	208	2	0	0	8
fixed	7	3	3	1253085	6	4	4	1	0	352	1	4	0	224	3	0	0	11
fixed	7	3	4	1254221	2	1	1	1	0	688	1	4	0	200	4	0	0	14
fixed	7	3	5	1255796	5	3	3	1	0	709	1	4	0	216	5	0	0	17
fixed	7	3	6	1257176	6	4	4	1	0	451	1	4	0	224	6	0	0	20
fixed	7	3	7	1258471	3	1	1	1	0	403	1	4	0	200	7	0	0	23
fixed	7	3	8	1259639	2	3	3	1	0	746	1	4	0	216	8	0	0	25
fixed	7	3	9	1260748	3	2	2	1	0	667	1	4	0	208	9	0	0	27
fixed	7	3	10	1262413	1	4	4	1	0	508	1	4	0	224	10	0	0	29
fixed	7	3	11	1263497	5	2	2	1	0	654	1	4	0	208	11	0	0	31
fixed	7	3	12	1264503	4	3	3	1	0	980	1	4	0	216	12	0	0	33
fixed	7	4	1	1266422	4	1	1	1	0	530	1	4	0	200	1	0	0	3
fixed	7	4	2	1267731	1	2	2	1	0	739	1	4	0	208	2	0	0	5
fixed	7	4	3	1268960	6	4	4	1	0	431	1	4	0	224	3	0	0	8
fixed	7	4	4	1270269	2	1	1	1	0	672	1	4	0	200	4	0	0	10
fixed	7	4	5	1271952	5	3	3	1	0	712	1	4	0	216	5	0	0	12
fixed	7	4	6	1273129	6	4	4	1	0	655	1	4	0	224	6	0	0	14
fixed	7	4	7	1274800	3	1	1	1	0	648	1	4	0	200	7	0	0	16
fixed	7	4	8	1275979	2	3	3	1	0	902	1	4	0	216	8	0	0	18
fixed	7	4	9	1277233	3	2	2	1	0	609	1	4	0	208	9	0	0	20
fixed	7	4	10	1278624	1	4	4	1	0	438	1	4	0	224	10	0	0	22
fixed	7	4	11	1279751	5	2	2	1	0	654	1	4	0	208	11	0	0	23
fixed	7	4	12	1280908	4	3	3	1	0	725	1	4	0	216	12	0	0	25
fixed	7	5	1	1282361	4	1	1	1	0	551	1	4	0	200	1	0	0	2
fixed	7	5	2	1283253	1	2	2	1	0	778	1	4	0	208	2	0	0	4
fixed	7	5	3	1284357	6	4	4	1	0	523	1	4	0	224	3	0	0	6
fixed	7	5	4	1285834	2	1	1	1	0	724	1	4	0	200	4	0	0	8
fixed	7	5	5	1287451	5	3	3	1	0	664	1	4	0	216	5	0	0	9
fixed	7	5	6	1288610	6	4	4	1	0	647	1	4	0	224	6	0	0	11
fixed	7	5	7	1289779	3	1	1	1	0	565	1	4	0	200	7	0	0	13
fixed	7	5	8	1290713	2	3	3	1	0	726	1	4	0	216	8	0	0	14
fixed	7	5	9	1292123	3	2	2	1	0	538	1	4	0	208	9	0	0	16
fixed	7	5	10	1293265	1	4	4	1	0	418	1	4	0	224	10	0	0	17
fixed	7	5	11	1294571	5	2	2	1	0	859	1	4	0	208	11	0	0	19
fixed	7	5	12	1295954	4	3	3	1	0	584	1	4	0	216	12	0	0	20
fixed	7	6	1	1297615	4	1	1	1	0	561	1	4	0	200	1	0	0	2
fixed	7	6	2	1299011	1	2	2	1	0	695	1	4	0	208	2	0	0	3
fixed	7	6	3	1300625	6	4	4	1	0	378	1	4	0	224	3	0	0	5
fixed	7	6	4	1301512	2	1	1	1	0	676	1	4	0	200	4	0	0	6
fixed	7	6	5	1302928	5	3	3	1	0	744	1	4	0	216	5	0	0	8
fixed	7	6	6	1304293	6	4	4	1	0	623	1	4	0	224	6	0	0	9
fixed	7	6	7	1305517	3	1	1	1	0	763	1	4	0	200	7	0	0	10
fixed	7	6	8	1307189	2	3	3	1	0	804	1	4	0	216	8	0	0	12
fixed	7	6	9	1308875	3	2	2	1	0	540	1	4	0	208	9	0	0	13
fixed	7	6	10	1310054	1	4	4	1	0	435	1	4	0	224	10	0	0	14
fixed	7	6	11	1311222	5	2	2	1	0	625	1	4	0	208	11	0	0	15
fixed	7	6	12	1312810	4	3	3	1	0	662	1	4	0	216	12	0	0	17
fixed	7	7	1	1314139	4	1	1	1	0	421	1	4	0	200	1	0	0	1
fixed	7	7	2	1315140	1	2	2	1	0	715	1	4	0	208	2	0	0	3
fixed	7	7	3	1316772	6	4	4	1	0	326	1	4	0	224	3	0	0	4
fixed	7	7	4	1317788	2	1	1	1	0	619	1	4	0	200	4	0	0	5
fixed	7	7	5	1319089	5	3	3	1	0	668	1	4	0	216	5	0	0	6
fixed	7	7	6	1320547	6	4	4	1	0	614	1	4	0	224	6	0	0	8
fixed	7	7	7	1321773	3	1	1	1	0	594	1	4	0	200	7	0	0	9
fixed	7	7	8	1323116	2	3	3	1	0	913	1	4	0	216	8	0	0	10
fixed	7	7	9	1324951	3	2	2	1	0	532	1	4	0	208	9	0	0	11
fixed	7	7	10	1326401	1	4	4	1	0	414	1	4	0	224	10	0	0	12
fixed	7	7	11	1327396	5	2	2	1	0	692	1	4	0	208	11	0	0	13
fixed	7	7	12	1328795	4	3	3	1	0	705	1	4	0	216	12	0	0	14
fixed	7	8	1	1330279	4	1	1	1	0	338	1	4	0	200	1	0	0	1
fixed	7	8	2	1331474	1	2	2	1	0	744	1	4	0	208	2	0	0	2
fixed	7	8	3	1332676	6	4	4	1	0	637	1	4	0	224	3	0	0	3
fixed	7	8	4	1334283	2	1	1	1	0	729	1	4	0	200	4	0	0	5
fixed	7	8	5	1335490	5	3	3	1	0	653	1	4	0	216	5	0	0	6
fixed	7	8	6	1336896	6	4	4	1	0	602	1	4	0	224	6	0	0	7
fixed	7	8	7	1338130	3	1	1	1	0	789	1	4	0	200	7	0	0	8
fixed	7	8	8	1339469	2	3	3	1	0	805	1	4	0	216	8	0	0	9
fixed	7	8	9	1340855	3	2	2	1	0	674	1	4	0	208	9	0	0	10
fixed	7	8	10	1341863	1	4	4	1	0	639	1	4	0	224	10	0	0	11
fixed	7	8	11	1343369	5	2	2	1	0	592	1	4	0	208	11	0	0	12
fixed	7	8	12	1344902	4	3	3	1	0	727	1	4	0	216	12	0	0	13
fixed	7	9	1	1346418	4	1	1	1	0	390	1	4	0	200	1	0	0	1
fixed	7	9	2	1347554	1	2	2	1	0	630	1	4	0	208	2	0	0	2
fixed	7	9	3	1348670	6	4	4	1	0	695	1	4	0	224	3	0	0	3
fixed	7	9	4	1350330	2	1	1	1	0	641	1	4	0	200	4	0	0	4
fixed	7	9	5	1351401	5	3	3	1	0	779	1	4	0	216	5	0	0	5
fixed	7	9	6	1353001	6	4	4	1	0	583	1	4	0	224	6	0	0	6
fixed	7	9	7	1354477	3	1	1	1	0	665	1	4	0	200	7	0	0	7
fixed	7	9	8	1355447	2	3	3	1	0	712	1	4	0	216	8	0	0	8
fixed	7	9	9	1356859	3	2	2	1	0	476	1	4	0	208	9	0	0	9
fixed	7	9	10	1358239	1	4	4	1	0	418	1	4	0	224	10	0	0	9
fixed	7	9	11	1359550	5	2	2	1	0	714	1	4	0	208	11	0	0	10
fixed	7	9	12	1361172	4	3	3	1	0	669	1	4	0	216	12	0	0	11
fixed	7	10	1	1362992	4	1	1	1	0	488	1	4	0	200	1	0	0	1
fixed	7	10	2	1364174	1	2	2	1	0	655	1	4	0	208	2	0	0	2
fixed	7	10	3	1365468	6	4	4	1	0	447	1	4	0	224	3	0	0	3
fixed	7	10	4	1366292	2	1	1	1	0	645	1	4	0	200	4	0	0	4
fixed	7	10	5	1367847	5	3	3	1	0	819	1	4	0	216	5	0	0	4
fixed	7	10	6	1369028	6	4	4	1	0	641	1	4	0	224	6	0	0	5
fixed	7	10	7	1370696	3	1	1	1	0	506	1	4	0	200	7	0	0	6
fixed	7	10	8	1372016	2	3	3	2	0	986	2	4	0	216	8	0	0	7
fixed	7	10	9	1373955	3	2	2	1	0	792	1	4	0	208	9	0	0	8
fixed	7	10	10	1375168	1	4	4	1	0	589	1	4	0	224	10	0	0	8
fixed	7	10	11	1376376	5	2	2	2	0	1001	2	4	0	208	11	0	0	9
fixed	7	10	12	1378347	4	3	3	1	0	582	1	4	0	216	12	0	0	10
