type	block	sequ.	trial	time	Pos.	Color	Button	NumRsp	Resp_1	RT_1	R_Code	Resp_2	RT_2	Trigg.	n_hit	n_inc	n_miss	score_%

random	1	1	1	4385	6	1	0	0	2	0	3	4	0	8	0	0	1	0
random	1	1	2	7509	4	4	4	2	0	2249	2	4	0	32	1	0	1	50
random	1	1	3	10465	2	2	2	1	0	1372	1	4	0	16	2	0	1	67
random	1	1	4	12380	3	3	3	1	0	1979	1	4	0	24	3	0	1	75
random	1	1	5	15239	5	2	2	1	0	1570	1	4	0	16	4	0	1	80
random	1	1	6	17625	1	4	4	1	0	1205	1	4	0	32	5	0	1	83
random	1	1	7	19577	6	1	1	1	0	1234	1	4	0	8	6	0	1	86
random	1	1	8	21785	2	3	3	1	0	1597	1	4	0	24	7	0	1	88
random	1	1	9	23709	4	2	2	1	0	795	1	4	0	16	8	0	1	89
random	1	1	10	25510	1	1	1	1	0	799	1	4	0	8	9	0	1	90
random	1	1	11	27306	5	4	4	1	0	627	1	4	0	32	10	0	1	91
random	1	1	12	28754	3	3	3	1	0	1173	1	4	0	24	11	0	1	92
random	1	1	13	31052	5	2	2	1	0	764	1	4	0	16	12	0	1	92
random	1	1	14	32567	1	4	4	1	0	916	1	4	0	32	13	0	1	93
random	1	1	15	34096	3	1	1	1	0	899	1	4	0	8	14	0	1	93
random	1	1	16	35543	4	3	3	1	0	990	1	4	0	24	15	0	1	94
random	1	1	17	37361	6	4	4	1	0	865	1	4	0	32	16	0	1	94
random	1	1	18	38585	2	1	1	1	0	1085	1	4	0	8	17	0	1	94
random	1	1	19	40426	5	3	3	1	0	1327	1	4	0	24	18	0	1	95
random	1	1	20	42644	2	2	2	1	0	681	1	4	0	16	19	0	1	95
random	1	1	21	43941	3	3	3	1	0	1298	1	4	0	24	20	0	1	95
random	1	1	22	45692	6	1	1	1	0	904	1	4	0	8	21	0	1	95
random	1	1	23	46987	4	2	2	1	0	833	1	4	0	16	22	0	1	96
random	1	1	24	48743	1	4	4	1	0	742	1	4	0	32	23	0	1	96
random	1	1	25	50667	4	3	3	1	0	869	1	4	0	24	24	0	1	96
random	1	1	26	51940	2	1	1	1	0	999	1	4	0	8	25	0	1	96
random	1	1	27	53764	5	2	2	1	0	850	1	4	0	16	26	0	1	96
random	1	1	28	55608	6	4	4	1	0	844	1	4	0	32	27	0	1	96
random	1	1	29	57066	1	3	3	1	0	1182	1	4	0	24	28	0	1	97
random	1	1	30	59099	5	2	2	1	0	888	1	4	0	16	29	0	1	97
random	1	1	31	60543	2	1	1	1	0	691	1	4	0	8	30	0	1	97
random	1	1	32	62082	3	3	3	1	0	994	1	4	0	24	31	0	1	97
random	1	1	33	63974	6	4	4	1	0	666	1	4	0	32	32	0	1	97
random	1	1	34	65528	4	2	2	1	0	976	1	4	0	16	33	0	1	97
random	1	1	35	67164	3	4	4	1	0	451	1	4	0	32	34	0	1	97
random	1	1	36	68599	1	1	1	1	0	910	1	4	0	8	35	0	1	97
random	1	1	37	70299	3	4	4	1	0	854	1	4	0	32	36	0	1	97
random	1	1	38	72025	5	3	3	1	0	1077	1	4	0	24	37	0	1	97
random	1	1	39	73840	6	1	1	1	0	896	1	4	0	8	38	0	1	97
random	1	1	40	75245	1	2	2	1	0	412	1	4	0	16	39	0	1	98
random	1	1	41	76168	2	3	3	1	0	1485	1	4	0	24	40	0	1	98
random	1	1	42	78500	4	4	4	1	0	931	1	4	0	32	41	0	1	98
random	1	1	43	80041	1	2	2	1	0	913	1	4	0	16	42	0	1	98
random	1	1	44	81772	6	3	3	1	0	848	1	4	0	24	43	0	1	98
random	1	1	45	83318	3	1	1	1	0	606	1	4	0	8	44	0	1	98
random	1	1	46	84753	4	4	4	1	0	641	1	4	0	32	45	0	1	98
random	1	1	47	85818	2	2	2	1	0	972	1	4	0	16	46	0	1	98
random	1	1	48	87131	5	1	1	1	0	989	1	4	0	8	47	0	1	98
random	1	1	49	88995	2	3	3	1	0	1054	1	4	0	24	48	0	1	98
random	1	1	50	90850	3	1	1	1	0	871	1	4	0	8	49	0	1	98
random	1	1	51	92235	1	4	4	1	0	660	1	4	0	32	50	0	1	98
random	1	1	52	93495	5	3	3	1	0	1119	1	4	0	24	51	0	1	98
random	1	1	53	95521	3	2	2	1	0	874	1	4	0	16	52	0	1	98
random	1	1	54	97215	6	4	4	1	0	922	1	4	0	32	53	0	1	98
random	1	1	55	98448	4	2	2	1	0	886	1	4	0	16	54	0	1	98
random	1	1	56	100297	1	1	1	1	0	919	1	4	0	8	55	0	1	98
random	1	1	57	101704	5	4	4	1	0	748	1	4	0	32	56	0	1	98
random	1	1	58	102782	2	1	1	1	0	1590	1	4	0	8	57	0	1	98
random	1	1	59	104867	6	2	2	1	0	1005	1	4	0	16	58	0	1	98
random	1	1	60	106815	4	3	0	1	2	0	3	4	0	24	58	0	2	97
random	1	1	61	109997	1	2	2	1	0	1372	1	4	0	16	59	0	2	97
random	1	1	62	111785	6	4	4	1	0	992	1	4	0	32	60	0	2	97
random	1	1	63	113111	4	1	1	1	0	833	1	4	0	8	61	0	2	97
random	1	1	64	114805	2	2	2	1	0	1049	1	4	0	16	62	0	2	97
random	1	1	65	116480	4	3	3	1	0	650	1	4	0	24	63	0	2	97
random	1	1	66	117963	3	1	1	1	0	931	1	4	0	8	64	0	2	97
random	1	1	67	119686	1	3	3	1	0	946	1	4	0	24	65	0	2	97
random	1	1	68	121172	5	4	4	1	0	995	1	4	0	32	66	0	2	97
random	1	1	69	123097	2	2	2	1	0	945	1	4	0	16	67	0	2	97
random	1	1	70	124383	3	1	1	1	0	939	1	4	0	8	68	0	2	97
random	1	1	71	125977	5	4	4	1	0	752	1	4	0	32	69	0	2	97
random	1	1	72	127416	6	3	3	1	0	1587	1	4	0	24	70	0	2	97
random	1	1	73	130229	2	1	1	1	0	931	1	4	0	8	71	0	2	97
random	1	1	74	131705	5	3	3	1	0	1141	1	4	0	24	72	0	2	97
random	1	1	75	133323	1	4	4	1	0	968	1	4	0	32	73	0	2	97
random	1	1	76	134724	6	2	2	1	0	885	1	4	0	16	74	0	2	97
random	1	1	77	136103	2	1	1	1	0	947	1	4	0	8	75	0	2	97
random	1	1	78	137664	4	4	4	1	0	744	1	4	0	32	76	0	2	97
random	1	1	79	139217	3	2	2	1	0	1110	1	4	0	16	77	0	2	97
random	1	1	80	140952	4	3	3	1	0	710	1	4	0	24	78	0	2	98
random	1	1	81	142167	1	4	4	1	0	642	1	4	0	32	79	0	2	98
random	1	1	82	143634	5	1	1	1	0	404	1	4	0	8	80	0	2	98
random	1	1	83	145065	3	2	2	1	0	1711	1	4	0	16	81	0	2	98
random	1	1	84	147427	6	3	3	1	0	571	1	4	0	24	82	0	2	98
random	1	1	85	148758	3	2	2	1	0	1586	1	4	0	16	83	0	2	98
random	1	1	86	150780	1	3	3	1	0	565	1	4	0	24	84	0	2	98
random	1	1	87	151800	4	4	4	1	0	554	1	4	0	32	85	0	2	98
random	1	1	88	152745	2	1	1	1	0	426	1	4	0	8	86	0	2	98
random	1	1	89	154104	6	4	4	1	0	736	1	4	0	32	87	0	2	98
random	1	1	90	155334	3	3	0	1	2	0	3	4	0	24	87	0	3	97
random	1	1	91	158171	5	4	4	1	0	1004	1	4	0	32	88	0	3	97
random	1	1	92	160209	1	2	2	1	0	814	1	4	0	16	89	0	3	97
random	1	1	93	161842	5	1	1	1	0	992	1	4	0	8	90	0	3	97
random	1	1	94	163596	4	3	3	1	0	1318	1	4	0	24	91	0	3	97
random	1	1	95	165430	6	1	1	1	0	1136	1	4	0	8	92	0	3	97
random	1	1	96	167203	2	2	2	1	0	901	1	4	0	16	93	0	3	97
random	1	1	97	169225	4	3	3	1	0	1040	1	4	0	24	94	0	3	97
random	1	1	98	170712	3	2	2	1	0	681	1	4	0	16	95	0	3	97
random	1	1	99	172083	6	3	3	1	0	1031	1	4	0	24	96	0	3	97
random	1	1	100	173675	1	4	4	1	0	691	1	4	0	32	97	0	3	97
random	1	1	101	174859	4	1	1	1	0	449	1	4	0	8	98	0	3	97
random	1	1	102	175848	5	2	2	1	0	1127	1	4	0	16	99	0	3	97
random	1	1	103	177509	2	4	4	2	0	1193	2	4	0	32	100	0	3	97
random	1	1	104	179712	3	1	1	1	0	876	1	4	0	8	101	0	3	97
random	1	1	105	180981	1	3	3	1	0	982	1	4	0	24	102	0	3	97
random	1	1	106	182460	2	2	2	1	0	1031	1	4	0	16	103	0	3	97
random	1	1	107	184169	5	4	4	1	0	759	1	4	0	32	104	0	3	97
random	1	1	108	185693	6	1	1	1	0	782	1	4	0	8	105	0	3	97
random	1	1	109	187086	5	4	4	1	0	947	1	4	0	32	106	0	3	97
random	1	1	110	188582	6	3	3	1	0	1012	1	4	0	24	107	0	3	97
random	1	1	111	190428	2	2	2	1	0	877	1	4	0	16	108	0	3	97
random	1	1	112	191788	3	1	1	1	0	980	1	4	0	8	109	0	3	97
random	1	1	113	193370	1	2	2	2	0	1601	2	4	0	16	110	0	3	97
random	1	1	114	195662	2	3	3	1	0	472	1	4	0	24	111	0	3	97
random	1	1	115	196909	3	1	1	1	0	851	1	4	0	8	112	0	3	97
random	1	1	116	198090	4	4	4	1	0	745	1	4	0	32	113	0	3	97
random	1	1	117	199569	6	1	1	1	0	1138	1	4	0	8	114	0	3	97
random	1	1	118	201021	5	3	3	1	0	1021	1	4	0	24	115	0	3	97
random	1	1	119	202780	1	4	4	1	0	939	1	4	0	32	116	0	3	97
random	1	1	120	204101	4	2	2	1	0	1059	1	4	0	16	117	0	3	98
fixed	2	1	1	206464	4	1	1	1	0	1638	1	4	0	40	1	0	0	100
fixed	2	1	2	208712	1	2	2	2	0	1583	2	4	0	48	2	0	0	100
fixed	2	1	3	211240	6	4	4	1	0	820	1	4	0	64	3	0	0	100
fixed	2	1	4	212908	2	1	1	1	0	958	1	4	0	40	4	0	0	100
fixed	2	1	5	214159	5	3	3	1	0	1089	1	4	0	56	5	0	0	100
fixed	2	1	6	215783	6	4	4	1	0	884	1	4	0	64	6	0	0	100
fixed	2	1	7	217175	3	1	1	1	0	953	1	4	0	40	7	0	0	100
fixed	2	1	8	219012	2	3	3	2	0	1547	2	4	0	56	8	0	0	100
fixed	2	1	9	220864	3	2	2	1	0	765	1	4	0	48	9	0	0	100
fixed	2	1	10	222046	1	4	4	1	0	1139	1	4	0	64	10	0	0	100
fixed	2	1	11	223512	5	2	2	1	0	1124	1	4	0	48	11	0	0	100
fixed	2	1	12	225536	4	3	3	1	0	1399	1	4	0	56	12	0	0	100
fixed	2	2	1	227702	4	1	1	1	0	939	1	4	0	40	13	0	0	100
fixed	2	2	2	229128	1	2	2	1	0	1343	1	4	0	48	14	0	0	100
fixed	2	2	3	231075	6	4	4	1	0	716	1	4	0	64	15	0	0	100
fixed	2	2	4	232710	2	1	1	1	0	791	1	4	0	40	16	0	0	100
fixed	2	2	5	233846	5	3	0	1	2	0	3	4	0	56	16	0	1	94
fixed	2	2	6	237209	6	4	4	1	0	1760	1	4	0	64	17	0	1	94
fixed	2	2	7	239691	3	1	0	0	2	0	3	4	0	40	17	0	2	89
fixed	2	2	8	243142	2	3	3	1	0	1813	1	4	0	56	18	0	2	90
fixed	2	2	9	245754	3	2	2	1	0	679	1	4	0	48	19	0	2	90
fixed	2	2	10	246975	1	4	4	1	0	827	1	4	0	64	20	0	2	91
fixed	2	2	11	248718	5	2	2	1	0	1145	1	4	0	48	21	0	2	91
fixed	2	2	12	250464	4	3	3	2	0	1999	2	4	0	56	22	0	2	92
fixed	2	3	1	253532	4	1	1	1	0	1309	1	4	0	40	23	0	2	92
fixed	2	3	2	255342	1	2	2	1	0	1432	1	4	0	48	24	0	2	92
fixed	2	3	3	257627	6	4	4	1	0	719	1	4	0	64	25	0	2	93
fixed	2	3	4	258681	2	1	1	1	0	995	1	4	0	40	26	0	2	93
fixed	2	3	5	260126	5	3	3	1	0	1134	1	4	0	56	27	0	2	93
fixed	2	3	6	262074	6	4	4	1	0	915	1	4	0	64	28	0	2	93
fixed	2	3	7	263917	3	1	1	1	0	829	1	4	0	40	29	0	2	94
fixed	2	3	8	265757	2	3	3	1	0	1127	1	4	0	56	30	0	2	94
fixed	2	3	9	267354	3	2	2	1	0	924	1	4	0	48	31	0	2	94
fixed	2	3	10	268992	1	4	4	1	0	886	1	4	0	64	32	0	2	94
fixed	2	3	11	270341	5	2	0	1	2	0	3	4	0	48	32	0	3	91
fixed	2	3	12	273815	4	3	3	1	0	1514	1	4	0	56	33	0	3	92
fixed	2	4	1	275887	4	1	1	1	0	978	1	4	0	40	34	0	3	92
fixed	2	4	2	277175	1	2	2	2	0	1531	2	4	0	48	35	0	3	92
fixed	2	4	3	279458	6	4	4	1	0	1083	1	4	0	64	36	0	3	92
fixed	2	4	4	281341	2	1	1	1	0	867	1	4	0	40	37	0	3	93
fixed	2	4	5	282820	5	3	3	2	0	2412	2	4	0	56	38	0	3	93
fixed	2	4	6	285793	6	4	4	1	0	1070	1	4	0	64	39	0	3	93
fixed	2	4	7	287623	3	1	1	1	0	937	1	4	0	40	40	0	3	93
fixed	2	4	8	289014	2	3	3	1	0	1510	1	4	0	56	41	0	3	93
fixed	2	4	9	290955	3	2	2	1	0	1212	1	4	0	48	42	0	3	93
fixed	2	4	10	292667	1	4	4	1	0	931	1	4	0	64	43	0	3	93
fixed	2	4	11	293910	5	2	2	1	0	1839	1	4	0	48	44	0	3	94
fixed	2	4	12	296767	4	3	3	2	0	1790	2	4	0	56	45	0	3	94
fixed	2	5	1	299144	4	1	1	1	0	961	1	4	0	40	46	0	3	94
fixed	2	5	2	300704	1	2	2	1	0	1199	1	4	0	48	47	0	3	94
fixed	2	5	3	302932	6	4	4	1	0	825	1	4	0	64	48	0	3	94
fixed	2	5	4	304762	2	1	1	1	0	907	1	4	0	40	49	0	3	94
fixed	2	5	5	306395	5	3	3	1	0	822	1	4	0	56	50	0	3	94
fixed	2	5	6	308256	6	4	4	1	0	743	1	4	0	64	51	0	3	94
fixed	2	5	7	309432	3	1	1	1	0	1766	1	4	0	40	52	0	3	95
fixed	2	5	8	311490	2	3	3	1	0	942	1	4	0	56	53	0	3	95
fixed	2	5	9	313270	3	2	2	1	0	499	1	4	0	48	54	0	3	95
fixed	2	5	10	314534	1	4	4	1	0	413	1	4	0	64	55	0	3	95
fixed	2	5	11	315685	5	2	2	2	0	1700	2	4	0	48	56	0	3	95
fixed	2	5	12	318107	4	3	3	1	0	1382	1	4	0	56	57	0	3	95
fixed	2	6	1	320313	4	1	1	1	0	1096	1	4	0	40	58	0	3	95
fixed	2	6	2	321749	1	2	2	1	0	1611	1	4	0	48	59	0	3	95
fixed	2	6	3	323750	6	4	4	1	0	1319	1	4	0	64	60	0	3	95
fixed	2	6	4	325355	2	1	1	1	0	1539	1	4	0	40	61	0	3	95
fixed	2	6	5	327324	5	3	3	2	0	1712	2	4	0	56	62	0	3	95
fixed	2	6	6	329771	6	4	4	1	0	1360	1	4	0	64	63	0	3	95
fixed	2	6	7	332085	3	1	1	1	0	1918	1	4	0	40	64	0	3	96
fixed	2	6	8	334595	2	3	3	1	0	2195	1	4	0	56	65	0	3	96
fixed	2	6	9	337747	3	2	2	1	0	878	1	4	0	48	66	0	3	96
fixed	2	6	10	339164	1	4	4	1	0	866	1	4	0	64	67	0	3	96
fixed	2	6	11	340360	5	2	2	1	0	1871	1	4	0	48	68	0	3	96
fixed	2	6	12	342906	4	3	3	1	0	436	1	4	0	56	69	0	3	96
fixed	2	7	1	344021	4	1	1	1	0	1004	1	4	0	40	70	0	3	96
fixed	2	7	2	345854	1	2	2	1	0	1295	1	4	0	48	71	0	3	96
fixed	2	7	3	347678	6	4	4	1	0	801	1	4	0	64	72	0	3	96
fixed	2	7	4	348953	2	1	1	1	0	1123	1	4	0	40	73	0	3	96
fixed	2	7	5	350422	5	3	3	1	0	1709	1	4	0	56	74	0	3	96
fixed	2	7	6	352687	6	4	4	1	0	829	1	4	0	64	75	0	3	96
fixed	2	7	7	354072	3	1	1	1	0	891	1	4	0	40	76	0	3	96
fixed	2	7	8	355672	2	3	3	1	0	1631	1	4	0	56	77	0	3	96
fixed	2	7	9	357923	3	2	2	1	0	631	1	4	0	48	78	0	3	96
fixed	2	7	10	359554	1	4	4	1	0	923	1	4	0	64	79	0	3	96
fixed	2	7	11	360765	5	2	2	1	0	1647	1	4	0	48	80	0	3	96
fixed	2	7	12	363295	4	3	3	1	0	1092	1	4	0	56	81	0	3	96
fixed	2	8	1	365273	4	1	1	1	0	1000	1	4	0	40	82	0	3	96
fixed	2	8	2	366836	1	2	2	1	0	1286	1	4	0	48	83	0	3	97
fixed	2	8	3	368559	6	4	4	1	0	829	1	4	0	64	84	0	3	97
fixed	2	8	4	370250	2	1	1	1	0	853	1	4	0	40	85	0	3	97
fixed	2	8	5	371504	5	3	3	2	0	1600	2	4	0	56	86	0	3	97
fixed	2	8	6	373870	6	4	4	1	0	900	1	4	0	64	87	0	3	97
fixed	2	8	7	375494	3	1	1	1	0	936	1	4	0	40	88	0	3	97
fixed	2	8	8	376876	2	3	3	1	0	2317	1	4	0	56	89	0	3	97
fixed	2	8	9	380213	3	2	2	1	0	799	1	4	0	48	90	0	3	97
fixed	2	8	10	382006	1	4	4	1	0	892	1	4	0	64	91	0	3	97
fixed	2	8	11	383834	5	2	2	1	0	1142	1	4	0	48	92	0	3	97
fixed	2	8	12	385765	4	3	3	2	0	1724	2	4	0	56	93	0	3	97
fixed	2	9	1	388212	4	1	1	1	0	1372	1	4	0	40	94	0	3	97
fixed	2	9	2	389932	1	2	2	1	0	1435	1	4	0	48	95	0	3	97
fixed	2	9	3	391660	6	4	4	1	0	867	1	4	0	64	96	0	3	97
fixed	2	9	4	393520	2	1	1	1	0	812	1	4	0	40	97	0	3	97
fixed	2	9	5	395132	5	3	3	1	0	1015	1	4	0	56	98	0	3	97
fixed	2	9	6	396639	6	4	4	1	0	808	1	4	0	64	99	0	3	97
fixed	2	9	7	398295	3	1	1	1	0	874	1	4	0	40	100	0	3	97
fixed	2	9	8	399669	2	3	3	1	0	2000	1	4	0	56	101	0	3	97
fixed	2	9	9	402119	3	2	2	1	0	696	1	4	0	48	102	0	3	97
fixed	2	9	10	403139	1	4	4	1	0	988	1	4	0	64	103	0	3	97
fixed	2	9	11	404497	5	2	2	1	0	1739	1	4	0	48	104	0	3	97
fixed	2	9	12	406716	4	3	3	2	0	1493	2	4	0	56	105	0	3	97
fixed	2	10	1	409381	4	1	1	1	0	1044	1	4	0	40	106	0	3	97
fixed	2	10	2	411125	1	2	2	1	0	1242	1	4	0	48	107	0	3	97
fixed	2	10	3	413385	6	4	4	1	0	691	1	4	0	64	108	0	3	97
fixed	2	10	4	414871	2	1	1	1	0	828	1	4	0	40	109	0	3	97
fixed	2	10	5	416190	5	3	3	1	0	964	1	4	0	56	110	0	3	97
fixed	2	10	6	418063	6	4	4	1	0	997	1	4	0	64	111	0	3	97
fixed	2	10	7	419462	3	1	1	1	0	1017	1	4	0	40	112	0	3	97
fixed	2	10	8	421355	2	3	3	1	0	1017	1	4	0	56	113	0	3	97
fixed	2	10	9	422919	3	2	2	1	0	743	1	4	0	48	114	0	3	97
fixed	2	10	10	424100	1	4	4	1	0	1652	1	4	0	64	115	0	3	97
fixed	2	10	11	426738	5	2	2	1	0	1357	1	4	0	48	116	0	3	97
fixed	2	10	12	428522	4	3	3	1	0	994	1	4	0	56	117	0	3	98
fixed	3	1	1	430898	4	1	1	1	0	1084	1	4	0	72	1	0	0	100
fixed	3	1	2	432416	1	2	2	1	0	1133	1	4	0	80	2	0	0	100
fixed	3	1	3	434019	6	4	4	1	0	977	1	4	0	96	3	0	0	100
fixed	3	1	4	435752	2	1	1	1	0	999	1	4	0	72	4	0	0	100
fixed	3	1	5	437262	5	3	3	1	0	1367	1	4	0	88	5	0	0	100
fixed	3	1	6	439650	6	4	4	1	0	810	1	4	0	96	6	0	0	100
fixed	3	1	7	440962	3	1	1	1	0	946	1	4	0	72	7	0	0	100
fixed	3	1	8	442258	2	3	3	1	0	2100	1	4	0	88	8	0	0	100
fixed	3	1	9	445228	3	2	2	1	0	694	1	4	0	80	9	0	0	100
fixed	3	1	10	446820	1	4	4	1	0	835	1	4	0	96	10	0	0	100
fixed	3	1	11	448489	5	2	2	1	0	1884	1	4	0	80	11	0	0	100
fixed	3	1	12	450707	4	3	3	1	0	774	1	4	0	88	12	0	0	100
fixed	3	2	1	452687	4	1	1	1	0	842	1	4	0	72	13	0	0	100
fixed	3	2	2	454070	1	2	2	1	0	1848	1	4	0	80	14	0	0	100
fixed	3	2	3	456318	6	4	4	1	0	904	1	4	0	96	15	0	0	100
fixed	3	2	4	458175	2	1	1	1	0	1289	1	4	0	72	16	0	0	100
fixed	3	2	5	459867	5	3	3	1	0	1514	1	4	0	88	17	0	0	100
fixed	3	2	6	461729	6	4	4	1	0	1659	1	4	0	96	18	0	0	100
fixed	3	2	7	463868	3	1	1	1	0	1064	1	4	0	72	19	0	0	100
fixed	3	2	8	465441	2	3	3	1	0	1814	1	4	0	88	20	0	0	100
fixed	3	2	9	468284	3	2	2	1	0	677	1	4	0	80	21	0	0	100
fixed	3	2	10	469537	1	4	4	1	0	776	1	4	0	96	22	0	0	100
fixed	3	2	11	471288	5	2	2	1	0	1726	1	4	0	80	23	0	0	100
fixed	3	2	12	473495	4	3	3	1	0	833	1	4	0	88	24	0	0	100
fixed	3	3	1	474892	4	1	1	1	0	1013	1	4	0	72	25	0	0	100
fixed	3	3	2	476861	1	2	2	1	0	1138	1	4	0	80	26	0	0	100
fixed	3	3	3	478458	6	4	4	1	0	1070	1	4	0	96	27	0	0	100
fixed	3	3	4	480512	2	1	1	1	0	951	1	4	0	72	28	0	0	100
fixed	3	3	5	482141	5	3	3	1	0	938	1	4	0	88	29	0	0	100
fixed	3	3	6	484068	6	4	4	1	0	1289	1	4	0	96	30	0	0	100
fixed	3	3	7	485888	3	1	1	1	0	1675	1	4	0	72	31	0	0	100
fixed	3	3	8	488532	2	3	3	1	0	1676	1	4	0	88	32	0	0	100
fixed	3	3	9	490997	3	2	2	1	0	819	1	4	0	80	33	0	0	100
fixed	3	3	10	492756	1	4	4	1	0	817	1	4	0	96	34	0	0	100
fixed	3	3	11	494170	5	2	2	1	0	1508	1	4	0	80	35	0	0	100
fixed	3	3	12	496079	4	3	3	1	0	1460	1	4	0	88	36	0	0	100
fixed	3	4	1	498333	4	1	1	1	0	1132	1	4	0	72	37	0	0	100
fixed	3	4	2	499901	1	2	2	1	0	1530	1	4	0	80	38	0	0	100
fixed	3	4	3	502356	6	4	4	1	0	818	1	4	0	96	39	0	0	100
fixed	3	4	4	503768	2	1	1	1	0	894	1	4	0	72	40	0	0	100
fixed	3	4	5	505256	5	3	3	1	0	1135	1	4	0	88	41	0	0	100
fixed	3	4	6	506924	6	4	4	1	0	1152	1	4	0	96	42	0	0	100
fixed	3	4	7	508442	3	1	1	1	0	1240	1	4	0	72	43	0	0	100
fixed	3	4	8	510513	2	3	3	1	0	1160	1	4	0	88	44	0	0	100
fixed	3	4	9	512247	3	2	2	1	0	911	1	4	0	80	45	0	0	100
fixed	3	4	10	514019	1	4	4	1	0	964	1	4	0	96	46	0	0	100
fixed	3	4	11	515372	5	2	2	1	0	1346	1	4	0	80	47	0	0	100
fixed	3	4	12	517041	4	3	3	1	0	1980	1	4	0	88	48	0	0	100
fixed	3	5	1	519652	4	1	1	1	0	1509	1	4	0	72	49	0	0	100
fixed	3	5	2	521847	1	2	2	1	0	1089	1	4	0	80	50	0	0	100
fixed	3	5	3	523889	6	4	4	1	0	810	1	4	0	96	51	0	0	100
fixed	3	5	4	525261	2	1	1	2	0	1456	2	4	0	72	52	0	0	100
fixed	3	5	5	527345	5	3	3	1	0	1312	1	4	0	88	53	0	0	100
fixed	3	5	6	529292	6	4	4	1	0	1005	1	4	0	96	54	0	0	100
fixed	3	5	7	530768	3	1	1	1	0	879	1	4	0	72	55	0	0	100
fixed	3	5	8	532185	2	3	3	1	0	1051	1	4	0	88	56	0	0	100
fixed	3	5	9	533604	3	2	2	1	0	718	1	4	0	80	57	0	0	100
fixed	3	5	10	534896	1	4	4	1	0	888	1	4	0	96	58	0	0	100
fixed	3	5	11	536645	5	2	2	1	0	942	1	4	0	80	59	0	0	100
fixed	3	5	12	538253	4	3	3	1	0	834	1	4	0	88	60	0	0	100
fixed	3	6	1	540035	4	1	1	1	0	1150	1	4	0	72	61	0	0	100
fixed	3	6	2	541863	1	2	2	1	0	1009	1	4	0	80	62	0	0	100
fixed	3	6	3	543798	6	4	4	1	0	807	1	4	0	96	63	0	0	100
fixed	3	6	4	544994	2	1	1	1	0	1212	1	4	0	72	64	0	0	100
fixed	3	6	5	546861	5	3	3	1	0	1197	1	4	0	88	65	0	0	100
fixed	3	6	6	548392	6	4	4	1	0	1404	1	4	0	96	66	0	0	100
fixed	3	6	7	550611	3	1	1	1	0	1062	1	4	0	72	67	0	0	100
fixed	3	6	8	552614	2	3	3	1	0	1569	1	4	0	88	68	0	0	100
fixed	3	6	9	554709	3	2	2	1	0	865	1	4	0	80	69	0	0	100
fixed	3	6	10	556118	1	4	4	1	0	989	1	4	0	96	70	0	0	100
fixed	3	6	11	557454	5	2	2	1	0	1677	1	4	0	80	71	0	0	100
fixed	3	6	12	560054	4	3	3	1	0	1246	1	4	0	88	72	0	0	100
fixed	3	7	1	561889	4	1	1	1	0	1096	1	4	0	72	73	0	0	100
fixed	3	7	2	563695	1	2	2	1	0	2188	1	4	0	80	74	0	0	100
fixed	3	7	3	566424	6	4	4	1	0	1097	1	4	0	96	75	0	0	100
fixed	3	7	4	568451	2	1	1	1	0	987	1	4	0	72	76	0	0	100
fixed	3	7	5	570469	5	3	3	1	0	941	1	4	0	88	77	0	0	100
fixed	3	7	6	571751	6	4	4	1	0	967	1	4	0	96	78	0	0	100
fixed	3	7	7	573099	3	1	1	2	0	1845	2	4	0	72	79	0	0	100
fixed	3	7	8	575972	2	3	3	1	0	1932	1	4	0	88	80	0	0	100
fixed	3	7	9	578610	3	2	2	1	0	732	1	4	0	80	81	0	0	100
fixed	3	7	10	579928	1	4	4	1	0	973	1	4	0	96	82	0	0	100
fixed	3	7	11	581615	5	2	2	1	0	1869	1	4	0	80	83	0	0	100
fixed	3	7	12	584303	4	3	3	2	0	2371	2	4	0	88	84	0	0	100
fixed	3	8	1	587418	4	1	1	1	0	1031	1	4	0	72	85	0	0	100
fixed	3	8	2	588771	1	2	2	1	0	1614	1	4	0	80	86	0	0	100
fixed	3	8	3	590966	6	4	4	1	0	1553	1	4	0	96	87	0	0	100
fixed	3	8	4	593193	2	1	1	1	0	819	1	4	0	72	88	0	0	100
fixed	3	8	5	594822	5	3	3	1	0	886	1	4	0	88	89	0	0	100
fixed	3	8	6	596086	6	4	4	1	0	2120	1	4	0	96	90	0	0	100
fixed	3	8	7	598829	3	1	1	1	0	748	1	4	0	72	91	0	0	100
fixed	3	8	8	600033	2	3	3	1	0	2001	1	4	0	88	92	0	0	100
fixed	3	8	9	602863	3	2	2	1	0	1201	1	4	0	80	93	0	0	100
fixed	3	8	10	604960	1	4	4	1	0	952	1	4	0	96	94	0	0	100
fixed	3	8	11	606315	5	2	2	1	0	2239	1	4	0	80	95	0	0	100
fixed	3	8	12	608880	4	3	3	1	0	762	1	4	0	88	96	0	0	100
fixed	3	9	1	610658	4	1	1	1	0	991	1	4	0	72	97	0	0	100
fixed	3	9	2	612480	1	2	2	1	0	970	1	4	0	80	98	0	0	100
fixed	3	9	3	614315	6	4	4	1	0	956	1	4	0	96	99	0	0	100
fixed	3	9	4	616320	2	1	1	1	0	1511	1	4	0	72	100	0	0	100
fixed	3	9	5	618364	5	3	3	1	0	1040	1	4	0	88	101	0	0	100
fixed	3	9	6	619968	6	4	4	1	0	1045	1	4	0	96	102	0	0	100
fixed	3	9	7	621934	3	1	1	1	0	777	1	4	0	72	103	0	0	100
fixed	3	9	8	623599	2	3	3	1	0	1067	1	4	0	88	104	0	0	100
fixed	3	9	9	625288	3	2	2	1	0	723	1	4	0	80	105	0	0	100
fixed	3	9	10	626963	1	4	4	1	0	1036	1	4	0	96	106	0	0	100
fixed	3	9	11	628762	5	2	2	1	0	1176	1	4	0	80	107	0	0	100
fixed	3	9	12	630738	4	3	3	1	0	1724	1	4	0	88	108	0	0	100
fixed	3	10	1	633615	4	1	1	1	0	1114	1	4	0	72	109	0	0	100
fixed	3	10	2	635754	1	2	2	1	0	1400	1	4	0	80	110	0	0	100
fixed	3	10	3	637731	6	4	4	1	0	804	1	4	0	96	111	0	0	100
fixed	3	10	4	639033	2	1	1	1	0	1301	1	4	0	72	112	0	0	100
fixed	3	10	5	641259	5	3	0	0	2	0	3	4	0	88	112	0	1	99
fixed	3	10	6	644438	6	4	4	1	0	944	1	4	0	96	113	0	1	99
fixed	3	10	7	645989	3	1	1	1	0	1223	1	4	0	72	114	0	1	99
fixed	3	10	8	647827	2	3	3	1	0	1297	1	4	0	88	115	0	1	99
fixed	3	10	9	649963	3	2	2	1	0	758	1	4	0	80	116	0	1	99
fixed	3	10	10	651670	1	4	4	1	0	1006	1	4	0	96	117	0	1	99
fixed	3	10	11	653206	5	2	0	0	2	0	3	4	0	80	117	0	2	98
fixed	3	10	12	656275	4	3	3	1	0	1083	1	4	0	88	118	0	2	98
fixed	4	1	1	773539	4	1	1	1	0	1100	1	4	0	104	1	0	0	100
fixed	4	1	2	775243	1	2	2	1	0	1092	1	4	0	112	2	0	0	100
fixed	4	1	3	777087	6	4	4	1	0	638	1	4	0	128	3	0	0	100
fixed	4	1	4	778109	2	1	1	1	0	915	1	4	0	104	4	0	0	100
fixed	4	1	5	780023	5	3	3	1	0	977	1	4	0	120	5	0	0	100
fixed	4	1	6	781329	6	4	4	1	0	2402	1	4	0	128	6	0	0	100
fixed	4	1	7	784070	3	1	1	1	0	1006	1	4	0	104	7	0	0	100
fixed	4	1	8	785555	2	3	3	1	0	1055	1	4	0	120	8	0	0	100
fixed	4	1	9	787087	3	2	2	1	0	823	1	4	0	112	9	0	0	100
fixed	4	1	10	788427	1	4	4	1	0	613	1	4	0	128	10	0	0	100
fixed	4	1	11	789708	5	2	2	1	0	783	1	4	0	112	11	0	0	100
fixed	4	1	12	791281	4	3	3	1	0	645	1	4	0	120	12	0	0	100
fixed	4	2	1	792939	4	1	1	1	0	638	1	4	0	104	13	0	0	100
fixed	4	2	2	794125	1	2	2	2	0	1436	2	4	0	112	14	0	0	100
fixed	4	2	3	796294	6	4	4	1	0	817	1	4	0	128	15	0	0	100
fixed	4	2	4	797878	2	1	1	1	0	949	1	4	0	104	16	0	0	100
fixed	4	2	5	799291	5	3	3	1	0	1305	1	4	0	120	17	0	0	100
fixed	4	2	6	801277	6	4	4	1	0	829	1	4	0	128	18	0	0	100
fixed	4	2	7	803059	3	1	1	1	0	818	1	4	0	104	19	0	0	100
fixed	4	2	8	804637	2	3	3	1	0	1343	1	4	0	120	20	0	0	100
fixed	4	2	9	806271	3	2	2	1	0	929	1	4	0	112	21	0	0	100
fixed	4	2	10	807706	1	4	4	1	0	877	1	4	0	128	22	0	0	100
fixed	4	2	11	809093	5	2	2	1	0	1506	1	4	0	112	23	0	0	100
fixed	4	2	12	810927	4	3	3	1	0	909	1	4	0	120	24	0	0	100
fixed	4	3	1	812554	4	1	1	1	0	879	1	4	0	104	25	0	0	100
fixed	4	3	2	814167	1	2	2	1	0	1467	1	4	0	112	26	0	0	100
fixed	4	3	3	816222	6	4	4	1	0	908	1	4	0	128	27	0	0	100
fixed	4	3	4	818086	2	1	1	1	0	901	1	4	0	104	28	0	0	100
fixed	4	3	5	819341	5	3	3	1	0	1016	1	4	0	120	29	0	0	100
fixed	4	3	6	821255	6	4	4	1	0	959	1	4	0	128	30	0	0	100
fixed	4	3	7	822758	3	1	1	1	0	840	1	4	0	104	31	0	0	100
fixed	4	3	8	824428	2	3	3	2	0	1617	2	4	0	120	32	0	0	100
fixed	4	3	9	826605	3	2	2	1	0	716	1	4	0	112	33	0	0	100
fixed	4	3	10	827902	1	4	4	1	0	910	1	4	0	128	34	0	0	100
fixed	4	3	11	829103	5	2	2	1	0	1051	1	4	0	112	35	0	0	100
fixed	4	3	12	831062	4	3	3	1	0	1160	1	4	0	120	36	0	0	100
fixed	4	4	1	832770	4	1	1	1	0	903	1	4	0	104	37	0	0	100
fixed	4	4	2	834443	1	2	2	1	0	1000	1	4	0	112	38	0	0	100
fixed	4	4	3	836364	6	4	4	1	0	871	1	4	0	128	39	0	0	100
fixed	4	4	4	838255	2	1	1	1	0	791	1	4	0	104	40	0	0	100
fixed	4	4	5	840054	5	3	3	1	0	907	1	4	0	120	41	0	0	100
fixed	4	4	6	841972	6	4	4	1	0	954	1	4	0	128	42	0	0	100
fixed	4	4	7	843598	3	1	1	1	0	813	1	4	0	104	43	0	0	100
fixed	4	4	8	845152	2	3	3	1	0	1115	1	4	0	120	44	0	0	100
fixed	4	4	9	846996	3	2	2	1	0	1029	1	4	0	112	45	0	0	100
fixed	4	4	10	848881	1	4	4	1	0	821	1	4	0	128	46	0	0	100
fixed	4	4	11	850125	5	2	2	1	0	1297	1	4	0	112	47	0	0	100
fixed	4	4	12	852291	4	3	3	1	0	821	1	4	0	120	48	0	0	100
fixed	4	5	1	853989	4	1	1	1	0	780	1	4	0	104	49	0	0	100
fixed	4	5	2	855557	1	2	2	1	0	1210	1	4	0	112	50	0	0	100
fixed	4	5	3	857312	6	4	4	1	0	1048	1	4	0	128	51	0	0	100
fixed	4	5	4	859002	2	1	1	1	0	864	1	4	0	104	52	0	0	100
fixed	4	5	5	860206	5	3	3	2	0	1989	2	4	0	120	53	0	0	100
fixed	4	5	6	862535	6	4	4	1	0	939	1	4	0	128	54	0	0	100
fixed	4	5	7	864505	3	1	1	1	0	879	1	4	0	104	55	0	0	100
fixed	4	5	8	865801	2	3	3	1	0	1016	1	4	0	120	56	0	0	100
fixed	4	5	9	867435	3	2	2	1	0	1067	1	4	0	112	57	0	0	100
fixed	4	5	10	868963	1	4	4	1	0	794	1	4	0	128	58	0	0	100
fixed	4	5	11	870524	5	2	2	1	0	1241	1	4	0	112	59	0	0	100
fixed	4	5	12	872440	4	3	3	1	0	671	1	4	0	120	60	0	0	100
fixed	4	6	1	873704	4	1	1	1	0	585	1	4	0	104	61	0	0	100
fixed	4	6	2	874763	1	2	2	1	0	1221	1	4	0	112	62	0	0	100
fixed	4	6	3	876386	6	4	4	1	0	832	1	4	0	128	63	0	0	100
fixed	4	6	4	877942	2	1	1	1	0	766	1	4	0	104	64	0	0	100
fixed	4	6	5	879413	5	3	3	1	0	944	1	4	0	120	65	0	0	100
fixed	4	6	6	880839	6	4	4	1	0	899	1	4	0	128	66	0	0	100
fixed	4	6	7	882382	3	1	1	1	0	818	1	4	0	104	67	0	0	100
fixed	4	6	8	884079	2	3	3	1	0	1138	1	4	0	120	68	0	0	100
fixed	4	6	9	885775	3	2	2	1	0	818	1	4	0	112	69	0	0	100
fixed	4	6	10	887259	1	4	4	1	0	891	1	4	0	128	70	0	0	100
fixed	4	6	11	888593	5	2	2	1	0	1155	1	4	0	112	71	0	0	100
fixed	4	6	12	890457	4	3	3	1	0	844	1	4	0	120	72	0	0	100
fixed	4	7	1	891982	4	1	1	1	0	995	1	4	0	104	73	0	0	100
fixed	4	7	2	893311	1	2	2	1	0	1091	1	4	0	112	74	0	0	100
fixed	4	7	3	895239	6	4	4	1	0	825	1	4	0	128	75	0	0	100
fixed	4	7	4	896746	2	1	1	1	0	849	1	4	0	104	76	0	0	100
fixed	4	7	5	898453	5	3	3	1	0	1281	1	4	0	120	77	0	0	100
fixed	4	7	6	900049	6	4	4	1	0	909	1	4	0	128	78	0	0	100
fixed	4	7	7	901935	3	1	1	1	0	726	1	4	0	104	79	0	0	100
fixed	4	7	8	903364	2	3	3	1	0	2321	1	4	0	120	80	0	0	100
fixed	4	7	9	906190	3	2	2	1	0	586	1	4	0	112	81	0	0	100
fixed	4	7	10	907078	1	4	4	1	0	828	1	4	0	128	82	0	0	100
fixed	4	7	11	908834	5	2	2	1	0	1250	1	4	0	112	83	0	0	100
fixed	4	7	12	910454	4	3	3	1	0	549	1	4	0	120	84	0	0	100
fixed	4	8	1	911730	4	1	1	1	0	855	1	4	0	104	85	0	0	100
fixed	4	8	2	913031	1	2	2	1	0	1112	1	4	0	112	86	0	0	100
fixed	4	8	3	915162	6	4	4	1	0	790	1	4	0	128	87	0	0	100
fixed	4	8	4	916249	2	1	1	1	0	856	1	4	0	104	88	0	0	100
fixed	4	8	5	917887	5	3	3	1	0	1474	1	4	0	120	89	0	0	100
fixed	4	8	6	920015	6	4	4	1	0	1864	1	4	0	128	90	0	0	100
fixed	4	8	7	922772	3	1	1	1	0	1859	1	4	0	104	91	0	0	100
fixed	4	8	8	924985	2	3	3	1	0	1038	1	4	0	120	92	0	0	100
fixed	4	8	9	927002	3	2	2	1	0	928	1	4	0	112	93	0	0	100
fixed	4	8	10	928583	1	4	4	1	0	957	1	4	0	128	94	0	0	100
fixed	4	8	11	930216	5	2	2	2	0	1968	2	4	0	112	95	0	0	100
fixed	4	8	12	932708	4	3	3	2	0	1679	2	4	0	120	96	0	0	100
fixed	4	9	1	935388	4	1	1	1	0	821	1	4	0	104	97	0	0	100
fixed	4	9	2	936518	1	2	2	1	0	1053	1	4	0	112	98	0	0	100
fixed	4	9	3	938087	6	4	4	1	0	723	1	4	0	128	99	0	0	100
fixed	4	9	4	939543	2	1	1	1	0	741	1	4	0	104	100	0	0	100
fixed	4	9	5	941188	5	3	3	1	0	799	1	4	0	120	101	0	0	100
fixed	4	9	6	942842	6	4	4	1	0	968	1	4	0	128	102	0	0	100
fixed	4	9	7	944425	3	1	1	1	0	726	1	4	0	104	103	0	0	100
fixed	4	9	8	945907	2	3	3	1	0	1248	1	4	0	120	104	0	0	100
fixed	4	9	9	947994	3	2	2	1	0	1039	1	4	0	112	105	0	0	100
fixed	4	9	10	949821	1	4	4	1	0	945	1	4	0	128	106	0	0	100
fixed	4	9	11	951346	5	2	2	1	0	1185	1	4	0	112	107	0	0	100
fixed	4	9	12	953129	4	3	3	1	0	629	1	4	0	120	108	0	0	100
fixed	4	10	1	955053	4	1	1	1	0	844	1	4	0	104	109	0	0	100
fixed	4	10	2	956419	1	2	2	1	0	1354	1	4	0	112	110	0	0	100
fixed	4	10	3	958551	6	4	4	1	0	800	1	4	0	128	111	0	0	100
fixed	4	10	4	959760	2	1	1	1	0	877	1	4	0	104	112	0	0	100
fixed	4	10	5	961249	5	3	3	1	0	1030	1	4	0	120	113	0	0	100
fixed	4	10	6	963064	6	4	4	1	0	801	1	4	0	128	114	0	0	100
fixed	4	10	7	964163	3	1	1	1	0	794	1	4	0	104	115	0	0	100
fixed	4	10	8	965983	2	3	3	1	0	957	1	4	0	120	116	0	0	100
fixed	4	10	9	967613	3	2	2	1	0	856	1	4	0	112	117	0	0	100
fixed	4	10	10	968921	1	4	4	1	0	848	1	4	0	128	118	0	0	100
fixed	4	10	11	970287	5	2	2	1	0	991	1	4	0	112	119	0	0	100
fixed	4	10	12	972275	4	3	3	1	0	939	1	4	0	120	120	0	0	100
fixed	5	1	1	974732	4	1	1	2	0	1338	2	4	0	136	1	0	0	100
fixed	5	1	2	977086	1	2	2	1	0	903	1	4	0	144	2	0	0	100
fixed	5	1	3	978739	6	4	4	1	0	825	1	4	0	160	3	0	0	100
fixed	5	1	4	979970	2	1	1	1	0	893	1	4	0	136	4	0	0	100
fixed	5	1	5	981645	5	3	3	1	0	1438	1	4	0	152	5	0	0	100
fixed	5	1	6	984066	6	4	4	1	0	783	1	4	0	160	6	0	0	100
fixed	5	1	7	985775	3	1	1	1	0	791	1	4	0	136	7	0	0	100
fixed	5	1	8	987254	2	3	3	1	0	1280	1	4	0	152	8	0	0	100
fixed	5	1	9	989114	3	2	2	1	0	594	1	4	0	144	9	0	0	100
fixed	5	1	10	990490	1	4	4	1	0	919	1	4	0	160	10	0	0	100
fixed	5	1	11	992109	5	2	2	1	0	1866	1	4	0	144	11	0	0	100
fixed	5	1	12	994401	4	3	3	1	0	641	1	4	0	152	12	0	0	100
fixed	5	2	1	995720	4	1	1	1	0	873	1	4	0	136	13	0	0	100
fixed	5	2	2	996919	1	2	2	1	0	1319	1	4	0	144	14	0	0	100
fixed	5	2	3	998581	6	4	4	1	0	872	1	4	0	160	15	0	0	100
fixed	5	2	4	1000128	2	1	1	1	0	1383	1	4	0	136	16	0	0	100
fixed	5	2	5	1002502	5	3	3	1	0	1034	1	4	0	152	17	0	0	100
fixed	5	2	6	1004064	6	4	4	1	0	1520	1	4	0	160	18	0	0	100
fixed	5	2	7	1006264	3	1	1	1	0	1259	1	4	0	136	19	0	0	100
fixed	5	2	8	1008355	2	3	3	1	0	1050	1	4	0	152	20	0	0	100
fixed	5	2	9	1010065	3	2	2	1	0	818	1	4	0	144	21	0	0	100
fixed	5	2	10	1011795	1	4	4	1	0	1049	1	4	0	160	22	0	0	100
fixed	5	2	11	1013786	5	2	2	1	0	1900	1	4	0	144	23	0	0	100
fixed	5	2	12	1016293	4	3	3	2	0	1138	2	4	0	152	24	0	0	100
fixed	5	3	1	1018108	4	1	1	1	0	1149	1	4	0	136	25	0	0	100
fixed	5	3	2	1020275	1	2	2	1	0	1338	1	4	0	144	26	0	0	100
fixed	5	3	3	1022647	6	4	4	1	0	901	1	4	0	160	27	0	0	100
fixed	5	3	4	1024291	2	1	1	1	0	1127	1	4	0	136	28	0	0	100
fixed	5	3	5	1025966	5	3	3	1	0	1760	1	4	0	152	29	0	0	100
fixed	5	3	6	1028129	6	4	4	1	0	884	1	4	0	160	30	0	0	100
fixed	5	3	7	1029743	3	1	1	1	0	1209	1	4	0	136	31	0	0	100
fixed	5	3	8	1031767	2	3	3	1	0	939	1	4	0	152	32	0	0	100
fixed	5	3	9	1033335	3	2	2	1	0	1040	1	4	0	144	33	0	0	100
fixed	5	3	10	1034667	1	4	4	1	0	904	1	4	0	160	34	0	0	100
fixed	5	3	11	1036310	5	2	2	1	0	1266	1	4	0	144	35	0	0	100
fixed	5	3	12	1038248	4	3	3	1	0	1064	1	4	0	152	36	0	0	100
fixed	5	4	1	1039961	4	1	1	1	0	943	1	4	0	136	37	0	0	100
fixed	5	4	2	1041758	1	2	2	1	0	1932	1	4	0	144	38	0	0	100
fixed	5	4	3	1044694	6	4	4	1	0	1015	1	4	0	160	39	0	0	100
fixed	5	4	4	1046443	2	1	1	1	0	1189	1	4	0	136	40	0	0	100
fixed	5	4	5	1047973	5	3	3	1	0	1044	1	4	0	152	41	0	0	100
fixed	5	4	6	1049454	6	4	4	1	0	798	1	4	0	160	42	0	0	100
fixed	5	4	7	1050844	3	1	1	1	0	1763	1	4	0	136	43	0	0	100
fixed	5	4	8	1053397	2	3	3	1	0	2431	1	4	0	152	44	0	0	100
fixed	5	4	9	1056245	3	2	2	1	0	630	1	4	0	144	45	0	0	100
fixed	5	4	10	1057639	1	4	4	1	0	1371	1	4	0	160	46	0	0	100
fixed	5	4	11	1059667	5	2	2	2	0	1653	2	4	0	144	47	0	0	100
fixed	5	4	12	1061870	4	3	3	1	0	776	1	4	0	152	48	0	0	100
fixed	5	5	1	1063285	4	1	1	1	0	1188	1	4	0	136	49	0	0	100
fixed	5	5	2	1065094	1	2	2	1	0	1671	1	4	0	144	50	0	0	100
fixed	5	5	3	1067306	6	4	4	1	0	858	1	4	0	160	51	0	0	100
fixed	5	5	4	1069135	2	1	1	1	0	844	1	4	0	136	52	0	0	100
fixed	5	5	5	1070940	5	3	3	1	0	903	1	4	0	152	53	0	0	100
fixed	5	5	6	1072763	6	4	4	1	0	1634	1	4	0	160	54	0	0	100
fixed	5	5	7	1074927	3	1	1	1	0	687	1	4	0	136	55	0	0	100
fixed	5	5	8	1076276	2	3	3	1	0	1502	1	4	0	152	56	0	0	100
fixed	5	5	9	1078459	3	2	2	1	0	705	1	4	0	144	57	0	0	100
fixed	5	5	10	1080153	1	4	4	1	0	930	1	4	0	160	58	0	0	100
fixed	5	5	11	1081717	5	2	2	1	0	1311	1	4	0	144	59	0	0	100
fixed	5	5	12	1084032	4	3	3	1	0	1173	1	4	0	152	60	0	0	100
fixed	5	6	1	1085874	4	1	1	1	0	1023	1	4	0	136	61	0	0	100
fixed	5	6	2	1087816	1	2	2	1	0	2141	1	4	0	144	62	0	0	100
fixed	5	6	3	1090398	6	4	4	1	0	1072	1	4	0	160	63	0	0	100
fixed	5	6	4	1092072	2	1	1	1	0	976	1	4	0	136	64	0	0	100
fixed	5	6	5	1093721	5	3	3	1	0	1147	1	4	0	152	65	0	0	100
fixed	5	6	6	1095259	6	4	4	1	0	1658	1	4	0	160	66	0	0	100
fixed	5	6	7	1097374	3	1	1	1	0	1736	1	4	0	136	67	0	0	100
fixed	5	6	8	1099889	2	3	3	1	0	1349	1	4	0	152	68	0	0	100
fixed	5	6	9	1102004	3	2	2	1	0	684	1	4	0	144	69	0	0	100
fixed	5	6	10	1103009	1	4	0	1	2	0	3	4	0	160	69	0	1	99
fixed	5	6	11	1106511	5	2	2	1	0	1765	1	4	0	144	70	0	1	99
fixed	5	6	12	1108858	4	3	3	1	0	1586	1	4	0	152	71	0	1	99
fixed	5	7	1	1111103	4	1	1	1	0	858	1	4	0	136	72	0	1	99
fixed	5	7	2	1112399	1	2	2	1	0	1924	1	4	0	144	73	0	1	99
fixed	5	7	3	1115207	6	4	4	1	0	861	1	4	0	160	74	0	1	99
fixed	5	7	4	1116865	2	1	1	1	0	1118	1	4	0	136	75	0	1	99
fixed	5	7	5	1118630	5	3	3	1	0	900	1	4	0	152	76	0	1	99
fixed	5	7	6	1120488	6	4	4	1	0	1013	1	4	0	160	77	0	1	99
fixed	5	7	7	1122101	3	1	1	1	0	929	1	4	0	136	78	0	1	99
fixed	5	7	8	1123715	2	3	3	1	0	1228	1	4	0	152	79	0	1	99
fixed	5	7	9	1125270	3	2	2	1	0	1026	1	4	0	144	80	0	1	99
fixed	5	7	10	1127066	1	4	4	1	0	735	1	4	0	160	81	0	1	99
fixed	5	7	11	1128146	5	2	2	1	0	1240	1	4	0	144	82	0	1	99
fixed	5	7	12	1129906	4	3	3	2	0	1342	2	4	0	152	83	0	1	99
fixed	5	8	1	1132255	4	1	1	1	0	922	1	4	0	136	84	0	1	99
fixed	5	8	2	1133719	1	2	2	1	0	1421	1	4	0	144	85	0	1	99
fixed	5	8	3	1135568	6	4	4	1	0	1030	1	4	0	160	86	0	1	99
fixed	5	8	4	1136905	2	1	1	1	0	926	1	4	0	136	87	0	1	99
fixed	5	8	5	1138264	5	3	3	1	0	1100	1	4	0	152	88	0	1	99
fixed	5	8	6	1140289	6	4	4	1	0	1062	1	4	0	160	89	0	1	99
fixed	5	8	7	1141804	3	1	1	1	0	966	1	4	0	136	90	0	1	99
fixed	5	8	8	1143579	2	3	3	1	0	1051	1	4	0	152	91	0	1	99
fixed	5	8	9	1145473	3	2	2	1	0	715	1	4	0	144	92	0	1	99
fixed	5	8	10	1146744	1	4	4	1	0	837	1	4	0	160	93	0	1	99
fixed	5	8	11	1147964	5	2	2	1	0	1169	1	4	0	144	94	0	1	99
fixed	5	8	12	1149558	4	3	3	2	0	1830	2	4	0	152	95	0	1	99
fixed	5	9	1	1152187	4	1	1	1	0	910	1	4	0	136	96	0	1	99
fixed	5	9	2	1153900	1	2	2	1	0	1350	1	4	0	144	97	0	1	99
fixed	5	9	3	1155747	6	4	4	1	0	759	1	4	0	160	98	0	1	99
fixed	5	9	4	1156864	2	1	1	1	0	1496	1	4	0	136	99	0	1	99
fixed	5	9	5	1159393	5	3	3	1	0	813	1	4	0	152	100	0	1	99
fixed	5	9	6	1160817	6	4	4	1	0	1753	1	4	0	160	101	0	1	99
fixed	5	9	7	1163542	3	1	1	1	0	894	1	4	0	136	102	0	1	99
fixed	5	9	8	1164888	2	3	3	1	0	2364	1	4	0	152	103	0	1	99
fixed	5	9	9	1167559	3	2	2	1	0	747	1	4	0	144	104	0	1	99
fixed	5	9	10	1168716	1	4	4	1	0	1338	1	4	0	160	105	0	1	99
fixed	5	9	11	1170382	5	2	2	1	0	1284	1	4	0	144	106	0	1	99
fixed	5	9	12	1172340	4	3	3	1	0	1353	1	4	0	152	107	0	1	99
fixed	5	10	1	1174308	4	1	1	1	0	1013	1	4	0	136	108	0	1	99
fixed	5	10	2	1175968	1	2	2	1	0	1767	1	4	0	144	109	0	1	99
fixed	5	10	3	1178548	6	4	4	1	0	938	1	4	0	160	110	0	1	99
fixed	5	10	4	1180442	2	1	1	1	0	1674	1	4	0	136	111	0	1	99
fixed	5	10	5	1182443	5	3	3	1	0	1501	1	4	0	152	112	0	1	99
fixed	5	10	6	1184913	6	4	4	1	0	997	1	4	0	160	113	0	1	99
fixed	5	10	7	1186284	3	1	1	1	0	1443	1	4	0	136	114	0	1	99
fixed	5	10	8	1188743	2	3	3	1	0	1826	1	4	0	152	115	0	1	99
fixed	5	10	9	1191126	3	2	2	1	0	653	1	4	0	144	116	0	1	99
fixed	5	10	10	1192460	1	4	4	1	0	1317	1	4	0	160	117	0	1	99
fixed	5	10	11	1194080	5	2	2	1	0	2280	1	4	0	144	118	0	1	99
fixed	5	10	12	1196779	4	3	3	1	0	1278	1	4	0	152	119	0	1	99
random	6	1	1	1368615	6	1	1	1	0	1679	1	4	0	168	1	0	0	100
random	6	1	2	1370951	4	4	4	1	0	933	1	4	0	192	2	0	0	100
random	6	1	3	1372878	2	2	2	1	0	1059	1	4	0	176	3	0	0	100
random	6	1	4	1374726	3	3	3	1	0	565	1	4	0	184	4	0	0	100
random	6	1	5	1376290	5	2	2	1	0	1074	1	4	0	176	5	0	0	100
random	6	1	6	1378095	1	4	4	1	0	846	1	4	0	192	6	0	0	100
random	6	1	7	1379407	6	1	1	1	0	895	1	4	0	168	7	0	0	100
random	6	1	8	1380968	2	3	3	1	0	1084	1	4	0	184	8	0	0	100
random	6	1	9	1383054	4	2	2	1	0	844	1	4	0	176	9	0	0	100
random	6	1	10	1384287	1	1	1	1	0	999	1	4	0	168	10	0	0	100
random	6	1	11	1385856	5	4	4	1	0	814	1	4	0	192	11	0	0	100
random	6	1	12	1387419	3	3	3	1	0	899	1	4	0	184	12	0	0	100
random	6	1	13	1389385	5	2	2	1	0	1040	1	4	0	176	13	0	0	100
random	6	1	14	1391370	1	4	4	1	0	676	1	4	0	192	14	0	0	100
random	6	1	15	1392923	3	1	1	1	0	850	1	4	0	168	15	0	0	100
random	6	1	16	1394583	4	3	3	1	0	916	1	4	0	184	16	0	0	100
random	6	1	17	1396015	6	4	4	1	0	807	1	4	0	192	17	0	0	100
random	6	1	18	1397579	2	1	1	1	0	741	1	4	0	168	18	0	0	100
random	6	1	19	1399269	5	3	3	1	0	1021	1	4	0	184	19	0	0	100
random	6	1	20	1401133	2	2	2	1	0	470	1	4	0	176	20	0	0	100
random	6	1	21	1402587	3	3	3	2	0	2161	2	4	0	184	21	0	0	100
random	6	1	22	1405745	6	1	1	1	0	835	1	4	0	168	22	0	0	100
random	6	1	23	1407154	4	2	2	1	0	1103	1	4	0	176	23	0	0	100
random	6	1	24	1409194	1	4	4	1	0	697	1	4	0	192	24	0	0	100
random	6	1	25	1410704	4	3	3	2	0	1937	2	4	0	184	25	0	0	100
random	6	1	26	1413290	2	1	1	1	0	852	1	4	0	168	26	0	0	100
random	6	1	27	1414505	5	2	2	1	0	1288	1	4	0	176	27	0	0	100
random	6	1	28	1416252	6	4	4	1	0	846	1	4	0	192	28	0	0	100
random	6	1	29	1417819	1	3	3	1	0	835	1	4	0	184	29	0	0	100
random	6	1	30	1419144	5	2	2	1	0	747	1	4	0	176	30	0	0	100
random	6	1	31	1420860	2	1	1	1	0	634	1	4	0	168	31	0	0	100
random	6	1	32	1422084	3	3	3	1	0	967	1	4	0	184	32	0	0	100
random	6	1	33	1424019	6	4	4	1	0	717	1	4	0	192	33	0	0	100
random	6	1	34	1425044	4	2	2	1	0	962	1	4	0	176	34	0	0	100
random	6	1	35	1426407	3	4	4	1	0	1063	1	4	0	192	35	0	0	100
random	6	1	36	1428464	1	1	1	1	0	968	1	4	0	168	36	0	0	100
random	6	1	37	1430436	3	4	4	1	0	925	1	4	0	192	37	0	0	100
random	6	1	38	1432119	5	3	0	1	2	0	3	4	0	184	37	0	1	97
random	6	1	39	1434994	6	1	1	1	0	1332	1	4	0	168	38	0	1	97
random	6	1	40	1436621	1	2	2	1	0	975	1	4	0	176	39	0	1	98
random	6	1	41	1438168	2	3	3	1	0	886	1	4	0	184	40	0	1	98
random	6	1	42	1439461	4	4	4	1	0	1111	1	4	0	192	41	0	1	98
random	6	1	43	1441603	1	2	2	1	0	916	1	4	0	176	42	0	1	98
random	6	1	44	1443241	6	3	3	1	0	711	1	4	0	184	43	0	1	98
random	6	1	45	1444521	3	1	1	1	0	776	1	4	0	168	44	0	1	98
random	6	1	46	1445680	4	4	4	1	0	1000	1	4	0	192	45	0	1	98
random	6	1	47	1447702	2	2	2	1	0	866	1	4	0	176	46	0	1	98
random	6	1	48	1448998	5	1	1	1	0	915	1	4	0	168	47	0	1	98
random	6	1	49	1450552	2	3	3	1	0	1265	1	4	0	184	48	0	1	98
random	6	1	50	1452604	3	1	1	1	0	979	1	4	0	168	49	0	1	98
random	6	1	51	1453893	1	4	4	1	0	747	1	4	0	192	50	0	1	98
random	6	1	52	1455179	5	3	3	1	0	1261	1	4	0	184	51	0	1	98
random	6	1	53	1457278	3	2	2	1	0	580	1	4	0	176	52	0	1	98
random	6	1	54	1458575	6	4	4	1	0	789	1	4	0	192	53	0	1	98
random	6	1	55	1460134	4	2	2	1	0	835	1	4	0	176	54	0	1	98
random	6	1	56	1461743	1	1	1	1	0	983	1	4	0	168	55	0	1	98
random	6	1	57	1463614	5	4	4	1	0	1048	1	4	0	192	56	0	1	98
random	6	1	58	1465447	2	1	1	1	0	970	1	4	0	168	57	0	1	98
random	6	1	59	1466890	6	2	2	1	0	1669	1	4	0	176	58	0	1	98
random	6	1	60	1469223	4	3	3	1	0	1002	1	4	0	184	59	0	1	98
random	6	1	61	1471520	1	2	2	1	0	1793	1	4	0	176	60	0	1	98
random	6	1	62	1474157	6	4	4	1	0	858	1	4	0	192	61	0	1	98
random	6	1	63	1475694	4	1	1	1	0	1968	1	4	0	168	62	0	1	98
random	6	1	64	1478187	2	2	2	2	0	1414	2	4	0	176	63	0	1	98
random	6	1	65	1480197	4	3	3	1	0	722	1	4	0	184	64	0	1	98
random	6	1	66	1481814	3	1	1	1	0	941	1	4	0	168	65	0	1	98
random	6	1	67	1483695	1	3	3	2	0	1494	2	4	0	184	66	0	1	99
random	6	1	68	1485758	5	4	4	1	0	934	1	4	0	192	67	0	1	99
random	6	1	69	1487239	2	2	2	1	0	864	1	4	0	176	68	0	1	99
random	6	1	70	1488683	3	1	1	1	0	946	1	4	0	168	69	0	1	99
random	6	1	71	1490229	5	4	4	1	0	865	1	4	0	192	70	0	1	99
random	6	1	72	1491536	6	3	3	2	0	1473	2	4	0	184	71	0	1	99
random	6	1	73	1494293	2	1	1	1	0	892	1	4	0	168	72	0	1	99
random	6	1	74	1496028	5	3	3	1	0	1107	1	4	0	184	73	0	1	99
random	6	1	75	1498077	1	4	4	1	0	716	1	4	0	192	74	0	1	99
random	6	1	76	1499484	6	2	2	1	0	817	1	4	0	176	75	0	1	99
random	6	1	77	1501116	2	1	1	1	0	804	1	4	0	168	76	0	1	99
random	6	1	78	1502320	4	4	4	1	0	1113	1	4	0	192	77	0	1	99
random	6	1	79	1504465	3	2	2	1	0	1061	1	4	0	176	78	0	1	99
random	6	1	80	1506094	4	3	3	1	0	617	1	4	0	184	79	0	1	99
random	6	1	81	1507526	1	4	4	1	0	868	1	4	0	192	80	0	1	99
random	6	1	82	1509225	5	1	1	1	0	764	1	4	0	168	81	0	1	99
random	6	1	83	1510836	3	2	2	1	0	1048	1	4	0	176	82	0	1	99
random	6	1	84	1512200	6	3	3	1	0	1038	1	4	0	184	83	0	1	99
random	6	1	85	1514074	3	2	2	1	0	1086	1	4	0	176	84	0	1	99
random	6	1	86	1515500	1	3	3	2	0	1522	2	4	0	184	85	0	1	99
random	6	1	87	1518012	4	4	4	1	0	1032	1	4	0	192	86	0	1	99
random	6	1	88	1519354	2	1	1	1	0	575	1	4	0	168	87	0	1	99
random	6	1	89	1520943	6	4	4	1	0	1012	1	4	0	192	88	0	1	99
random	6	1	90	1522324	3	3	3	1	0	1002	1	4	0	184	89	0	1	99
random	6	1	91	1523685	5	4	4	1	0	1040	1	4	0	192	90	0	1	99
random	6	1	92	1525649	1	2	2	1	0	1005	1	4	0	176	91	0	1	99
random	6	1	93	1527294	5	1	1	1	0	983	1	4	0	168	92	0	1	99
random	6	1	94	1529309	4	3	3	1	0	905	1	4	0	184	93	0	1	99
random	6	1	95	1531218	6	1	1	1	0	1552	1	4	0	168	94	0	1	99
random	6	1	96	1533322	2	2	2	1	0	703	1	4	0	176	95	0	1	99
random	6	1	97	1535160	4	3	3	1	0	873	1	4	0	184	96	0	1	99
random	6	1	98	1536540	3	2	2	1	0	887	1	4	0	176	97	0	1	99
random	6	1	99	1538124	6	3	3	1	0	1404	1	4	0	184	98	0	1	99
random	6	1	100	1540251	1	4	4	1	0	642	1	4	0	192	99	0	1	99
random	6	1	101	1541337	4	1	1	1	0	684	1	4	0	168	100	0	1	99
random	6	1	102	1542351	5	2	2	1	0	1737	1	4	0	176	101	0	1	99
random	6	1	103	1544875	2	4	4	1	0	782	1	4	0	192	102	0	1	99
random	6	1	104	1546617	3	1	1	1	0	1085	1	4	0	168	103	0	1	99
random	6	1	105	1548054	1	3	3	1	0	1024	1	4	0	184	104	0	1	99
random	6	1	106	1549704	2	2	2	1	0	706	1	4	0	176	105	0	1	99
random	6	1	107	1550795	5	4	4	1	0	812	1	4	0	192	106	0	1	99
random	6	1	108	1551914	6	1	1	1	0	916	1	4	0	168	107	0	1	99
random	6	1	109	1553906	5	4	4	1	0	823	1	4	0	192	108	0	1	99
random	6	1	110	1555336	6	3	3	1	0	971	1	4	0	184	109	0	1	99
random	6	1	111	1557161	2	2	2	1	0	926	1	4	0	176	110	0	1	99
random	6	1	112	1558821	3	1	1	1	0	767	1	4	0	168	111	0	1	99
random	6	1	113	1560598	1	2	2	1	0	1252	1	4	0	176	112	0	1	99
random	6	1	114	1562752	2	3	3	1	0	601	1	4	0	184	113	0	1	99
random	6	1	115	1564141	3	1	1	1	0	1062	1	4	0	168	114	0	1	99
random	6	1	116	1565522	4	4	4	1	0	852	1	4	0	192	115	0	1	99
random	6	1	117	1567264	6	1	1	1	0	938	1	4	0	168	116	0	1	99
random	6	1	118	1568942	5	3	3	1	0	906	1	4	0	184	117	0	1	99
random	6	1	119	1570638	1	4	4	1	0	931	1	4	0	192	118	0	1	99
random	6	1	120	1572126	4	2	2	1	0	1380	1	4	0	176	119	0	1	99
fixed	7	1	1	1575022	4	1	1	1	0	985	1	4	0	200	1	0	0	100
fixed	7	1	2	1576468	1	2	2	1	0	1076	1	4	0	208	2	0	0	100
fixed	7	1	3	1578531	6	4	4	1	0	860	1	4	0	224	3	0	0	100
fixed	7	1	4	1580252	2	1	1	1	0	891	1	4	0	200	4	0	0	100
fixed	7	1	5	1581991	5	3	3	1	0	1178	1	4	0	216	5	0	0	100
fixed	7	1	6	1583705	6	4	4	1	0	1218	1	4	0	224	6	0	0	100
fixed	7	1	7	1585567	3	1	1	1	0	906	1	4	0	200	7	0	0	100
fixed	7	1	8	1587081	2	3	3	1	0	1827	1	4	0	216	8	0	0	100
fixed	7	1	9	1589426	3	2	2	1	0	511	1	4	0	208	9	0	0	100
fixed	7	1	10	1590455	1	4	4	1	0	724	1	4	0	224	10	0	0	100
fixed	7	1	11	1592198	5	2	2	1	0	1201	1	4	0	208	11	0	0	100
fixed	7	1	12	1593717	4	3	3	2	0	1714	2	4	0	216	12	0	0	100
fixed	7	2	1	1596276	4	1	1	1	0	1069	1	4	0	200	1	0	0	8
fixed	7	2	2	1598227	1	2	2	1	0	1131	1	4	0	208	2	0	0	14
fixed	7	2	3	1599777	6	4	4	1	0	817	1	4	0	224	3	0	0	20
fixed	7	2	4	1601165	2	1	1	1	0	902	1	4	0	200	4	0	0	25
fixed	7	2	5	1602478	5	3	3	1	0	934	1	4	0	216	5	0	0	29
fixed	7	2	6	1604200	6	4	4	1	0	1333	1	4	0	224	6	0	0	33
fixed	7	2	7	1605893	3	1	1	1	0	982	1	4	0	200	7	0	0	37
fixed	7	2	8	1607187	2	3	3	1	0	1679	1	4	0	216	8	0	0	40
fixed	7	2	9	1609477	3	2	2	1	0	582	1	4	0	208	9	0	0	43
fixed	7	2	10	1610927	1	4	4	1	0	912	1	4	0	224	10	0	0	45
fixed	7	2	11	1612443	5	2	2	2	0	1656	2	4	0	208	11	0	0	48
fixed	7	2	12	1615052	4	3	3	1	0	1642	1	4	0	216	12	0	0	50
fixed	7	3	1	1617679	4	1	1	1	0	1106	1	4	0	200	1	0	0	4
fixed	7	3	2	1619831	1	2	2	1	0	1255	1	4	0	208	2	0	0	8
fixed	7	3	3	1621469	6	4	4	1	0	1138	1	4	0	224	3	0	0	11
fixed	7	3	4	1623642	2	1	1	1	0	910	1	4	0	200	4	0	0	14
fixed	7	3	5	1625582	5	3	3	1	0	1668	1	4	0	216	5	0	0	17
fixed	7	3	6	1627637	6	4	4	1	0	796	1	4	0	224	6	0	0	20
fixed	7	3	7	1629403	3	1	1	1	0	986	1	4	0	200	7	0	0	23
fixed	7	3	8	1631038	2	3	3	1	0	1053	1	4	0	216	8	0	0	25
fixed	7	3	9	1632634	3	2	2	1	0	761	1	4	0	208	9	0	0	27
fixed	7	3	10	1633938	1	4	4	1	0	1194	1	4	0	224	10	0	0	29
fixed	7	3	11	1635542	5	2	2	1	0	1270	1	4	0	208	11	0	0	31
fixed	7	3	12	1637646	4	3	3	1	0	613	1	4	0	216	12	0	0	33
fixed	7	4	1	1639332	4	1	1	1	0	885	1	4	0	200	1	0	0	3
fixed	7	4	2	1640676	1	2	2	1	0	1741	1	4	0	208	2	0	0	5
fixed	7	4	3	1642759	6	4	4	1	0	796	1	4	0	224	3	0	0	8
fixed	7	4	4	1644157	2	1	1	1	0	793	1	4	0	200	4	0	0	10
fixed	7	4	5	1645598	5	3	3	1	0	1380	1	4	0	216	5	0	0	12
fixed	7	4	6	1647392	6	4	4	1	0	2352	1	4	0	224	6	0	0	14
fixed	7	4	7	1650204	3	1	1	1	0	793	1	4	0	200	7	0	0	16
fixed	7	4	8	1651606	2	3	3	1	0	1910	1	4	0	216	8	0	0	18
fixed	7	4	9	1654530	3	2	2	1	0	786	1	4	0	208	9	0	0	20
fixed	7	4	10	1656257	1	4	4	1	0	920	1	4	0	224	10	0	0	22
fixed	7	4	11	1658004	5	2	2	1	0	1111	1	4	0	208	11	0	0	23
fixed	7	4	12	1659415	4	3	3	1	0	1051	1	4	0	216	12	0	0	25
fixed	7	5	1	1661754	4	1	1	1	0	863	1	4	0	200	1	0	0	2
fixed	7	5	2	1663217	1	2	2	1	0	1074	1	4	0	208	2	0	0	4
fixed	7	5	3	1664602	6	4	4	1	0	815	1	4	0	224	3	0	0	6
fixed	7	5	4	1665901	2	1	1	1	0	848	1	4	0	200	4	0	0	8
fixed	7	5	5	1667518	5	3	3	1	0	1131	1	4	0	216	5	0	0	9
fixed	7	5	6	1669434	6	4	4	1	0	1067	1	4	0	224	6	0	0	11
fixed	7	5	7	1671475	3	1	1	1	0	940	1	4	0	200	7	0	0	13
fixed	7	5	8	1673361	2	3	3	1	0	2084	1	4	0	216	8	0	0	14
fixed	7	5	9	1676145	3	2	2	1	0	782	1	4	0	208	9	0	0	16
fixed	7	5	10	1677322	1	4	4	1	0	828	1	4	0	224	10	0	0	17
fixed	7	5	11	1678506	5	2	2	2	0	1802	2	4	0	208	11	0	0	19
fixed	7	5	12	1680774	4	3	3	1	0	770	1	4	0	216	12	0	0	20
fixed	7	6	1	1682839	4	1	1	1	0	898	1	4	0	200	1	0	0	2
fixed	7	6	2	1684574	1	2	2	1	0	1905	1	4	0	208	2	0	0	3
fixed	7	6	3	1687051	6	4	4	1	0	720	1	4	0	224	3	0	0	5
fixed	7	6	4	1688326	2	1	1	1	0	1426	1	4	0	200	4	0	0	6
fixed	7	6	5	1690331	5	3	3	1	0	765	1	4	0	216	5	0	0	8
fixed	7	6	6	1691913	6	4	4	1	0	794	1	4	0	224	6	0	0	9
fixed	7	6	7	1693431	3	1	1	1	0	1178	1	4	0	200	7	0	0	10
fixed	7	6	8	1695592	2	3	3	1	0	1174	1	4	0	216	8	0	0	12
fixed	7	6	9	1697453	3	2	2	1	0	664	1	4	0	208	9	0	0	13
fixed	7	6	10	1698520	1	4	4	1	0	715	1	4	0	224	10	0	0	14
fixed	7	6	11	1699653	5	2	2	1	0	1522	1	4	0	208	11	0	0	15
fixed	7	6	12	1702158	4	3	3	1	0	792	1	4	0	216	12	0	0	17
fixed	7	7	1	1703706	4	1	1	1	0	751	1	4	0	200	1	0	0	1
fixed	7	7	2	1705394	1	2	2	1	0	1935	1	4	0	208	2	0	0	3
fixed	7	7	3	1707944	6	4	4	1	0	819	1	4	0	224	3	0	0	4
fixed	7	7	4	1709371	2	1	1	1	0	799	1	4	0	200	4	0	0	5
fixed	7	7	5	1710759	5	3	3	1	0	1140	1	4	0	216	5	0	0	6
fixed	7	7	6	1712824	6	4	4	1	0	1101	1	4	0	224	6	0	0	8
fixed	7	7	7	1714675	3	1	1	1	0	886	1	4	0	200	7	0	0	9
fixed	7	7	8	1716132	2	3	3	1	0	1393	1	4	0	216	8	0	0	10
fixed	7	7	9	1717912	3	2	2	1	0	653	1	4	0	208	9	0	0	11
fixed	7	7	10	1719562	1	4	4	1	0	759	1	4	0	224	10	0	0	12
fixed	7	7	11	1721142	5	2	2	1	0	1076	1	4	0	208	11	0	0	13
fixed	7	7	12	1722834	4	3	3	1	0	1245	1	4	0	216	12	0	0	14
fixed	7	8	1	1725209	4	1	1	1	0	880	1	4	0	200	1	0	0	1
fixed	7	8	2	1726937	1	2	2	1	0	1223	1	4	0	208	2	0	0	2
fixed	7	8	3	1728531	6	4	4	1	0	796	1	4	0	224	3	0	0	3
fixed	7	8	4	1730207	2	1	1	1	0	900	1	4	0	200	4	0	0	5
fixed	7	8	5	1731650	5	3	3	1	0	999	1	4	0	216	5	0	0	6
fixed	7	8	6	1733460	6	4	4	1	0	1026	1	4	0	224	6	0	0	7
fixed	7	8	7	1734982	3	1	1	1	0	1714	1	4	0	200	7	0	0	8
fixed	7	8	8	1737426	2	3	3	1	0	1026	1	4	0	216	8	0	0	9
fixed	7	8	9	1738876	3	2	2	1	0	757	1	4	0	208	9	0	0	10
fixed	7	8	10	1740583	1	4	4	1	0	917	1	4	0	224	10	0	0	11
fixed	7	8	11	1742336	5	2	2	2	0	2258	2	4	0	208	11	0	0	12
fixed	7	8	12	1745471	4	3	3	1	0	1430	1	4	0	216	12	0	0	13
fixed	7	9	1	1748182	4	1	1	1	0	1427	1	4	0	200	1	0	0	1
fixed	7	9	2	1750359	1	2	2	1	0	1463	1	4	0	208	2	0	0	2
fixed	7	9	3	1752590	6	4	4	1	0	841	1	4	0	224	3	0	0	3
fixed	7	9	4	1754003	2	1	1	1	0	788	1	4	0	200	4	0	0	4
fixed	7	9	5	1755358	5	3	3	1	0	835	1	4	0	216	5	0	0	5
fixed	7	9	6	1756797	6	4	4	1	0	990	1	4	0	224	6	0	0	6
fixed	7	9	7	1758475	3	1	1	1	0	791	1	4	0	200	7	0	0	7
fixed	7	9	8	1759587	2	3	3	1	0	976	1	4	0	216	8	0	0	8
fixed	7	9	9	1761144	3	2	2	1	0	838	1	4	0	208	9	0	0	9
fixed	7	9	10	1762716	1	4	4	1	0	835	1	4	0	224	10	0	0	9
fixed	7	9	11	1764292	5	2	2	1	0	1825	1	4	0	208	11	0	0	10
fixed	7	9	12	1766963	4	3	3	2	0	1303	2	4	0	216	12	0	0	11
fixed	7	10	1	1769200	4	1	1	1	0	1176	1	4	0	200	1	0	0	1
fixed	7	10	2	1770807	1	2	2	1	0	1197	1	4	0	208	2	0	0	2
fixed	7	10	3	1772935	6	4	4	1	0	755	1	4	0	224	3	0	0	3
fixed	7	10	4	1774227	2	1	1	1	0	1315	1	4	0	200	4	0	0	4
fixed	7	10	5	1776265	5	3	3	1	0	893	1	4	0	216	5	0	0	4
fixed	7	10	6	1777711	6	4	4	1	0	888	1	4	0	224	6	0	0	5
fixed	7	10	7	1779434	3	1	1	1	0	1135	1	4	0	200	7	0	0	6
fixed	7	10	8	1781275	2	3	3	1	0	1114	1	4	0	216	8	0	0	7
fixed	7	10	9	1783416	3	2	2	1	0	1390	1	4	0	208	9	0	0	8
fixed	7	10	10	1785124	1	4	4	1	0	1174	1	4	0	224	10	0	0	8
fixed	7	10	11	1786832	5	2	2	1	0	1550	1	4	0	208	11	0	0	9
fixed	7	10	12	1788882	4	3	3	1	0	1127	1	4	0	216	12	0	0	10
