type	block	sequ.	trial	time	Pos.	Color	Button	NumRsp	Resp_1	RT_1	R_Code	Resp_2	RT_2	Trigg.	n_hit	n_inc	n_miss	score_%

random	1	1	1	13779	6	1	1	1	0	835	1	4	0	8	1	0	0	100
random	1	1	2	15025	4	4	4	1	0	638	1	4	0	32	2	0	0	100
random	1	1	3	16389	2	2	2	1	0	1460	1	4	0	16	3	0	0	100
random	1	1	4	18804	3	3	3	1	0	566	1	4	0	24	4	0	0	100
random	1	1	5	20364	5	2	2	1	0	1212	1	4	0	16	5	0	0	100
random	1	1	6	22535	1	4	4	1	0	736	1	4	0	32	6	0	0	100
random	1	1	7	23712	6	1	1	1	0	782	1	4	0	8	7	0	0	100
random	1	1	8	24907	2	3	3	1	0	956	1	4	0	24	8	0	0	100
random	1	1	9	26640	4	2	2	1	0	715	1	4	0	16	9	0	0	100
random	1	1	10	27968	1	1	0	0	2	0	3	4	0	8	9	0	1	90
random	1	1	11	31082	5	4	4	1	0	726	1	4	0	32	10	0	1	91
random	1	1	12	32803	3	3	3	1	0	869	1	4	0	24	11	0	1	92
random	1	1	13	34481	5	2	2	1	0	758	1	4	0	16	12	0	1	92
random	1	1	14	35704	1	4	4	1	0	674	1	4	0	32	13	0	1	93
random	1	1	15	36746	3	1	1	1	0	622	1	4	0	8	14	0	1	93
random	1	1	16	37862	4	3	3	1	0	1007	1	4	0	24	15	0	1	94
random	1	1	17	39421	6	4	4	1	0	637	1	4	0	32	16	0	1	94
random	1	1	18	40789	2	1	1	1	0	699	1	4	0	8	17	0	1	94
random	1	1	19	42327	5	3	3	1	0	922	1	4	0	24	18	0	1	95
random	1	1	20	43653	2	2	2	1	0	617	1	4	0	16	19	0	1	95
random	1	1	21	44911	3	3	3	1	0	788	1	4	0	24	20	0	1	95
random	1	1	22	46728	6	1	1	1	0	823	1	4	0	8	21	0	1	95
random	1	1	23	48292	4	2	2	1	0	894	1	4	0	16	22	0	1	96
random	1	1	24	49745	1	4	4	1	0	696	1	4	0	32	23	0	1	96
random	1	1	25	51307	4	3	3	1	0	989	1	4	0	24	24	0	1	96
random	1	1	26	52761	2	1	1	1	0	768	1	4	0	8	25	0	1	96
random	1	1	27	54247	5	2	2	1	0	857	1	4	0	16	26	0	1	96
random	1	1	28	55401	6	4	4	1	0	656	1	4	0	32	27	0	1	96
random	1	1	29	56777	1	3	0	1	2	0	3	4	0	24	27	0	2	93
random	1	1	30	60042	5	2	2	1	0	1004	1	4	0	16	28	0	2	93
random	1	1	31	61348	2	1	1	1	0	764	1	4	0	8	29	0	2	94
random	1	1	32	62703	3	3	3	1	0	875	1	4	0	24	30	0	2	94
random	1	1	33	63896	6	4	4	1	0	680	1	4	0	32	31	0	2	94
random	1	1	34	65090	4	2	2	1	0	726	1	4	0	16	32	0	2	94
random	1	1	35	66638	3	4	4	1	0	772	1	4	0	32	33	0	2	94
random	1	1	36	68266	1	1	1	1	0	1143	1	4	0	8	34	0	2	94
random	1	1	37	70270	3	4	4	1	0	874	1	4	0	32	35	0	2	95
random	1	1	38	71655	5	3	3	1	0	960	1	4	0	24	36	0	2	95
random	1	1	39	73446	6	1	1	1	0	820	1	4	0	8	37	0	2	95
random	1	1	40	74621	1	2	2	1	0	746	1	4	0	16	38	0	2	95
random	1	1	41	75763	2	3	3	1	0	778	1	4	0	24	39	0	2	95
random	1	1	42	77142	4	4	4	1	0	623	1	4	0	32	40	0	2	95
random	1	1	43	78634	1	2	2	1	0	736	1	4	0	16	41	0	2	95
random	1	1	44	79694	6	3	3	1	0	915	1	4	0	24	42	0	2	95
random	1	1	45	81536	3	1	1	1	0	789	1	4	0	8	43	0	2	96
random	1	1	46	83212	4	4	4	1	0	598	1	4	0	32	44	0	2	96
random	1	1	47	84392	2	2	2	1	0	676	1	4	0	16	45	0	2	96
random	1	1	48	85896	5	1	1	1	0	725	1	4	0	8	46	0	2	96
random	1	1	49	87713	2	3	3	1	0	903	1	4	0	24	47	0	2	96
random	1	1	50	89247	3	1	1	1	0	807	1	4	0	8	48	0	2	96
random	1	1	51	90984	1	4	4	1	0	613	1	4	0	32	49	0	2	96
random	1	1	52	92571	5	3	3	1	0	1018	1	4	0	24	50	0	2	96
random	1	1	53	94476	3	2	2	2	0	1313	2	4	0	16	51	0	2	96
random	1	1	54	96341	6	4	4	1	0	650	1	4	0	32	52	0	2	96
random	1	1	55	97315	4	2	2	1	0	817	1	4	0	16	53	0	2	96
random	1	1	56	98834	1	1	1	1	0	753	1	4	0	8	54	0	2	96
random	1	1	57	100519	5	4	4	1	0	705	1	4	0	32	55	0	2	96
random	1	1	58	101922	2	1	1	1	0	694	1	4	0	8	56	0	2	97
random	1	1	59	103237	6	2	2	1	0	942	1	4	0	16	57	0	2	97
random	1	1	60	104902	4	3	3	1	0	680	1	4	0	24	58	0	2	97
random	1	1	61	106793	1	2	2	1	0	967	1	4	0	16	59	0	2	97
random	1	1	62	108553	6	4	4	1	0	645	1	4	0	32	60	0	2	97
random	1	1	63	109902	4	1	1	1	0	724	1	4	0	8	61	0	2	97
random	1	1	64	111423	2	2	2	1	0	923	1	4	0	16	62	0	2	97
random	1	1	65	113074	4	3	3	1	0	781	1	4	0	24	63	0	2	97
random	1	1	66	114292	3	1	1	1	0	842	1	4	0	8	64	0	2	97
random	1	1	67	115699	1	3	3	1	0	878	1	4	0	24	65	0	2	97
random	1	1	68	117091	5	4	4	1	0	1147	1	4	0	32	66	0	2	97
random	1	1	69	118858	2	2	2	1	0	872	1	4	0	16	67	0	2	97
random	1	1	70	120574	3	1	1	1	0	800	1	4	0	8	68	0	2	97
random	1	1	71	122214	5	4	4	1	0	738	1	4	0	32	69	0	2	97
random	1	1	72	123456	6	3	3	1	0	1166	1	4	0	24	70	0	2	97
random	1	1	73	125456	2	1	1	1	0	841	1	4	0	8	71	0	2	97
random	1	1	74	126746	5	3	3	1	0	1234	1	4	0	24	72	0	2	97
random	1	1	75	128380	1	4	4	1	0	709	1	4	0	32	73	0	2	97
random	1	1	76	129766	6	2	2	1	0	730	1	4	0	16	74	0	2	97
random	1	1	77	131408	2	1	1	1	0	645	1	4	0	8	75	0	2	97
random	1	1	78	132462	4	4	4	1	0	728	1	4	0	32	76	0	2	97
random	1	1	79	133744	3	2	2	1	0	770	1	4	0	16	77	0	2	97
random	1	1	80	135049	4	3	3	1	0	739	1	4	0	24	78	0	2	98
random	1	1	81	136130	1	4	4	1	0	781	1	4	0	32	79	0	2	98
random	1	1	82	137209	5	1	1	1	0	1239	1	4	0	8	80	0	2	98
random	1	1	83	138920	3	2	2	1	0	878	1	4	0	16	81	0	2	98
random	1	1	84	140453	6	3	3	1	0	918	1	4	0	24	82	0	2	98
random	1	1	85	142163	3	2	2	1	0	885	1	4	0	16	83	0	2	98
random	1	1	86	143390	1	3	3	1	0	817	1	4	0	24	84	0	2	98
random	1	1	87	144686	4	4	4	1	0	714	1	4	0	32	85	0	2	98
random	1	1	88	145825	2	1	1	1	0	706	1	4	0	8	86	0	2	98
random	1	1	89	147167	6	4	4	1	0	618	1	4	0	32	87	0	2	98
random	1	1	90	148443	3	3	3	1	0	787	1	4	0	24	88	0	2	98
random	1	1	91	149996	5	4	4	1	0	674	1	4	0	32	89	0	2	98
random	1	1	92	151603	1	2	2	1	0	1141	1	4	0	16	90	0	2	98
random	1	1	93	153777	5	1	1	1	0	633	1	4	0	8	91	0	2	98
random	1	1	94	154986	4	3	3	1	0	678	1	4	0	24	92	0	2	98
random	1	1	95	156584	6	1	1	1	0	730	1	4	0	8	93	0	2	98
random	1	1	96	158034	2	2	2	1	0	741	1	4	0	16	94	0	2	98
random	1	1	97	159924	4	3	3	1	0	877	1	4	0	24	95	0	2	98
random	1	1	98	161379	3	2	2	1	0	951	1	4	0	16	96	0	2	98
random	1	1	99	163147	6	3	3	1	0	1100	1	4	0	24	97	0	2	98
random	1	1	100	165090	1	4	4	1	0	730	1	4	0	32	98	0	2	98
random	1	1	101	166750	4	1	1	1	0	668	1	4	0	8	99	0	2	98
random	1	1	102	168340	5	2	2	1	0	641	1	4	0	16	100	0	2	98
random	1	1	103	169743	2	4	4	1	0	638	1	4	0	32	101	0	2	98
random	1	1	104	170950	3	1	1	1	0	658	1	4	0	8	102	0	2	98
random	1	1	105	171940	1	3	3	1	0	928	1	4	0	24	103	0	2	98
random	1	1	106	173542	2	2	2	1	0	684	1	4	0	16	104	0	2	98
random	1	1	107	174992	5	4	4	1	0	567	1	4	0	32	105	0	2	98
random	1	1	108	176323	6	1	1	1	0	1023	1	4	0	8	106	0	2	98
random	1	1	109	178419	5	4	4	1	0	678	1	4	0	32	107	0	2	98
random	1	1	110	179869	6	3	3	1	0	1113	1	4	0	24	108	0	2	98
random	1	1	111	181549	2	2	2	1	0	601	1	4	0	16	109	0	2	98
random	1	1	112	182969	3	1	1	1	0	733	1	4	0	8	110	0	2	98
random	1	1	113	184370	1	2	2	1	0	682	1	4	0	16	111	0	2	98
random	1	1	114	186043	2	3	3	1	0	731	1	4	0	24	112	0	2	98
random	1	1	115	187757	3	1	1	1	0	722	1	4	0	8	113	0	2	98
random	1	1	116	189312	4	4	4	1	0	544	1	4	0	32	114	0	2	98
random	1	1	117	190564	6	1	1	1	0	643	1	4	0	8	115	0	2	98
random	1	1	118	191953	5	3	3	1	0	832	1	4	0	24	116	0	2	98
random	1	1	119	193507	1	4	4	2	0	1471	2	4	0	32	117	0	2	98
random	1	1	120	195629	4	2	2	1	0	821	1	4	0	16	118	0	2	98
fixed	2	1	1	197514	4	1	1	1	0	781	1	4	0	40	1	0	0	100
fixed	2	1	2	199155	1	2	2	1	0	911	1	4	0	48	2	0	0	100
fixed	2	1	3	200682	6	4	4	1	0	679	1	4	0	64	3	0	0	100
fixed	2	1	4	201832	2	1	1	1	0	622	1	4	0	40	4	0	0	100
fixed	2	1	5	202830	5	3	3	1	0	868	1	4	0	56	5	0	0	100
fixed	2	1	6	203990	6	4	4	1	0	683	1	4	0	64	6	0	0	100
fixed	2	1	7	205510	3	1	1	1	0	634	1	4	0	40	7	0	0	100
fixed	2	1	8	206754	2	3	3	1	0	773	1	4	0	56	8	0	0	100
fixed	2	1	9	207963	3	2	2	1	0	826	1	4	0	48	9	0	0	100
fixed	2	1	10	209691	1	4	4	1	0	594	1	4	0	64	10	0	0	100
fixed	2	1	11	210690	5	2	2	1	0	823	1	4	0	48	11	0	0	100
fixed	2	1	12	212477	4	3	3	1	0	739	1	4	0	56	12	0	0	100
fixed	2	2	1	214090	4	1	1	1	0	687	1	4	0	40	13	0	0	100
fixed	2	2	2	215525	1	2	2	1	0	818	1	4	0	48	14	0	0	100
fixed	2	2	3	217178	6	4	4	1	0	637	1	4	0	64	15	0	0	100
fixed	2	2	4	218416	2	1	1	1	0	687	1	4	0	40	16	0	0	100
fixed	2	2	5	219758	5	3	3	1	0	807	1	4	0	56	17	0	0	100
fixed	2	2	6	221400	6	4	4	1	0	897	1	4	0	64	18	0	0	100
fixed	2	2	7	223006	3	1	1	1	0	629	1	4	0	40	19	0	0	100
fixed	2	2	8	224171	2	3	3	1	0	772	1	4	0	56	20	0	0	100
fixed	2	2	9	225388	3	2	2	1	0	880	1	4	0	48	21	0	0	100
fixed	2	2	10	226952	1	4	4	1	0	646	1	4	0	64	22	0	0	100
fixed	2	2	11	228327	5	2	2	1	0	740	1	4	0	48	23	0	0	100
fixed	2	2	12	229836	4	3	3	1	0	668	1	4	0	56	24	0	0	100
fixed	2	3	1	231399	4	1	1	1	0	674	1	4	0	40	25	0	0	100
fixed	2	3	2	232498	1	2	2	1	0	844	1	4	0	48	26	0	0	100
fixed	2	3	3	234018	6	4	4	1	0	603	1	4	0	64	27	0	0	100
fixed	2	3	4	235210	2	1	1	1	0	872	1	4	0	40	28	0	0	100
fixed	2	3	5	237020	5	3	3	1	0	868	1	4	0	56	29	0	0	100
fixed	2	3	6	238663	6	4	4	1	0	622	1	4	0	64	30	0	0	100
fixed	2	3	7	239884	3	1	1	1	0	698	1	4	0	40	31	0	0	100
fixed	2	3	8	241365	2	3	3	1	0	780	1	4	0	56	32	0	0	100
fixed	2	3	9	242968	3	2	2	1	0	520	1	4	0	48	33	0	0	100
fixed	2	3	10	244202	1	4	4	1	0	612	1	4	0	64	34	0	0	100
fixed	2	3	11	245331	5	2	2	1	0	803	1	4	0	48	35	0	0	100
fixed	2	3	12	246514	4	3	3	1	0	794	1	4	0	56	36	0	0	100
fixed	2	4	1	248508	4	1	1	1	0	725	1	4	0	40	37	0	0	100
fixed	2	4	2	250104	1	2	2	1	0	1162	1	4	0	48	38	0	0	100
fixed	2	4	3	252177	6	4	4	1	0	634	1	4	0	64	39	0	0	100
fixed	2	4	4	253619	2	1	1	1	0	668	1	4	0	40	40	0	0	100
fixed	2	4	5	254951	5	3	3	1	0	869	1	4	0	56	41	0	0	100
fixed	2	4	6	256229	6	4	4	1	0	622	1	4	0	64	42	0	0	100
fixed	2	4	7	257468	3	1	1	1	0	706	1	4	0	40	43	0	0	100
fixed	2	4	8	258763	2	3	3	1	0	730	1	4	0	56	44	0	0	100
fixed	2	4	9	260176	3	2	2	1	0	959	1	4	0	48	45	0	0	100
fixed	2	4	10	261677	1	4	4	1	0	607	1	4	0	64	46	0	0	100
fixed	2	4	11	262713	5	2	2	1	0	811	1	4	0	48	47	0	0	100
fixed	2	4	12	263955	4	3	3	1	0	751	1	4	0	56	48	0	0	100
fixed	2	5	1	265266	4	1	1	1	0	671	1	4	0	40	49	0	0	100
fixed	2	5	2	266652	1	2	2	1	0	1780	1	4	0	48	50	0	0	100
fixed	2	5	3	268927	6	4	4	1	0	716	1	4	0	64	51	0	0	100
fixed	2	5	4	270091	2	1	1	1	0	827	1	4	0	40	52	0	0	100
fixed	2	5	5	271596	5	3	3	1	0	1139	1	4	0	56	53	0	0	100
fixed	2	5	6	273225	6	4	4	1	0	630	1	4	0	64	54	0	0	100
fixed	2	5	7	274590	3	1	1	1	0	636	1	4	0	40	55	0	0	100
fixed	2	5	8	275589	2	3	3	1	0	962	1	4	0	56	56	0	0	100
fixed	2	5	9	277355	3	2	2	1	0	512	1	4	0	48	57	0	0	100
fixed	2	5	10	278779	1	4	4	1	0	587	1	4	0	64	58	0	0	100
fixed	2	5	11	279745	5	2	2	1	0	778	1	4	0	48	59	0	0	100
fixed	2	5	12	281483	4	3	3	1	0	705	1	4	0	56	60	0	0	100
fixed	2	6	1	283176	4	1	1	1	0	729	1	4	0	40	61	0	0	100
fixed	2	6	2	284666	1	2	2	1	0	938	1	4	0	48	62	0	0	100
fixed	2	6	3	286453	6	4	4	1	0	638	1	4	0	64	63	0	0	100
fixed	2	6	4	287610	2	1	1	1	0	1165	1	4	0	40	64	0	0	100
fixed	2	6	5	289551	5	3	3	1	0	787	1	4	0	56	65	0	0	100
fixed	2	6	6	290842	6	4	4	1	0	740	1	4	0	64	66	0	0	100
fixed	2	6	7	292389	3	1	1	1	0	651	1	4	0	40	67	0	0	100
fixed	2	6	8	294036	2	3	3	1	0	781	1	4	0	56	68	0	0	100
fixed	2	6	9	295444	3	2	2	1	0	897	1	4	0	48	69	0	0	100
fixed	2	6	10	297349	1	4	4	1	0	680	1	4	0	64	70	0	0	100
fixed	2	6	11	298959	5	2	2	1	0	765	1	4	0	48	71	0	0	100
fixed	2	6	12	300379	4	3	3	1	0	872	1	4	0	56	72	0	0	100
fixed	2	7	1	302056	4	1	1	1	0	649	1	4	0	40	73	0	0	100
fixed	2	7	2	303244	1	2	2	1	0	759	1	4	0	48	74	0	0	100
fixed	2	7	3	304658	6	4	4	1	0	611	1	4	0	64	75	0	0	100
fixed	2	7	4	306098	2	1	1	1	0	654	1	4	0	40	76	0	0	100
fixed	2	7	5	307429	5	3	3	1	0	830	1	4	0	56	77	0	0	100
fixed	2	7	6	308543	6	4	4	1	0	654	1	4	0	64	78	0	0	100
fixed	2	7	7	310126	3	1	1	1	0	859	1	4	0	40	79	0	0	100
fixed	2	7	8	311737	2	3	3	1	0	887	1	4	0	56	80	0	0	100
fixed	2	7	9	313557	3	2	2	1	0	690	1	4	0	48	81	0	0	100
fixed	2	7	10	314651	1	4	4	1	0	635	1	4	0	64	82	0	0	100
fixed	2	7	11	315888	5	2	2	1	0	991	1	4	0	48	83	0	0	100
fixed	2	7	12	317870	4	3	3	1	0	571	1	4	0	56	84	0	0	100
fixed	2	8	1	319315	4	1	1	1	0	598	1	4	0	40	85	0	0	100
fixed	2	8	2	320927	1	2	2	1	0	842	1	4	0	48	86	0	0	100
fixed	2	8	3	322715	6	4	4	1	0	574	1	4	0	64	87	0	0	100
fixed	2	8	4	323794	2	1	1	1	0	1088	1	4	0	40	88	0	0	100
fixed	2	8	5	325643	5	3	3	1	0	803	1	4	0	56	89	0	0	100
fixed	2	8	6	327191	6	4	4	1	0	681	1	4	0	64	90	0	0	100
fixed	2	8	7	328456	3	1	1	1	0	715	1	4	0	40	91	0	0	100
fixed	2	8	8	329976	2	3	3	1	0	954	1	4	0	56	92	0	0	100
fixed	2	8	9	331697	3	2	2	1	0	530	1	4	0	48	93	0	0	100
fixed	2	8	10	332908	1	4	4	1	0	631	1	4	0	64	94	0	0	100
fixed	2	8	11	333822	5	2	2	1	0	912	1	4	0	48	95	0	0	100
fixed	2	8	12	335470	4	3	3	1	0	698	1	4	0	56	96	0	0	100
fixed	2	9	1	336724	4	1	1	1	0	677	1	4	0	40	97	0	0	100
fixed	2	9	2	337778	1	2	2	1	0	824	1	4	0	48	98	0	0	100
fixed	2	9	3	339136	6	4	4	1	0	663	1	4	0	64	99	0	0	100
fixed	2	9	4	340301	2	1	1	1	0	701	1	4	0	40	100	0	0	100
fixed	2	9	5	341977	5	3	3	1	0	942	1	4	0	56	101	0	0	100
fixed	2	9	6	343836	6	4	4	1	0	648	1	4	0	64	102	0	0	100
fixed	2	9	7	345182	3	1	1	1	0	630	1	4	0	40	103	0	0	100
fixed	2	9	8	346721	2	3	3	1	0	1109	1	4	0	56	104	0	0	100
fixed	2	9	9	348654	3	2	2	1	0	467	1	4	0	48	105	0	0	100
fixed	2	9	10	349957	1	4	4	1	0	628	1	4	0	64	106	0	0	100
fixed	2	9	11	350920	5	2	2	1	0	900	1	4	0	48	107	0	0	100
fixed	2	9	12	352578	4	3	3	1	0	781	1	4	0	56	108	0	0	100
fixed	2	10	1	354301	4	1	1	1	0	700	1	4	0	40	109	0	0	100
fixed	2	10	2	355815	1	2	2	1	0	804	1	4	0	48	110	0	0	100
fixed	2	10	3	357410	6	4	4	1	0	664	1	4	0	64	111	0	0	100
fixed	2	10	4	359103	2	1	1	1	0	1177	1	4	0	40	112	0	0	100
fixed	2	10	5	360955	5	3	3	1	0	946	1	4	0	56	113	0	0	100
fixed	2	10	6	362294	6	4	4	1	0	730	1	4	0	64	114	0	0	100
fixed	2	10	7	363854	3	1	1	1	0	640	1	4	0	40	115	0	0	100
fixed	2	10	8	365096	2	3	3	1	0	803	1	4	0	56	116	0	0	100
fixed	2	10	9	366342	3	2	2	1	0	767	1	4	0	48	117	0	0	100
fixed	2	10	10	368057	1	4	4	1	0	750	1	4	0	64	118	0	0	100
fixed	2	10	11	369581	5	2	2	1	0	901	1	4	0	48	119	0	0	100
fixed	2	10	12	370971	4	3	3	1	0	811	1	4	0	56	120	0	0	100
fixed	3	1	1	372927	4	1	1	1	0	775	1	4	0	72	1	0	0	100
fixed	3	1	2	374660	1	2	2	1	0	838	1	4	0	80	2	0	0	100
fixed	3	1	3	376519	6	4	4	1	0	688	1	4	0	96	3	0	0	100
fixed	3	1	4	377547	2	1	1	1	0	652	1	4	0	72	4	0	0	100
fixed	3	1	5	379026	5	3	3	1	0	805	1	4	0	88	5	0	0	100
fixed	3	1	6	380403	6	4	4	1	0	723	1	4	0	96	6	0	0	100
fixed	3	1	7	381962	3	1	1	1	0	721	1	4	0	72	7	0	0	100
fixed	3	1	8	383606	2	3	3	1	0	755	1	4	0	88	8	0	0	100
fixed	3	1	9	384830	3	2	2	1	0	543	1	4	0	80	9	0	0	100
fixed	3	1	10	386097	1	4	4	1	0	601	1	4	0	96	10	0	0	100
fixed	3	1	11	387743	5	2	2	1	0	756	1	4	0	80	11	0	0	100
fixed	3	1	12	389327	4	3	3	1	0	713	1	4	0	88	12	0	0	100
fixed	3	2	1	390673	4	1	1	1	0	711	1	4	0	72	13	0	0	100
fixed	3	2	2	392185	1	2	2	1	0	816	1	4	0	80	14	0	0	100
fixed	3	2	3	393482	6	4	4	1	0	929	1	4	0	96	15	0	0	100
fixed	3	2	4	395197	2	1	1	1	0	576	1	4	0	72	16	0	0	100
fixed	3	2	5	396442	5	3	3	1	0	883	1	4	0	88	17	0	0	100
fixed	3	2	6	397880	6	4	4	1	0	806	1	4	0	96	18	0	0	100
fixed	3	2	7	399171	3	1	1	1	0	1032	1	4	0	72	19	0	0	100
fixed	3	2	8	400645	2	3	3	1	0	794	1	4	0	88	20	0	0	100
fixed	3	2	9	401768	3	2	2	1	0	882	1	4	0	80	21	0	0	100
fixed	3	2	10	403092	1	4	4	1	0	1250	1	4	0	96	22	0	0	100
fixed	3	2	11	404985	5	2	2	1	0	786	1	4	0	80	23	0	0	100
fixed	3	2	12	406504	4	3	3	1	0	633	1	4	0	88	24	0	0	100
fixed	3	3	1	407916	4	1	1	1	0	645	1	4	0	72	25	0	0	100
fixed	3	3	2	408882	1	2	2	1	0	828	1	4	0	80	26	0	0	100
fixed	3	3	3	410705	6	4	4	1	0	807	1	4	0	96	27	0	0	100
fixed	3	3	4	411904	2	1	1	1	0	741	1	4	0	72	28	0	0	100
fixed	3	3	5	413165	5	3	3	1	0	847	1	4	0	88	29	0	0	100
fixed	3	3	6	414428	6	4	4	1	0	802	1	4	0	96	30	0	0	100
fixed	3	3	7	416019	3	1	1	1	0	614	1	4	0	72	31	0	0	100
fixed	3	3	8	417078	2	3	3	1	0	737	1	4	0	88	32	0	0	100
fixed	3	3	9	418825	3	2	2	1	0	807	1	4	0	80	33	0	0	100
fixed	3	3	10	420297	1	4	4	1	0	657	1	4	0	96	34	0	0	100
fixed	3	3	11	421613	5	2	2	1	0	777	1	4	0	80	35	0	0	100
fixed	3	3	12	422868	4	3	3	1	0	852	1	4	0	88	36	0	0	100
fixed	3	4	1	424373	4	1	1	1	0	708	1	4	0	72	37	0	0	100
fixed	3	4	2	425495	1	2	2	1	0	773	1	4	0	80	38	0	0	100
fixed	3	4	3	426915	6	4	4	1	0	657	1	4	0	96	39	0	0	100
fixed	3	4	4	428367	2	1	1	1	0	747	1	4	0	72	40	0	0	100
fixed	3	4	5	430103	5	3	3	1	0	793	1	4	0	88	41	0	0	100
fixed	3	4	6	431352	6	4	0	0	2	0	3	4	0	96	41	0	1	98
fixed	3	4	7	434875	3	1	1	1	0	688	1	4	0	72	42	0	1	98
fixed	3	4	8	436374	2	3	3	1	0	808	1	4	0	88	43	0	1	98
fixed	3	4	9	437746	3	2	2	1	0	870	1	4	0	80	44	0	1	98
fixed	3	4	10	439154	1	4	4	1	0	667	1	4	0	96	45	0	1	98
fixed	3	4	11	440118	5	2	2	1	0	914	1	4	0	80	46	0	1	98
fixed	3	4	12	441744	4	3	3	1	0	717	1	4	0	88	47	0	1	98
fixed	3	5	1	443586	4	1	1	1	0	710	1	4	0	72	48	0	1	98
fixed	3	5	2	444705	1	2	2	1	0	751	1	4	0	80	49	0	1	98
fixed	3	5	3	446442	6	4	4	1	0	581	1	4	0	96	50	0	1	98
fixed	3	5	4	447498	2	1	1	1	0	737	1	4	0	72	51	0	1	98
fixed	3	5	5	448550	5	3	3	1	0	1012	1	4	0	88	52	0	1	98
fixed	3	5	6	450144	6	4	4	1	0	665	1	4	0	96	53	0	1	98
fixed	3	5	7	451193	3	1	1	1	0	700	1	4	0	72	54	0	1	98
fixed	3	5	8	452331	2	3	3	1	0	732	1	4	0	88	55	0	1	98
fixed	3	5	9	453356	3	2	2	1	0	777	1	4	0	80	56	0	1	98
fixed	3	5	10	455133	1	4	4	1	0	805	1	4	0	96	57	0	1	98
fixed	3	5	11	456488	5	2	2	1	0	756	1	4	0	80	58	0	1	98
fixed	3	5	12	457596	4	3	3	1	0	949	1	4	0	88	59	0	1	98
fixed	3	6	1	459442	4	1	1	1	0	751	1	4	0	72	60	0	1	98
fixed	3	6	2	460637	1	2	2	1	0	789	1	4	0	80	61	0	1	98
fixed	3	6	3	462386	6	4	4	1	0	658	1	4	0	96	62	0	1	98
fixed	3	6	4	464027	2	1	1	1	0	701	1	4	0	72	63	0	1	98
fixed	3	6	5	465125	5	3	3	1	0	838	1	4	0	88	64	0	1	98
fixed	3	6	6	466806	6	4	4	1	0	623	1	4	0	96	65	0	1	98
fixed	3	6	7	468090	3	1	1	1	0	649	1	4	0	72	66	0	1	99
fixed	3	6	8	469671	2	3	3	1	0	814	1	4	0	88	67	0	1	99
fixed	3	6	9	470838	3	2	2	1	0	636	1	4	0	80	68	0	1	99
fixed	3	6	10	472470	1	4	4	1	0	655	1	4	0	96	69	0	1	99
fixed	3	6	11	473847	5	2	2	1	0	789	1	4	0	80	70	0	1	99
fixed	3	6	12	475089	4	3	3	1	0	696	1	4	0	88	71	0	1	99
fixed	3	7	1	476935	4	1	1	1	0	850	1	4	0	72	72	0	1	99
fixed	3	7	2	478448	1	2	2	1	0	714	1	4	0	80	73	0	1	99
fixed	3	7	3	480042	6	4	4	1	0	598	1	4	0	96	74	0	1	99
fixed	3	7	4	481600	2	1	1	1	0	996	1	4	0	72	75	0	1	99
fixed	3	7	5	483106	5	3	3	1	0	1309	1	4	0	88	76	0	1	99
fixed	3	7	6	485012	6	4	4	1	0	716	1	4	0	96	77	0	1	99
fixed	3	7	7	486100	3	1	1	1	0	814	1	4	0	72	78	0	1	99
fixed	3	7	8	487498	2	3	3	1	0	883	1	4	0	88	79	0	1	99
fixed	3	7	9	489362	3	2	2	1	0	524	1	4	0	80	80	0	1	99
fixed	3	7	10	490719	1	4	4	1	0	602	1	4	0	96	81	0	1	99
fixed	3	7	11	491856	5	2	2	1	0	730	1	4	0	80	82	0	1	99
fixed	3	7	12	492912	4	3	3	1	0	677	1	4	0	88	83	0	1	99
fixed	3	8	1	494745	4	1	1	1	0	687	1	4	0	72	84	0	1	99
fixed	3	8	2	495752	1	2	2	1	0	797	1	4	0	80	85	0	1	99
fixed	3	8	3	496903	6	4	4	1	0	588	1	4	0	96	86	0	1	99
fixed	3	8	4	497793	2	1	1	1	0	655	1	4	0	72	87	0	1	99
fixed	3	8	5	499238	5	3	3	1	0	801	1	4	0	88	88	0	1	99
fixed	3	8	6	500881	6	4	4	1	0	644	1	4	0	96	89	0	1	99
fixed	3	8	7	502174	3	1	1	1	0	653	1	4	0	72	90	0	1	99
fixed	3	8	8	503799	2	3	3	1	0	760	1	4	0	88	91	0	1	99
fixed	3	8	9	505140	3	2	2	1	0	727	1	4	0	80	92	0	1	99
fixed	3	8	10	506504	1	4	4	1	0	630	1	4	0	96	93	0	1	99
fixed	3	8	11	508003	5	2	2	1	0	678	1	4	0	80	94	0	1	99
fixed	3	8	12	508972	4	3	3	1	0	941	1	4	0	88	95	0	1	99
fixed	3	9	1	511136	4	1	1	1	0	721	1	4	0	72	96	0	1	99
fixed	3	9	2	512263	1	2	2	1	0	1050	1	4	0	80	97	0	1	99
fixed	3	9	3	513691	6	4	4	1	0	653	1	4	0	96	98	0	1	99
fixed	3	9	4	514748	2	1	1	1	0	704	1	4	0	72	99	0	1	99
fixed	3	9	5	516449	5	3	3	1	0	1048	1	4	0	88	100	0	1	99
fixed	3	9	6	517900	6	4	4	1	0	651	1	4	0	96	101	0	1	99
fixed	3	9	7	519233	3	1	1	1	0	699	1	4	0	72	102	0	1	99
fixed	3	9	8	520399	2	3	3	1	0	785	1	4	0	88	103	0	1	99
fixed	3	9	9	521880	3	2	2	1	0	834	1	4	0	80	104	0	1	99
fixed	3	9	10	523387	1	4	4	1	0	595	1	4	0	96	105	0	1	99
fixed	3	9	11	524746	5	2	2	1	0	689	1	4	0	80	106	0	1	99
fixed	3	9	12	526360	4	3	3	1	0	709	1	4	0	88	107	0	1	99
fixed	3	10	1	527626	4	1	1	1	0	679	1	4	0	72	108	0	1	99
fixed	3	10	2	528764	1	2	2	1	0	783	1	4	0	80	109	0	1	99
fixed	3	10	3	530384	6	4	4	1	0	554	1	4	0	96	110	0	1	99
fixed	3	10	4	531384	2	1	1	1	0	720	1	4	0	72	111	0	1	99
fixed	3	10	5	532829	5	3	3	1	0	747	1	4	0	88	112	0	1	99
fixed	3	10	6	534495	6	4	4	1	0	628	1	4	0	96	113	0	1	99
fixed	3	10	7	535580	3	1	1	1	0	542	1	4	0	72	114	0	1	99
fixed	3	10	8	537054	2	3	3	1	0	808	1	4	0	88	115	0	1	99
fixed	3	10	9	538758	3	2	2	1	0	647	1	4	0	80	116	0	1	99
fixed	3	10	10	540110	1	4	4	1	0	654	1	4	0	96	117	0	1	99
fixed	3	10	11	541263	5	2	2	1	0	653	1	4	0	80	118	0	1	99
fixed	3	10	12	542791	4	3	3	1	0	1133	1	4	0	88	119	0	1	99
fixed	4	1	1	689354	4	1	1	1	0	813	1	4	0	104	1	0	0	100
fixed	4	1	2	690822	1	2	2	1	0	935	1	4	0	112	2	0	0	100
fixed	4	1	3	692727	6	4	4	1	0	742	1	4	0	128	3	0	0	100
fixed	4	1	4	694276	2	1	1	1	0	677	1	4	0	104	4	0	0	100
fixed	4	1	5	695406	5	3	3	1	0	1060	1	4	0	120	5	0	0	100
fixed	4	1	6	697169	6	4	4	1	0	746	1	4	0	128	6	0	0	100
fixed	4	1	7	698696	3	1	1	1	0	705	1	4	0	104	7	0	0	100
fixed	4	1	8	699932	2	3	3	1	0	1021	1	4	0	120	8	0	0	100
fixed	4	1	9	701569	3	2	2	1	0	607	1	4	0	112	9	0	0	100
fixed	4	1	10	703115	1	4	4	1	0	750	1	4	0	128	10	0	0	100
fixed	4	1	11	704181	5	2	2	2	0	1609	2	4	0	112	11	0	0	100
fixed	4	1	12	706608	4	3	3	1	0	810	1	4	0	120	12	0	0	100
fixed	4	2	1	708319	4	1	1	1	0	729	1	4	0	104	13	0	0	100
fixed	4	2	2	709801	1	2	2	1	0	995	1	4	0	112	14	0	0	100
fixed	4	2	3	711279	6	4	4	1	0	652	1	4	0	128	15	0	0	100
fixed	4	2	4	712484	2	1	1	1	0	769	1	4	0	104	16	0	0	100
fixed	4	2	5	713901	5	3	3	1	0	645	1	4	0	120	17	0	0	100
fixed	4	2	6	715224	6	4	4	1	0	653	1	4	0	128	18	0	0	100
fixed	4	2	7	716878	3	1	1	1	0	687	1	4	0	104	19	0	0	100
fixed	4	2	8	718601	2	3	3	1	0	934	1	4	0	120	20	0	0	100
fixed	4	2	9	719977	3	2	2	1	0	796	1	4	0	112	21	0	0	100
fixed	4	2	10	721493	1	4	4	1	0	1364	1	4	0	128	22	0	0	100
fixed	4	2	11	723818	5	2	2	1	0	801	1	4	0	112	23	0	0	100
fixed	4	2	12	725091	4	3	3	1	0	723	1	4	0	120	24	0	0	100
fixed	4	3	1	726397	4	1	1	1	0	692	1	4	0	104	25	0	0	100
fixed	4	3	2	727961	1	2	2	1	0	1106	1	4	0	112	26	0	0	100
fixed	4	3	3	729885	6	4	4	1	0	601	1	4	0	128	27	0	0	100
fixed	4	3	4	731296	2	1	1	1	0	636	1	4	0	104	28	0	0	100
fixed	4	3	5	732945	5	3	3	1	0	870	1	4	0	120	29	0	0	100
fixed	4	3	6	734248	6	4	4	1	0	679	1	4	0	128	30	0	0	100
fixed	4	3	7	735257	3	1	1	1	0	869	1	4	0	104	31	0	0	100
fixed	4	3	8	737097	2	3	3	1	0	791	1	4	0	120	32	0	0	100
fixed	4	3	9	738670	3	2	2	1	0	724	1	4	0	112	33	0	0	100
fixed	4	3	10	739686	1	4	4	1	0	945	1	4	0	128	34	0	0	100
fixed	4	3	11	741017	5	2	2	1	0	705	1	4	0	112	35	0	0	100
fixed	4	3	12	742140	4	3	3	1	0	793	1	4	0	120	36	0	0	100
fixed	4	4	1	744207	4	1	1	1	0	834	1	4	0	104	37	0	0	100
fixed	4	4	2	745429	1	2	2	1	0	790	1	4	0	112	38	0	0	100
fixed	4	4	3	746983	6	4	4	1	0	692	1	4	0	128	39	0	0	100
fixed	4	4	4	748003	2	1	1	1	0	745	1	4	0	104	40	0	0	100
fixed	4	4	5	749373	5	3	3	1	0	687	1	4	0	120	41	0	0	100
fixed	4	4	6	750817	6	4	4	1	0	682	1	4	0	128	42	0	0	100
fixed	4	4	7	752103	3	1	1	1	0	627	1	4	0	104	43	0	0	100
fixed	4	4	8	753614	2	3	3	1	0	747	1	4	0	120	44	0	0	100
fixed	4	4	9	754872	3	2	2	1	0	1030	1	4	0	112	45	0	0	100
fixed	4	4	10	756646	1	4	4	1	0	683	1	4	0	128	46	0	0	100
fixed	4	4	11	757687	5	2	2	1	0	936	1	4	0	112	47	0	0	100
fixed	4	4	12	759132	4	3	3	1	0	593	1	4	0	120	48	0	0	100
fixed	4	5	1	760531	4	1	1	1	0	606	1	4	0	104	49	0	0	100
fixed	4	5	2	761462	1	2	2	1	0	839	1	4	0	112	50	0	0	100
fixed	4	5	3	763276	6	4	4	1	0	506	1	4	0	128	51	0	0	100
fixed	4	5	4	764498	2	1	1	1	0	534	1	4	0	104	52	0	0	100
fixed	4	5	5	765633	5	3	3	1	0	782	1	4	0	120	53	0	0	100
fixed	4	5	6	767192	6	4	4	1	0	620	1	4	0	128	54	0	0	100
fixed	4	5	7	768613	3	1	1	1	0	672	1	4	0	104	55	0	0	100
fixed	4	5	8	770072	2	3	3	1	0	682	1	4	0	120	56	0	0	100
fixed	4	5	9	771252	3	2	2	1	0	568	1	4	0	112	57	0	0	100
fixed	4	5	10	772359	1	4	4	1	0	633	1	4	0	128	58	0	0	100
fixed	4	5	11	773771	5	2	2	1	0	894	1	4	0	112	59	0	0	100
fixed	4	5	12	775216	4	3	3	1	0	720	1	4	0	120	60	0	0	100
fixed	4	6	1	776670	4	1	1	1	0	698	1	4	0	104	61	0	0	100
fixed	4	6	2	778117	1	2	2	1	0	1022	1	4	0	112	62	0	0	100
fixed	4	6	3	779603	6	4	4	1	0	655	1	4	0	128	63	0	0	100
fixed	4	6	4	780798	2	1	1	1	0	628	1	4	0	104	64	0	0	100
fixed	4	6	5	782378	5	3	3	1	0	713	1	4	0	120	65	0	0	100
fixed	4	6	6	783954	6	4	4	1	0	622	1	4	0	128	66	0	0	100
fixed	4	6	7	785389	3	1	1	1	0	617	1	4	0	104	67	0	0	100
fixed	4	6	8	786303	2	3	3	1	0	747	1	4	0	120	68	0	0	100
fixed	4	6	9	787745	3	2	2	1	0	877	1	4	0	112	69	0	0	100
fixed	4	6	10	789164	1	4	4	1	0	674	1	4	0	128	70	0	0	100
fixed	4	6	11	790501	5	2	2	1	0	1049	1	4	0	112	71	0	0	100
fixed	4	6	12	792275	4	3	3	1	0	597	1	4	0	120	72	0	0	100
fixed	4	7	1	793712	4	1	1	1	0	737	1	4	0	104	73	0	0	100
fixed	4	7	2	795203	1	2	2	1	0	874	1	4	0	112	74	0	0	100
fixed	4	7	3	796459	6	4	4	1	0	669	1	4	0	128	75	0	0	100
fixed	4	7	4	798040	2	1	1	1	0	753	1	4	0	104	76	0	0	100
fixed	4	7	5	799800	5	3	3	1	0	671	1	4	0	120	77	0	0	100
fixed	4	7	6	801316	6	4	4	1	0	671	1	4	0	128	78	0	0	100
fixed	4	7	7	802828	3	1	1	1	0	679	1	4	0	104	79	0	0	100
fixed	4	7	8	803981	2	3	3	1	0	790	1	4	0	120	80	0	0	100
fixed	4	7	9	805591	3	2	2	1	0	882	1	4	0	112	81	0	0	100
fixed	4	7	10	807395	1	4	4	1	0	789	1	4	0	128	82	0	0	100
fixed	4	7	11	809031	5	2	2	1	0	752	1	4	0	112	83	0	0	100
fixed	4	7	12	810105	4	3	3	1	0	754	1	4	0	120	84	0	0	100
fixed	4	8	1	811840	4	1	1	1	0	801	1	4	0	104	85	0	0	100
fixed	4	8	2	813201	1	2	2	1	0	791	1	4	0	112	86	0	0	100
fixed	4	8	3	814801	6	4	4	1	0	676	1	4	0	128	87	0	0	100
fixed	4	8	4	816226	2	1	1	1	0	855	1	4	0	104	88	0	0	100
fixed	4	8	5	818024	5	3	3	1	0	955	1	4	0	120	89	0	0	100
fixed	4	8	6	819670	6	4	4	1	0	662	1	4	0	128	90	0	0	100
fixed	4	8	7	821180	3	1	1	1	0	749	1	4	0	104	91	0	0	100
fixed	4	8	8	822293	2	3	3	1	0	911	1	4	0	120	92	0	0	100
fixed	4	8	9	824112	3	2	2	1	0	465	1	4	0	112	93	0	0	100
fixed	4	8	10	825114	1	4	4	1	0	647	1	4	0	128	94	0	0	100
fixed	4	8	11	826399	5	2	2	1	0	824	1	4	0	112	95	0	0	100
fixed	4	8	12	827769	4	3	3	1	0	622	1	4	0	120	96	0	0	100
fixed	4	9	1	829483	4	1	1	1	0	750	1	4	0	104	97	0	0	100
fixed	4	9	2	830997	1	2	2	1	0	1038	1	4	0	112	98	0	0	100
fixed	4	9	3	832817	6	4	4	1	0	665	1	4	0	128	99	0	0	100
fixed	4	9	4	833822	2	1	1	1	0	830	1	4	0	104	100	0	0	100
fixed	4	9	5	835376	5	3	3	1	0	1124	1	4	0	120	101	0	0	100
fixed	4	9	6	836921	6	4	4	1	0	755	1	4	0	128	102	0	0	100
fixed	4	9	7	838549	3	1	1	1	0	670	1	4	0	104	103	0	0	100
fixed	4	9	8	839874	2	3	3	1	0	853	1	4	0	120	104	0	0	100
fixed	4	9	9	841229	3	2	2	1	0	604	1	4	0	112	105	0	0	100
fixed	4	9	10	842394	1	4	4	1	0	747	1	4	0	128	106	0	0	100
fixed	4	9	11	843909	5	2	2	1	0	907	1	4	0	112	107	0	0	100
fixed	4	9	12	845639	4	3	3	1	0	801	1	4	0	120	108	0	0	100
fixed	4	10	1	847060	4	1	1	1	0	741	1	4	0	104	109	0	0	100
fixed	4	10	2	848630	1	2	0	1	2	0	3	4	0	112	109	0	1	99
fixed	4	10	3	851466	6	4	4	1	0	811	1	4	0	128	110	0	1	99
fixed	4	10	4	853132	2	1	1	1	0	908	1	4	0	104	111	0	1	99
fixed	4	10	5	854482	5	3	3	1	0	1131	1	4	0	120	112	0	1	99
fixed	4	10	6	856196	6	4	4	1	0	762	1	4	0	128	113	0	1	99
fixed	4	10	7	857576	3	1	1	1	0	808	1	4	0	104	114	0	1	99
fixed	4	10	8	858986	2	3	3	1	0	925	1	4	0	120	115	0	1	99
fixed	4	10	9	860584	3	2	2	1	0	809	1	4	0	112	116	0	1	99
fixed	4	10	10	861768	1	4	4	1	0	670	1	4	0	128	117	0	1	99
fixed	4	10	11	863253	5	2	2	1	0	767	1	4	0	112	118	0	1	99
fixed	4	10	12	864877	4	3	3	1	0	707	1	4	0	120	119	0	1	99
fixed	5	1	1	866789	4	1	1	1	0	513	1	4	0	136	1	0	0	100
fixed	5	1	2	867658	1	2	2	1	0	965	1	4	0	144	2	0	0	100
fixed	5	1	3	869438	6	4	4	1	0	586	1	4	0	160	3	0	0	100
fixed	5	1	4	870928	2	1	1	1	0	771	1	4	0	136	4	0	0	100
fixed	5	1	5	872259	5	3	3	1	0	1082	1	4	0	152	5	0	0	100
fixed	5	1	6	873810	6	4	4	1	0	664	1	4	0	160	6	0	0	100
fixed	5	1	7	875386	3	1	1	1	0	710	1	4	0	136	7	0	0	100
fixed	5	1	8	876631	2	3	3	1	0	793	1	4	0	152	8	0	0	100
fixed	5	1	9	877841	3	2	2	1	0	534	1	4	0	144	9	0	0	100
fixed	5	1	10	878844	1	4	4	1	0	723	1	4	0	160	10	0	0	100
fixed	5	1	11	880229	5	2	2	1	0	728	1	4	0	144	11	0	0	100
fixed	5	1	12	881629	4	3	3	1	0	661	1	4	0	152	12	0	0	100
fixed	5	2	1	883265	4	1	1	1	0	672	1	4	0	136	13	0	0	100
fixed	5	2	2	884595	1	2	2	1	0	896	1	4	0	144	14	0	0	100
fixed	5	2	3	885858	6	4	4	1	0	770	1	4	0	160	15	0	0	100
fixed	5	2	4	887319	2	1	1	1	0	652	1	4	0	136	16	0	0	100
fixed	5	2	5	888773	5	3	3	1	0	991	1	4	0	152	17	0	0	100
fixed	5	2	6	890131	6	4	4	1	0	701	1	4	0	160	18	0	0	100
fixed	5	2	7	891707	3	1	1	1	0	682	1	4	0	136	19	0	0	100
fixed	5	2	8	893272	2	3	3	1	0	840	1	4	0	152	20	0	0	100
fixed	5	2	9	895052	3	2	2	1	0	517	1	4	0	144	21	0	0	100
fixed	5	2	10	896519	1	4	4	1	0	638	1	4	0	160	22	0	0	100
fixed	5	2	11	897827	5	2	2	1	0	775	1	4	0	144	23	0	0	100
fixed	5	2	12	899083	4	3	3	1	0	850	1	4	0	152	24	0	0	100
fixed	5	3	1	901042	4	1	1	1	0	703	1	4	0	136	25	0	0	100
fixed	5	3	2	902366	1	2	2	1	0	783	1	4	0	144	26	0	0	100
fixed	5	3	3	903745	6	4	4	1	0	637	1	4	0	160	27	0	0	100
fixed	5	3	4	904833	2	1	1	1	0	654	1	4	0	136	28	0	0	100
fixed	5	3	5	906069	5	3	3	1	0	818	1	4	0	152	29	0	0	100
fixed	5	3	6	907344	6	4	4	1	0	676	1	4	0	160	30	0	0	100
fixed	5	3	7	908709	3	1	1	1	0	594	1	4	0	136	31	0	0	100
fixed	5	3	8	909900	2	3	3	1	0	784	1	4	0	152	32	0	0	100
fixed	5	3	9	911104	3	2	2	1	0	941	1	4	0	144	33	0	0	100
fixed	5	3	10	912538	1	4	4	1	0	600	1	4	0	160	34	0	0	100
fixed	5	3	11	913804	5	2	2	1	0	898	1	4	0	144	35	0	0	100
fixed	5	3	12	915291	4	3	3	1	0	675	1	4	0	152	36	0	0	100
fixed	5	4	1	916881	4	1	1	1	0	760	1	4	0	136	37	0	0	100
fixed	5	4	2	918551	1	2	2	1	0	721	1	4	0	144	38	0	0	100
fixed	5	4	3	920169	6	4	4	1	0	581	1	4	0	160	39	0	0	100
fixed	5	4	4	921732	2	1	1	1	0	771	1	4	0	136	40	0	0	100
fixed	5	4	5	923032	5	3	3	1	0	931	1	4	0	152	41	0	0	100
fixed	5	4	6	924887	6	4	4	1	0	637	1	4	0	160	42	0	0	100
fixed	5	4	7	926019	3	1	1	1	0	861	1	4	0	136	43	0	0	100
fixed	5	4	8	927574	2	3	3	1	0	819	1	4	0	152	44	0	0	100
fixed	5	4	9	929372	3	2	2	1	0	471	1	4	0	144	45	0	0	100
fixed	5	4	10	930183	1	4	4	1	0	636	1	4	0	160	46	0	0	100
fixed	5	4	11	931656	5	2	2	1	0	798	1	4	0	144	47	0	0	100
fixed	5	4	12	933232	4	3	3	1	0	732	1	4	0	152	48	0	0	100
fixed	5	5	1	934808	4	1	1	1	0	593	1	4	0	136	49	0	0	100
fixed	5	5	2	936066	1	2	2	1	0	811	1	4	0	144	50	0	0	100
fixed	5	5	3	937219	6	4	4	1	0	627	1	4	0	160	51	0	0	100
fixed	5	5	4	938486	2	1	1	1	0	669	1	4	0	136	52	0	0	100
fixed	5	5	5	939522	5	3	3	1	0	921	1	4	0	152	53	0	0	100
fixed	5	5	6	941288	6	4	4	1	0	614	1	4	0	160	54	0	0	100
fixed	5	5	7	942747	3	1	1	1	0	888	1	4	0	136	55	0	0	100
fixed	5	5	8	944347	2	3	3	1	0	716	1	4	0	152	56	0	0	100
fixed	5	5	9	945749	3	2	2	1	0	906	1	4	0	144	57	0	0	100
fixed	5	5	10	947578	1	4	4	1	0	652	1	4	0	160	58	0	0	100
fixed	5	5	11	948692	5	2	2	1	0	877	1	4	0	144	59	0	0	100
fixed	5	5	12	950104	4	3	3	1	0	633	1	4	0	152	60	0	0	100
fixed	5	6	1	951750	4	1	1	1	0	643	1	4	0	136	61	0	0	100
fixed	5	6	2	952730	1	2	2	1	0	738	1	4	0	144	62	0	0	100
fixed	5	6	3	953950	6	4	4	1	0	558	1	4	0	160	63	0	0	100
fixed	5	6	4	955218	2	1	1	1	0	600	1	4	0	136	64	0	0	100
fixed	5	6	5	956647	5	3	3	1	0	756	1	4	0	152	65	0	0	100
fixed	5	6	6	957904	6	4	4	1	0	687	1	4	0	160	66	0	0	100
fixed	5	6	7	959206	3	1	1	1	0	639	1	4	0	136	67	0	0	100
fixed	5	6	8	960595	2	3	3	1	0	813	1	4	0	152	68	0	0	100
fixed	5	6	9	961865	3	2	2	1	0	751	1	4	0	144	69	0	0	100
fixed	5	6	10	963043	1	4	4	1	0	981	1	4	0	160	70	0	0	100
fixed	5	6	11	964700	5	2	2	1	0	839	1	4	0	144	71	0	0	100
fixed	5	6	12	966490	4	3	3	1	0	1643	1	4	0	152	72	0	0	100
fixed	5	7	1	969026	4	1	1	1	0	719	1	4	0	136	73	0	0	100
fixed	5	7	2	970429	1	2	0	1	2	0	3	4	0	144	73	0	1	99
fixed	5	7	3	973355	6	4	4	1	0	576	1	4	0	160	74	0	1	99
fixed	5	7	4	974871	2	1	1	1	0	768	1	4	0	136	75	0	1	99
fixed	5	7	5	976070	5	3	3	1	0	1125	1	4	0	152	76	0	1	99
fixed	5	7	6	977583	6	4	4	1	0	661	1	4	0	160	77	0	1	99
fixed	5	7	7	978679	3	1	1	1	0	679	1	4	0	136	78	0	1	99
fixed	5	7	8	979675	2	3	3	1	0	932	1	4	0	152	79	0	1	99
fixed	5	7	9	981390	3	2	2	1	0	420	1	4	0	144	80	0	1	99
fixed	5	7	10	982857	1	4	4	1	0	709	1	4	0	160	81	0	1	99
fixed	5	7	11	984418	5	2	2	1	0	916	1	4	0	144	82	0	1	99
fixed	5	7	12	985737	4	3	3	1	0	676	1	4	0	152	83	0	1	99
fixed	5	8	1	987053	4	1	1	1	0	580	1	4	0	136	84	0	1	99
fixed	5	8	2	988586	1	2	2	1	0	819	1	4	0	144	85	0	1	99
fixed	5	8	3	989694	6	4	4	1	0	700	1	4	0	160	86	0	1	99
fixed	5	8	4	991371	2	1	1	1	0	725	1	4	0	136	87	0	1	99
fixed	5	8	5	992466	5	3	3	1	0	806	1	4	0	152	88	0	1	99
fixed	5	8	6	993942	6	4	4	1	0	680	1	4	0	160	89	0	1	99
fixed	5	8	7	994931	3	1	1	1	0	662	1	4	0	136	90	0	1	99
fixed	5	8	8	996597	2	3	3	1	0	992	1	4	0	152	91	0	1	99
fixed	5	8	9	998302	3	2	2	1	0	599	1	4	0	144	92	0	1	99
fixed	5	8	10	999663	1	4	4	1	0	630	1	4	0	160	93	0	1	99
fixed	5	8	11	1000841	5	2	2	1	0	668	1	4	0	144	94	0	1	99
fixed	5	8	12	1001881	4	3	3	1	0	912	1	4	0	152	95	0	1	99
fixed	5	9	1	1003627	4	1	1	1	0	686	1	4	0	136	96	0	1	99
fixed	5	9	2	1005296	1	2	2	1	0	735	1	4	0	144	97	0	1	99
fixed	5	9	3	1006933	6	4	4	1	0	578	1	4	0	160	98	0	1	99
fixed	5	9	4	1008429	2	1	1	1	0	795	1	4	0	136	99	0	1	99
fixed	5	9	5	1009847	5	3	3	1	0	798	1	4	0	152	100	0	1	99
fixed	5	9	6	1011089	6	4	4	1	0	690	1	4	0	160	101	0	1	99
fixed	5	9	7	1012241	3	1	1	1	0	1073	1	4	0	136	102	0	1	99
fixed	5	9	8	1014248	2	3	3	1	0	772	1	4	0	152	103	0	1	99
fixed	5	9	9	1016010	3	2	2	1	0	729	1	4	0	144	104	0	1	99
fixed	5	9	10	1017059	1	4	4	1	0	669	1	4	0	160	105	0	1	99
fixed	5	9	11	1018729	5	2	2	1	0	886	1	4	0	144	106	0	1	99
fixed	5	9	12	1020072	4	3	3	1	0	589	1	4	0	152	107	0	1	99
fixed	5	10	1	1021605	4	1	1	1	0	740	1	4	0	136	108	0	1	99
fixed	5	10	2	1022770	1	2	2	1	0	1003	1	4	0	144	109	0	1	99
fixed	5	10	3	1024480	6	4	4	1	0	907	1	4	0	160	110	0	1	99
fixed	5	10	4	1025695	2	1	1	1	0	679	1	4	0	136	111	0	1	99
fixed	5	10	5	1026889	5	3	3	1	0	1061	1	4	0	152	112	0	1	99
fixed	5	10	6	1028780	6	4	4	1	0	637	1	4	0	160	113	0	1	99
fixed	5	10	7	1029730	3	1	1	1	0	772	1	4	0	136	114	0	1	99
fixed	5	10	8	1030918	2	3	3	1	0	1002	1	4	0	152	115	0	1	99
fixed	5	10	9	1032803	3	2	2	1	0	418	1	4	0	144	116	0	1	99
fixed	5	10	10	1034161	1	4	4	1	0	657	1	4	0	160	117	0	1	99
fixed	5	10	11	1035525	5	2	2	1	0	799	1	4	0	144	118	0	1	99
fixed	5	10	12	1037340	4	3	3	1	0	730	1	4	0	152	119	0	1	99
random	6	1	1	1140828	6	1	1	1	0	850	1	4	0	168	1	0	0	100
random	6	1	2	1142477	4	4	4	1	0	837	1	4	0	192	2	0	0	100
random	6	1	3	1143847	2	2	2	1	0	939	1	4	0	176	3	0	0	100
random	6	1	4	1145375	3	3	3	1	0	650	1	4	0	184	4	0	0	100
random	6	1	5	1146458	5	2	2	1	0	836	1	4	0	176	5	0	0	100
random	6	1	6	1147660	1	4	4	1	0	946	1	4	0	192	6	0	0	100
random	6	1	7	1149268	6	1	1	1	0	701	1	4	0	168	7	0	0	100
random	6	1	8	1150702	2	3	3	1	0	849	1	4	0	184	8	0	0	100
random	6	1	9	1152043	4	2	2	1	0	670	1	4	0	176	9	0	0	100
random	6	1	10	1153276	1	1	1	1	0	739	1	4	0	168	10	0	0	100
random	6	1	11	1154755	5	4	4	1	0	557	1	4	0	192	11	0	0	100
random	6	1	12	1155746	3	3	3	1	0	763	1	4	0	184	12	0	0	100
random	6	1	13	1157204	5	2	2	1	0	869	1	4	0	176	13	0	0	100
random	6	1	14	1158497	1	4	4	1	0	678	1	4	0	192	14	0	0	100
random	6	1	15	1159570	3	1	1	1	0	641	1	4	0	168	15	0	0	100
random	6	1	16	1160867	4	3	3	1	0	818	1	4	0	184	16	0	0	100
random	6	1	17	1162637	6	4	4	1	0	607	1	4	0	192	17	0	0	100
random	6	1	18	1163865	2	1	1	1	0	619	1	4	0	168	18	0	0	100
random	6	1	19	1165295	5	3	3	1	0	702	1	4	0	184	19	0	0	100
random	6	1	20	1166654	2	2	2	1	0	821	1	4	0	176	20	0	0	100
random	6	1	21	1168097	3	3	3	1	0	743	1	4	0	184	21	0	0	100
random	6	1	22	1169662	6	1	1	1	0	646	1	4	0	168	22	0	0	100
random	6	1	23	1171201	4	2	2	1	0	869	1	4	0	176	23	0	0	100
random	6	1	24	1172904	1	4	4	1	0	596	1	4	0	192	24	0	0	100
random	6	1	25	1174145	4	3	3	1	0	1063	1	4	0	184	25	0	0	100
random	6	1	26	1176094	2	1	1	1	0	797	1	4	0	168	26	0	0	100
random	6	1	27	1177773	5	2	2	1	0	838	1	4	0	176	27	0	0	100
random	6	1	28	1179356	6	4	4	1	0	595	1	4	0	192	28	0	0	100
random	6	1	29	1180601	1	3	3	1	0	718	1	4	0	184	29	0	0	100
random	6	1	30	1181878	5	2	2	1	0	808	1	4	0	176	30	0	0	100
random	6	1	31	1183418	2	1	1	1	0	655	1	4	0	168	31	0	0	100
random	6	1	32	1184459	3	3	3	1	0	787	1	4	0	184	32	0	0	100
random	6	1	33	1186240	6	4	4	1	0	631	1	4	0	192	33	0	0	100
random	6	1	34	1187740	4	2	2	1	0	896	1	4	0	176	34	0	0	100
random	6	1	35	1189129	3	4	4	1	0	725	1	4	0	192	35	0	0	100
random	6	1	36	1190791	1	1	1	1	0	790	1	4	0	168	36	0	0	100
random	6	1	37	1192457	3	4	4	1	0	800	1	4	0	192	37	0	0	100
random	6	1	38	1193814	5	3	3	1	0	1230	1	4	0	184	38	0	0	100
random	6	1	39	1195695	6	1	1	1	0	879	1	4	0	168	39	0	0	100
random	6	1	40	1196923	1	2	2	1	0	851	1	4	0	176	40	0	0	100
random	6	1	41	1198661	2	3	3	1	0	769	1	4	0	184	41	0	0	100
random	6	1	42	1199988	4	4	4	1	0	633	1	4	0	192	42	0	0	100
random	6	1	43	1201287	1	2	2	1	0	762	1	4	0	176	43	0	0	100
random	6	1	44	1202404	6	3	3	1	0	987	1	4	0	184	44	0	0	100
random	6	1	45	1203720	3	1	1	1	0	732	1	4	0	168	45	0	0	100
random	6	1	46	1204913	4	4	4	1	0	601	1	4	0	192	46	0	0	100
random	6	1	47	1206156	2	2	2	1	0	899	1	4	0	176	47	0	0	100
random	6	1	48	1207438	5	1	1	1	0	870	1	4	0	168	48	0	0	100
random	6	1	49	1209315	2	3	3	1	0	982	1	4	0	184	49	0	0	100
random	6	1	50	1210670	3	1	1	1	0	668	1	4	0	168	50	0	0	100
random	6	1	51	1211793	1	4	4	1	0	709	1	4	0	192	51	0	0	100
random	6	1	52	1213520	5	3	3	1	0	796	1	4	0	184	52	0	0	100
random	6	1	53	1214959	3	2	2	1	0	839	1	4	0	176	53	0	0	100
random	6	1	54	1216153	6	4	4	1	0	612	1	4	0	192	54	0	0	100
random	6	1	55	1217376	4	2	2	1	0	857	1	4	0	176	55	0	0	100
random	6	1	56	1219038	1	1	1	1	0	762	1	4	0	168	56	0	0	100
random	6	1	57	1220641	5	4	4	1	0	918	1	4	0	192	57	0	0	100
random	6	1	58	1222121	2	1	1	1	0	1120	1	4	0	168	58	0	0	100
random	6	1	59	1223828	6	2	2	1	0	1407	1	4	0	176	59	0	0	100
random	6	1	60	1225602	4	3	3	1	0	796	1	4	0	184	60	0	0	100
random	6	1	61	1227259	1	2	2	1	0	886	1	4	0	176	61	0	0	100
random	6	1	62	1229141	6	4	4	1	0	686	1	4	0	192	62	0	0	100
random	6	1	63	1230848	4	1	1	1	0	694	1	4	0	168	63	0	0	100
random	6	1	64	1232400	2	2	2	1	0	1052	1	4	0	176	64	0	0	100
random	6	1	65	1233877	4	3	3	1	0	621	1	4	0	184	65	0	0	100
random	6	1	66	1235304	3	1	1	1	0	665	1	4	0	168	66	0	0	100
random	6	1	67	1236706	1	3	3	1	0	830	1	4	0	184	67	0	0	100
random	6	1	68	1238182	5	4	4	1	0	672	1	4	0	192	68	0	0	100
random	6	1	69	1239184	2	2	2	1	0	821	1	4	0	176	69	0	0	100
random	6	1	70	1240643	3	1	1	1	0	703	1	4	0	168	70	0	0	100
random	6	1	71	1241710	5	4	4	1	0	698	1	4	0	192	71	0	0	100
random	6	1	72	1243368	6	3	3	1	0	923	1	4	0	184	72	0	0	100
random	6	1	73	1244936	2	1	1	1	0	689	1	4	0	168	73	0	0	100
random	6	1	74	1246000	5	3	3	1	0	796	1	4	0	184	74	0	0	100
random	6	1	75	1247498	1	4	4	1	0	661	1	4	0	192	75	0	0	100
random	6	1	76	1248744	6	2	2	1	0	696	1	4	0	176	76	0	0	100
random	6	1	77	1250262	2	1	1	1	0	752	1	4	0	168	77	0	0	100
random	6	1	78	1251770	4	4	4	1	0	616	1	4	0	192	78	0	0	100
random	6	1	79	1252840	3	2	2	1	0	762	1	4	0	176	79	0	0	100
random	6	1	80	1254185	4	3	3	1	0	682	1	4	0	184	80	0	0	100
random	6	1	81	1255857	1	4	4	1	0	731	1	4	0	192	81	0	0	100
random	6	1	82	1257213	5	1	1	1	0	593	1	4	0	168	82	0	0	100
random	6	1	83	1258108	3	2	2	1	0	915	1	4	0	176	83	0	0	100
random	6	1	84	1260026	6	3	3	1	0	466	1	4	0	184	84	0	0	100
random	6	1	85	1261259	3	2	2	1	0	830	1	4	0	176	85	0	0	100
random	6	1	86	1263081	1	3	3	1	0	624	1	4	0	184	86	0	0	100
random	6	1	87	1264138	4	4	4	1	0	772	1	4	0	192	87	0	0	100
random	6	1	88	1265922	2	1	1	1	0	496	1	4	0	168	88	0	0	100
random	6	1	89	1266816	6	4	4	1	0	1483	1	4	0	192	89	0	0	100
random	6	1	90	1269234	3	3	3	1	0	1316	1	4	0	184	90	0	0	100
random	6	1	91	1271369	5	4	4	1	0	1033	1	4	0	192	91	0	0	100
random	6	1	92	1272824	1	2	2	1	0	876	1	4	0	176	92	0	0	100
random	6	1	93	1274610	5	1	1	1	0	672	1	4	0	168	93	0	0	100
random	6	1	94	1275646	4	3	3	1	0	828	1	4	0	184	94	0	0	100
random	6	1	95	1277399	6	1	1	1	0	850	1	4	0	168	95	0	0	100
random	6	1	96	1279251	2	2	2	1	0	851	1	4	0	176	96	0	0	100
random	6	1	97	1280974	4	3	3	1	0	1075	1	4	0	184	97	0	0	100
random	6	1	98	1282966	3	2	2	1	0	894	1	4	0	176	98	0	0	100
random	6	1	99	1284746	6	3	3	1	0	1107	1	4	0	184	99	0	0	100
random	6	1	100	1286396	1	4	4	1	0	677	1	4	0	192	100	0	0	100
random	6	1	101	1287394	4	1	1	1	0	787	1	4	0	168	101	0	0	100
random	6	1	102	1288742	5	2	2	1	0	913	1	4	0	176	102	0	0	100
random	6	1	103	1290302	2	4	4	1	0	912	1	4	0	192	103	0	0	100
random	6	1	104	1291561	3	1	1	1	0	579	1	4	0	168	104	0	0	100
random	6	1	105	1292814	1	3	3	1	0	774	1	4	0	184	105	0	0	100
random	6	1	106	1294551	2	2	2	1	0	580	1	4	0	176	106	0	0	100
random	6	1	107	1295750	5	4	4	1	0	785	1	4	0	192	107	0	0	100
random	6	1	108	1297348	6	1	1	1	0	621	1	4	0	168	108	0	0	100
random	6	1	109	1299186	5	4	4	1	0	855	1	4	0	192	109	0	0	100
random	6	1	110	1300859	6	3	3	1	0	840	1	4	0	184	110	0	0	100
random	6	1	111	1302102	2	2	2	1	0	708	1	4	0	176	111	0	0	100
random	6	1	112	1303292	3	1	1	1	0	786	1	4	0	168	112	0	0	100
random	6	1	113	1304754	1	2	2	1	0	756	1	4	0	176	113	0	0	100
random	6	1	114	1306248	2	3	3	1	0	789	1	4	0	184	114	0	0	100
random	6	1	115	1307374	3	1	1	1	0	780	1	4	0	168	115	0	0	100
random	6	1	116	1308605	4	4	4	1	0	697	1	4	0	192	116	0	0	100
random	6	1	117	1309951	6	1	1	1	0	823	1	4	0	168	117	0	0	100
random	6	1	118	1311066	5	3	3	1	0	952	1	4	0	184	118	0	0	100
random	6	1	119	1312765	1	4	4	1	0	761	1	4	0	192	119	0	0	100
random	6	1	120	1314447	4	2	2	1	0	921	1	4	0	176	120	0	0	100
fixed	7	1	1	1316409	4	1	1	1	0	782	1	4	0	200	1	0	0	100
fixed	7	1	2	1317583	1	2	2	1	0	748	1	4	0	208	2	0	0	100
fixed	7	1	3	1318746	6	4	4	1	0	707	1	4	0	224	3	0	0	100
fixed	7	1	4	1320352	2	1	1	1	0	975	1	4	0	200	4	0	0	100
fixed	7	1	5	1321864	5	3	3	1	0	1159	1	4	0	216	5	0	0	100
fixed	7	1	6	1323812	6	4	4	1	0	668	1	4	0	224	6	0	0	100
fixed	7	1	7	1324932	3	1	1	1	0	829	1	4	0	200	7	0	0	100
fixed	7	1	8	1326346	2	3	3	1	0	769	1	4	0	216	8	0	0	100
fixed	7	1	9	1327927	3	2	2	1	0	878	1	4	0	208	9	0	0	100
fixed	7	1	10	1329812	1	4	4	1	0	582	1	4	0	224	10	0	0	100
fixed	7	1	11	1331145	5	2	2	1	0	949	1	4	0	208	11	0	0	100
fixed	7	1	12	1332651	4	3	3	1	0	574	1	4	0	216	12	0	0	100
fixed	7	2	1	1334472	4	1	1	1	0	673	1	4	0	200	1	0	0	8
fixed	7	2	2	1335548	1	2	2	1	0	795	1	4	0	208	2	0	0	14
fixed	7	2	3	1337233	6	4	4	1	0	580	1	4	0	224	3	0	0	20
fixed	7	2	4	1338473	2	1	1	1	0	679	1	4	0	200	4	0	0	25
fixed	7	2	5	1340161	5	3	3	1	0	776	1	4	0	216	5	0	0	29
fixed	7	2	6	1341610	6	4	4	1	0	658	1	4	0	224	6	0	0	33
fixed	7	2	7	1342729	3	1	1	1	0	683	1	4	0	200	7	0	0	37
fixed	7	2	8	1344227	2	3	3	1	0	747	1	4	0	216	8	0	0	40
fixed	7	2	9	1345663	3	2	2	1	0	406	1	4	0	208	9	0	0	43
fixed	7	2	10	1346984	1	4	4	1	0	623	1	4	0	224	10	0	0	45
fixed	7	2	11	1348127	5	2	2	1	0	862	1	4	0	208	11	0	0	48
fixed	7	2	12	1349908	4	3	3	1	0	611	1	4	0	216	12	0	0	50
fixed	7	3	1	1351698	4	1	1	1	0	695	1	4	0	200	1	0	0	4
fixed	7	3	2	1353119	1	2	2	1	0	859	1	4	0	208	2	0	0	8
fixed	7	3	3	1354381	6	4	4	1	0	678	1	4	0	224	3	0	0	11
fixed	7	3	4	1355353	2	1	1	1	0	685	1	4	0	200	4	0	0	14
fixed	7	3	5	1356792	5	3	3	1	0	823	1	4	0	216	5	0	0	17
fixed	7	3	6	1358493	6	4	4	1	0	656	1	4	0	224	6	0	0	20
fixed	7	3	7	1359743	3	1	1	1	0	635	1	4	0	200	7	0	0	23
fixed	7	3	8	1361364	2	3	3	1	0	718	1	4	0	216	8	0	0	25
fixed	7	3	9	1362377	3	2	2	1	0	1227	1	4	0	208	9	0	0	27
fixed	7	3	10	1363897	1	4	4	1	0	682	1	4	0	224	10	0	0	29
fixed	7	3	11	1364988	5	2	2	1	0	812	1	4	0	208	11	0	0	31
fixed	7	3	12	1366414	4	3	3	1	0	616	1	4	0	216	12	0	0	33
fixed	7	4	1	1367587	4	1	1	1	0	598	1	4	0	200	1	0	0	3
fixed	7	4	2	1368994	1	2	2	1	0	699	1	4	0	208	2	0	0	5
fixed	7	4	3	1370401	6	4	4	1	0	623	1	4	0	224	3	0	0	8
fixed	7	4	4	1372002	2	1	1	1	0	1059	1	4	0	200	4	0	0	10
fixed	7	4	5	1373477	5	3	3	1	0	765	1	4	0	216	5	0	0	12
fixed	7	4	6	1375241	6	4	4	1	0	714	1	4	0	224	6	0	0	14
fixed	7	4	7	1376800	3	1	1	1	0	856	1	4	0	200	7	0	0	16
fixed	7	4	8	1378636	2	3	3	1	0	1122	1	4	0	216	8	0	0	18
fixed	7	4	9	1380319	3	2	2	1	0	699	1	4	0	208	9	0	0	20
fixed	7	4	10	1381674	1	4	4	1	0	705	1	4	0	224	10	0	0	22
fixed	7	4	11	1383044	5	2	2	1	0	727	1	4	0	208	11	0	0	23
fixed	7	4	12	1384534	4	3	3	1	0	768	1	4	0	216	12	0	0	25
fixed	7	5	1	1386383	4	1	1	1	0	690	1	4	0	200	1	0	0	2
fixed	7	5	2	1388032	1	2	2	1	0	813	1	4	0	208	2	0	0	4
fixed	7	5	3	1389246	6	4	4	1	0	641	1	4	0	224	3	0	0	6
fixed	7	5	4	1390780	2	1	1	1	0	664	1	4	0	200	4	0	0	8
fixed	7	5	5	1391887	5	3	3	1	0	737	1	4	0	216	5	0	0	9
fixed	7	5	6	1393609	6	4	4	1	0	656	1	4	0	224	6	0	0	11
fixed	7	5	7	1395095	3	1	1	1	0	897	1	4	0	200	7	0	0	13
fixed	7	5	8	1396966	2	3	3	1	0	914	1	4	0	216	8	0	0	14
fixed	7	5	9	1398355	3	2	2	1	0	679	1	4	0	208	9	0	0	16
fixed	7	5	10	1399634	1	4	4	1	0	641	1	4	0	224	10	0	0	17
fixed	7	5	11	1400786	5	2	2	1	0	696	1	4	0	208	11	0	0	19
fixed	7	5	12	1401923	4	3	3	1	0	704	1	4	0	216	12	0	0	20
fixed	7	6	1	1403191	4	1	1	1	0	746	1	4	0	200	1	0	0	2
fixed	7	6	2	1404726	1	2	2	1	0	1025	1	4	0	208	2	0	0	3
fixed	7	6	3	1406103	6	4	4	1	0	783	1	4	0	224	3	0	0	5
fixed	7	6	4	1407670	2	1	1	1	0	636	1	4	0	200	4	0	0	6
fixed	7	6	5	1408801	5	3	3	1	0	1205	1	4	0	216	5	0	0	8
fixed	7	6	6	1410368	6	4	4	1	0	818	1	4	0	224	6	0	0	9
fixed	7	6	7	1411534	3	1	1	1	0	825	1	4	0	200	7	0	0	10
fixed	7	6	8	1413218	2	3	3	1	0	1017	1	4	0	216	8	0	0	12
fixed	7	6	9	1414600	3	2	2	1	0	583	1	4	0	208	9	0	0	13
fixed	7	6	10	1416101	1	4	4	1	0	616	1	4	0	224	10	0	0	14
fixed	7	6	11	1417117	5	2	2	1	0	941	1	4	0	208	11	0	0	15
fixed	7	6	12	1418479	4	3	3	1	0	1194	1	4	0	216	12	0	0	17
fixed	7	7	1	1420834	4	1	1	1	0	703	1	4	0	200	1	0	0	1
fixed	7	7	2	1422005	1	2	2	1	0	805	1	4	0	208	2	0	0	3
fixed	7	7	3	1423183	6	4	4	1	0	692	1	4	0	224	3	0	0	4
fixed	7	7	4	1424596	2	1	1	1	0	639	1	4	0	200	4	0	0	5
fixed	7	7	5	1425572	5	3	3	1	0	854	1	4	0	216	5	0	0	6
fixed	7	7	6	1427368	6	4	4	1	0	650	1	4	0	224	6	0	0	8
fixed	7	7	7	1428834	3	1	1	1	0	692	1	4	0	200	7	0	0	9
fixed	7	7	8	1429919	2	3	3	1	0	822	1	4	0	216	8	0	0	10
fixed	7	7	9	1431311	3	2	2	1	0	491	1	4	0	208	9	0	0	11
fixed	7	7	10	1432464	1	4	4	1	0	682	1	4	0	224	10	0	0	12
fixed	7	7	11	1433794	5	2	2	1	0	866	1	4	0	208	11	0	0	13
fixed	7	7	12	1435081	4	3	3	1	0	628	1	4	0	216	12	0	0	14
fixed	7	8	1	1436472	4	1	1	1	0	640	1	4	0	200	1	0	0	1
fixed	7	8	2	1438107	1	2	2	1	0	875	1	4	0	208	2	0	0	2
fixed	7	8	3	1439673	6	4	4	1	0	569	1	4	0	224	3	0	0	3
fixed	7	8	4	1440623	2	1	1	1	0	657	1	4	0	200	4	0	0	5
fixed	7	8	5	1442273	5	3	3	1	0	787	1	4	0	216	5	0	0	6
fixed	7	8	6	1444037	6	4	4	1	0	720	1	4	0	224	6	0	0	7
fixed	7	8	7	1445293	3	1	1	1	0	627	1	4	0	200	7	0	0	8
fixed	7	8	8	1446891	2	3	3	1	0	727	1	4	0	216	8	0	0	9
fixed	7	8	9	1448089	3	2	2	1	0	813	1	4	0	208	9	0	0	10
fixed	7	8	10	1449809	1	4	4	1	0	740	1	4	0	224	10	0	0	11
fixed	7	8	11	1451494	5	2	2	1	0	764	1	4	0	208	11	0	0	12
fixed	7	8	12	1453251	4	3	3	1	0	618	1	4	0	216	12	0	0	13
fixed	7	9	1	1454483	4	1	1	1	0	653	1	4	0	200	1	0	0	1
fixed	7	9	2	1455507	1	2	2	1	0	874	1	4	0	208	2	0	0	2
fixed	7	9	3	1456826	6	4	4	1	0	554	1	4	0	224	3	0	0	3
fixed	7	9	4	1457724	2	1	1	1	0	676	1	4	0	200	4	0	0	4
fixed	7	9	5	1459433	5	3	3	1	0	908	1	4	0	216	5	0	0	5
fixed	7	9	6	1461345	6	4	4	1	0	675	1	4	0	224	6	0	0	6
fixed	7	9	7	1462582	3	1	1	1	0	631	1	4	0	200	7	0	0	7
fixed	7	9	8	1463823	2	3	3	1	0	898	1	4	0	216	8	0	0	8
fixed	7	9	9	1465278	3	2	2	1	0	708	1	4	0	208	9	0	0	9
fixed	7	9	10	1466910	1	4	4	1	0	648	1	4	0	224	10	0	0	9
fixed	7	9	11	1468422	5	2	2	1	0	759	1	4	0	208	11	0	0	10
fixed	7	9	12	1470110	4	3	3	1	0	688	1	4	0	216	12	0	0	11
fixed	7	10	1	1471976	4	1	1	1	0	689	1	4	0	200	1	0	0	1
fixed	7	10	2	1473380	1	2	2	1	0	853	1	4	0	208	2	0	0	2
fixed	7	10	3	1474996	6	4	4	1	0	585	1	4	0	224	3	0	0	3
fixed	7	10	4	1476217	2	1	1	1	0	677	1	4	0	200	4	0	0	4
fixed	7	10	5	1477525	5	3	3	1	0	694	1	4	0	216	5	0	0	4
fixed	7	10	6	1479170	6	4	4	1	0	616	1	4	0	224	6	0	0	5
fixed	7	10	7	1480348	3	1	1	1	0	846	1	4	0	200	7	0	0	6
fixed	7	10	8	1481681	2	3	3	1	0	733	1	4	0	216	8	0	0	7
fixed	7	10	9	1483100	3	2	2	1	0	730	1	4	0	208	9	0	0	8
fixed	7	10	10	1484810	1	4	4	1	0	609	1	4	0	224	10	0	0	8
fixed	7	10	11	1485838	5	2	2	1	0	870	1	4	0	208	11	0	0	9
fixed	7	10	12	1487367	4	3	3	1	0	613	1	4	0	216	12	0	0	10
