type	block	sequ.	trial	time	Pos.	Color	Button	NumRsp	Resp_1	RT_1	R_Code	Resp_2	RT_2	Trigg.	n_hit	n_inc	n_miss	score_%

random	1	1	1	7552	6	1	1	1	0	902	1	4	0	8	1	0	0	100
random	1	1	2	9228	4	4	4	1	0	687	1	4	0	32	2	0	0	100
random	1	1	3	10222	2	2	2	1	0	1021	1	4	0	16	3	0	0	100
random	1	1	4	12222	3	3	3	1	0	744	1	4	0	24	4	0	0	100
random	1	1	5	13316	5	2	2	1	0	922	1	4	0	16	5	0	0	100
random	1	1	6	14853	1	4	4	1	0	833	1	4	0	32	6	0	0	100
random	1	1	7	16508	6	1	1	1	0	707	1	4	0	8	7	0	0	100
random	1	1	8	18095	2	3	3	1	0	871	1	4	0	24	8	0	0	100
random	1	1	9	19996	4	2	2	1	0	879	1	4	0	16	9	0	0	100
random	1	1	10	21510	1	1	1	1	0	807	1	4	0	8	10	0	0	100
random	1	1	11	23231	5	4	4	1	0	694	1	4	0	32	11	0	0	100
random	1	1	12	24919	3	3	3	1	0	726	1	4	0	24	12	0	0	100
random	1	1	13	26283	5	2	2	1	0	1068	1	4	0	16	13	0	0	100
random	1	1	14	28313	1	4	4	1	0	775	1	4	0	32	14	0	0	100
random	1	1	15	29885	3	1	1	1	0	716	1	4	0	8	15	0	0	100
random	1	1	16	31317	4	3	3	1	0	743	1	4	0	24	16	0	0	100
random	1	1	17	32698	6	4	4	1	0	765	1	4	0	32	17	0	0	100
random	1	1	18	34137	2	1	1	1	0	592	1	4	0	8	18	0	0	100
random	1	1	19	35039	5	3	3	1	0	922	1	4	0	24	19	0	0	100
random	1	1	20	36335	2	2	2	1	0	971	1	4	0	16	20	0	0	100
random	1	1	21	37795	3	3	3	1	0	757	1	4	0	24	21	0	0	100
random	1	1	22	39551	6	1	1	1	0	683	1	4	0	8	22	0	0	100
random	1	1	23	41148	4	2	2	1	0	903	1	4	0	16	23	0	0	100
random	1	1	24	42691	1	4	4	1	0	733	1	4	0	32	24	0	0	100
random	1	1	25	44294	4	3	3	1	0	882	1	4	0	24	25	0	0	100
random	1	1	26	45845	2	1	1	1	0	761	1	4	0	8	26	0	0	100
random	1	1	27	47158	5	2	2	1	0	1225	1	4	0	16	27	0	0	100
random	1	1	28	49143	6	4	4	1	0	660	1	4	0	32	28	0	0	100
random	1	1	29	50725	1	3	3	1	0	689	1	4	0	24	29	0	0	100
random	1	1	30	52187	5	2	2	1	0	788	1	4	0	16	30	0	0	100
random	1	1	31	53870	2	1	1	1	0	748	1	4	0	8	31	0	0	100
random	1	1	32	54977	3	3	3	1	0	717	1	4	0	24	32	0	0	100
random	1	1	33	56722	6	4	4	1	0	660	1	4	0	32	33	0	0	100
random	1	1	34	57821	4	2	2	1	0	709	1	4	0	16	34	0	0	100
random	1	1	35	59304	3	4	4	1	0	622	1	4	0	32	35	0	0	100
random	1	1	36	60536	1	1	1	1	0	658	1	4	0	8	36	0	0	100
random	1	1	37	62239	3	4	4	1	0	682	1	4	0	32	37	0	0	100
random	1	1	38	63348	5	3	3	1	0	899	1	4	0	24	38	0	0	100
random	1	1	39	64802	6	1	1	1	0	677	1	4	0	8	39	0	0	100
random	1	1	40	66175	1	2	2	2	0	1355	2	4	0	16	40	0	0	100
random	1	1	41	68224	2	3	3	1	0	828	1	4	0	24	41	0	0	100
random	1	1	42	69915	4	4	4	2	0	1205	2	4	0	32	42	0	0	100
random	1	1	43	72117	1	2	2	2	0	1191	2	4	0	16	43	0	0	100
random	1	1	44	74227	6	3	3	1	0	718	1	4	0	24	44	0	0	100
random	1	1	45	75838	3	1	1	1	0	770	1	4	0	8	45	0	0	100
random	1	1	46	77514	4	4	4	1	0	659	1	4	0	32	46	0	0	100
random	1	1	47	78548	2	2	2	2	0	1087	2	4	0	16	47	0	0	100
random	1	1	48	80475	5	1	1	1	0	822	1	4	0	8	48	0	0	100
random	1	1	49	82539	2	3	3	1	0	862	1	4	0	24	49	0	0	100
random	1	1	50	84401	3	1	1	2	0	975	2	4	0	8	50	0	0	100
random	1	1	51	86183	1	4	4	1	0	732	1	4	0	32	51	0	0	100
random	1	1	52	87776	5	3	3	1	0	840	1	4	0	24	52	0	0	100
random	1	1	53	88931	3	2	2	1	0	903	1	4	0	16	53	0	0	100
random	1	1	54	90667	6	4	4	1	0	958	1	4	0	32	54	0	0	100
random	1	1	55	92610	4	2	2	1	0	1004	1	4	0	16	55	0	0	100
random	1	1	56	94300	1	1	1	1	0	700	1	4	0	8	56	0	0	100
random	1	1	57	95293	5	4	4	1	0	666	1	4	0	32	57	0	0	100
random	1	1	58	96872	2	1	1	1	0	1007	1	4	0	8	58	0	0	100
random	1	1	59	98323	6	2	2	1	0	1274	1	4	0	16	59	0	0	100
random	1	1	60	100470	4	3	3	1	0	655	1	4	0	24	60	0	0	100
random	1	1	61	102036	1	2	2	1	0	1068	1	4	0	16	61	0	0	100
random	1	1	62	103704	6	4	4	1	0	806	1	4	0	32	62	0	0	100
random	1	1	63	104935	4	1	1	1	0	761	1	4	0	8	63	0	0	100
random	1	1	64	106720	2	2	2	1	0	1278	1	4	0	16	64	0	0	100
random	1	1	65	108667	4	3	3	2	0	1339	2	4	0	24	65	0	0	100
random	1	1	66	110712	3	1	1	1	0	1037	1	4	0	8	66	0	0	100
random	1	1	67	112500	1	3	3	1	0	945	1	4	0	24	67	0	0	100
random	1	1	68	114086	5	4	4	1	0	846	1	4	0	32	68	0	0	100
random	1	1	69	115381	2	2	2	1	0	959	1	4	0	16	69	0	0	100
random	1	1	70	117336	3	1	1	1	0	780	1	4	0	8	70	0	0	100
random	1	1	71	118962	5	4	4	1	0	879	1	4	0	32	71	0	0	100
random	1	1	72	120599	6	3	3	1	0	1154	1	4	0	24	72	0	0	100
random	1	1	73	122854	2	1	1	1	0	698	1	4	0	8	73	0	0	100
random	1	1	74	124134	5	3	3	1	0	708	1	4	0	24	74	0	0	100
random	1	1	75	125540	1	4	4	1	0	705	1	4	0	32	75	0	0	100
random	1	1	76	127096	6	2	2	1	0	854	1	4	0	16	76	0	0	100
random	1	1	77	128405	2	1	1	1	0	863	1	4	0	8	77	0	0	100
random	1	1	78	130241	4	4	4	1	0	673	1	4	0	32	78	0	0	100
random	1	1	79	131208	3	2	2	1	0	920	1	4	0	16	79	0	0	100
random	1	1	80	133060	4	3	3	1	0	746	1	4	0	24	80	0	0	100
random	1	1	81	134721	1	4	4	1	0	676	1	4	0	32	81	0	0	100
random	1	1	82	136284	5	1	1	1	0	706	1	4	0	8	82	0	0	100
random	1	1	83	137340	3	2	2	1	0	917	1	4	0	16	83	0	0	100
random	1	1	84	139011	6	3	3	1	0	694	1	4	0	24	84	0	0	100
random	1	1	85	140415	3	2	2	2	0	787	2	4	0	16	85	0	0	100
random	1	1	86	142007	1	3	3	1	0	863	1	4	0	24	86	0	0	100
random	1	1	87	143615	4	4	4	1	0	771	1	4	0	32	87	0	0	100
random	1	1	88	144859	2	1	1	1	0	726	1	4	0	8	88	0	0	100
random	1	1	89	146494	6	4	4	1	0	1009	1	4	0	32	89	0	0	100
random	1	1	90	148376	3	3	3	1	0	874	1	4	0	24	90	0	0	100
random	1	1	91	149676	5	4	4	1	0	706	1	4	0	32	91	0	0	100
random	1	1	92	151376	1	2	2	1	0	882	1	4	0	16	92	0	0	100
random	1	1	93	153085	5	1	1	1	0	722	1	4	0	8	93	0	0	100
random	1	1	94	154456	4	3	3	1	0	712	1	4	0	24	94	0	0	100
random	1	1	95	155888	6	1	1	1	0	811	1	4	0	8	95	0	0	100
random	1	1	96	157170	2	2	2	2	0	1645	2	4	0	16	96	0	0	100
random	1	1	97	160079	4	3	3	1	0	730	1	4	0	24	97	0	0	100
random	1	1	98	161491	3	2	2	1	0	846	1	4	0	16	98	0	0	100
random	1	1	99	163306	6	3	3	1	0	841	1	4	0	24	99	0	0	100
random	1	1	100	164591	1	4	4	1	0	722	1	4	0	32	100	0	0	100
random	1	1	101	166215	4	1	1	1	0	718	1	4	0	8	101	0	0	100
random	1	1	102	167378	5	2	2	1	0	964	1	4	0	16	102	0	0	100
random	1	1	103	169220	2	4	4	1	0	711	1	4	0	32	103	0	0	100
random	1	1	104	170516	3	1	1	1	0	752	1	4	0	8	104	0	0	100
random	1	1	105	171666	1	3	3	1	0	751	1	4	0	24	105	0	0	100
random	1	1	106	173337	2	2	2	1	0	904	1	4	0	16	106	0	0	100
random	1	1	107	174920	5	4	4	1	0	685	1	4	0	32	107	0	0	100
random	1	1	108	176088	6	1	1	1	0	828	1	4	0	8	108	0	0	100
random	1	1	109	177622	5	4	4	1	0	763	1	4	0	32	109	0	0	100
random	1	1	110	179097	6	3	3	1	0	964	1	4	0	24	110	0	0	100
random	1	1	111	180620	2	2	2	1	0	740	1	4	0	16	111	0	0	100
random	1	1	112	181832	3	1	1	1	0	1024	1	4	0	8	112	0	0	100
random	1	1	113	183566	1	2	2	1	0	1383	1	4	0	16	113	0	0	100
random	1	1	114	185581	2	3	3	1	0	698	1	4	0	24	114	0	0	100
random	1	1	115	186880	3	1	1	1	0	795	1	4	0	8	115	0	0	100
random	1	1	116	188254	4	4	4	1	0	632	1	4	0	32	116	0	0	100
random	1	1	117	189378	6	1	1	1	0	737	1	4	0	8	117	0	0	100
random	1	1	118	191091	5	3	3	1	0	728	1	4	0	24	118	0	0	100
random	1	1	119	192157	1	4	4	1	0	859	1	4	0	32	119	0	0	100
random	1	1	120	193435	4	2	2	1	0	861	1	4	0	16	120	0	0	100
fixed	2	1	1	195480	4	1	1	1	0	742	1	4	0	40	1	0	0	100
fixed	2	1	2	196746	1	2	2	1	0	1145	1	4	0	48	2	0	0	100
fixed	2	1	3	198177	6	4	4	1	0	612	1	4	0	64	3	0	0	100
fixed	2	1	4	199237	2	1	1	1	0	784	1	4	0	40	4	0	0	100
fixed	2	1	5	200945	5	3	3	1	0	719	1	4	0	56	5	0	0	100
fixed	2	1	6	202342	6	4	4	1	0	788	1	4	0	64	6	0	0	100
fixed	2	1	7	203854	3	1	1	1	0	660	1	4	0	40	7	0	0	100
fixed	2	1	8	205041	2	3	3	2	0	1353	2	4	0	56	8	0	0	100
fixed	2	1	9	206954	3	2	2	1	0	913	1	4	0	48	9	0	0	100
fixed	2	1	10	208709	1	4	4	1	0	686	1	4	0	64	10	0	0	100
fixed	2	1	11	210040	5	2	2	1	0	990	1	4	0	48	11	0	0	100
fixed	2	1	12	212068	4	3	3	1	0	1064	1	4	0	56	12	0	0	100
fixed	2	2	1	214178	4	1	1	1	0	782	1	4	0	40	13	0	0	100
fixed	2	2	2	215333	1	2	2	1	0	981	1	4	0	48	14	0	0	100
fixed	2	2	3	216832	6	4	4	1	0	630	1	4	0	64	15	0	0	100
fixed	2	2	4	218351	2	1	1	1	0	710	1	4	0	40	16	0	0	100
fixed	2	2	5	219857	5	3	3	1	0	758	1	4	0	56	17	0	0	100
fixed	2	2	6	221548	6	4	4	1	0	766	1	4	0	64	18	0	0	100
fixed	2	2	7	222884	3	1	1	1	0	662	1	4	0	40	19	0	0	100
fixed	2	2	8	224331	2	3	3	1	0	1233	1	4	0	56	20	0	0	100
fixed	2	2	9	226310	3	2	2	1	0	884	1	4	0	48	21	0	0	100
fixed	2	2	10	227680	1	4	4	1	0	729	1	4	0	64	22	0	0	100
fixed	2	2	11	228931	5	2	2	1	0	893	1	4	0	48	23	0	0	100
fixed	2	2	12	230440	4	3	3	1	0	718	1	4	0	56	24	0	0	100
fixed	2	3	1	231888	4	1	1	1	0	576	1	4	0	40	25	0	0	100
fixed	2	3	2	233220	1	2	2	1	0	992	1	4	0	48	26	0	0	100
fixed	2	3	3	234535	6	4	4	1	0	616	1	4	0	64	27	0	0	100
fixed	2	3	4	235663	2	1	1	1	0	688	1	4	0	40	28	0	0	100
fixed	2	3	5	237117	5	3	3	1	0	851	1	4	0	56	29	0	0	100
fixed	2	3	6	238711	6	4	4	1	0	831	1	4	0	64	30	0	0	100
fixed	2	3	7	240180	3	1	1	1	0	809	1	4	0	40	31	0	0	100
fixed	2	3	8	241672	2	3	3	1	0	978	1	4	0	56	32	0	0	100
fixed	2	3	9	243407	3	2	2	1	0	1233	1	4	0	48	33	0	0	100
fixed	2	3	10	245438	1	4	4	1	0	666	1	4	0	64	34	0	0	100
fixed	2	3	11	246917	5	2	2	1	0	956	1	4	0	48	35	0	0	100
fixed	2	3	12	248901	4	3	3	1	0	800	1	4	0	56	36	0	0	100
fixed	2	4	1	250334	4	1	1	1	0	675	1	4	0	40	37	0	0	100
fixed	2	4	2	251450	1	2	2	1	0	804	1	4	0	48	38	0	0	100
fixed	2	4	3	252539	6	4	4	1	0	653	1	4	0	64	39	0	0	100
fixed	2	4	4	253798	2	1	1	1	0	672	1	4	0	40	40	0	0	100
fixed	2	4	5	255024	5	3	3	1	0	797	1	4	0	56	41	0	0	100
fixed	2	4	6	256113	6	4	4	1	0	638	1	4	0	64	42	0	0	100
fixed	2	4	7	257266	3	1	1	1	0	685	1	4	0	40	43	0	0	100
fixed	2	4	8	258743	2	3	3	1	0	799	1	4	0	56	44	0	0	100
fixed	2	4	9	259966	3	2	2	1	0	643	1	4	0	48	45	0	0	100
fixed	2	4	10	261207	1	4	4	1	0	703	1	4	0	64	46	0	0	100
fixed	2	4	11	262593	5	2	2	1	0	1140	1	4	0	48	47	0	0	100
fixed	2	4	12	264704	4	3	3	1	0	794	1	4	0	56	48	0	0	100
fixed	2	5	1	266741	4	1	1	1	0	844	1	4	0	40	49	0	0	100
fixed	2	5	2	268141	1	2	2	2	0	2089	2	4	0	48	50	0	0	100
fixed	2	5	3	270956	6	4	4	1	0	714	1	4	0	64	51	0	0	100
fixed	2	5	4	271958	2	1	1	1	0	711	1	4	0	40	52	0	0	100
fixed	2	5	5	273254	5	3	3	1	0	760	1	4	0	56	53	0	0	100
fixed	2	5	6	274394	6	4	4	1	0	1144	1	4	0	64	54	0	0	100
fixed	2	5	7	276377	3	1	1	1	0	604	1	4	0	40	55	0	0	100
fixed	2	5	8	277687	2	3	3	1	0	876	1	4	0	56	56	0	0	100
fixed	2	5	9	278987	3	2	2	1	0	933	1	4	0	48	57	0	0	100
fixed	2	5	10	280491	1	4	4	1	0	678	1	4	0	64	58	0	0	100
fixed	2	5	11	281586	5	2	2	1	0	904	1	4	0	48	59	0	0	100
fixed	2	5	12	283225	4	3	3	1	0	762	1	4	0	56	60	0	0	100
fixed	2	6	1	285035	4	1	1	1	0	645	1	4	0	40	61	0	0	100
fixed	2	6	2	286406	1	2	2	1	0	971	1	4	0	48	62	0	0	100
fixed	2	6	3	288065	6	4	4	1	0	621	1	4	0	64	63	0	0	100
fixed	2	6	4	289282	2	1	1	1	0	681	1	4	0	40	64	0	0	100
fixed	2	6	5	290725	5	3	3	1	0	748	1	4	0	56	65	0	0	100
fixed	2	6	6	292288	6	4	4	1	0	746	1	4	0	64	66	0	0	100
fixed	2	6	7	293702	3	1	1	1	0	590	1	4	0	40	67	0	0	100
fixed	2	6	8	294955	2	3	3	1	0	705	1	4	0	56	68	0	0	100
fixed	2	6	9	296634	3	2	2	1	0	538	1	4	0	48	69	0	0	100
fixed	2	6	10	297901	1	4	4	1	0	612	1	4	0	64	70	0	0	100
fixed	2	6	11	298825	5	2	2	1	0	661	1	4	0	48	71	0	0	100
fixed	2	6	12	300004	4	3	3	1	0	819	1	4	0	56	72	0	0	100
fixed	2	7	1	301927	4	1	1	1	0	698	1	4	0	40	73	0	0	100
fixed	2	7	2	303132	1	2	2	1	0	831	1	4	0	48	74	0	0	100
fixed	2	7	3	304486	6	4	4	1	0	589	1	4	0	64	75	0	0	100
fixed	2	7	4	305550	2	1	1	1	0	712	1	4	0	40	76	0	0	100
fixed	2	7	5	307156	5	3	3	1	0	676	1	4	0	56	77	0	0	100
fixed	2	7	6	308598	6	4	4	1	0	639	1	4	0	64	78	0	0	100
fixed	2	7	7	310244	3	1	1	1	0	850	1	4	0	40	79	0	0	100
fixed	2	7	8	312019	2	3	3	1	0	710	1	4	0	56	80	0	0	100
fixed	2	7	9	313029	3	2	2	1	0	476	1	4	0	48	81	0	0	100
fixed	2	7	10	313954	1	4	4	1	0	740	1	4	0	64	82	0	0	100
fixed	2	7	11	315021	5	2	2	1	0	863	1	4	0	48	83	0	0	100
fixed	2	7	12	316589	4	3	3	1	0	813	1	4	0	56	84	0	0	100
fixed	2	8	1	318635	4	1	1	1	0	766	1	4	0	40	85	0	0	100
fixed	2	8	2	319803	1	2	2	1	0	1108	1	4	0	48	86	0	0	100
fixed	2	8	3	321577	6	4	4	1	0	673	1	4	0	64	87	0	0	100
fixed	2	8	4	323178	2	1	1	1	0	797	1	4	0	40	88	0	0	100
fixed	2	8	5	324618	5	3	3	1	0	977	1	4	0	56	89	0	0	100
fixed	2	8	6	326238	6	4	4	1	0	692	1	4	0	64	90	0	0	100
fixed	2	8	7	327830	3	1	1	1	0	969	1	4	0	40	91	0	0	100
fixed	2	8	8	329151	2	3	3	1	0	913	1	4	0	56	92	0	0	100
fixed	2	8	9	331043	3	2	2	1	0	921	1	4	0	48	93	0	0	100
fixed	2	8	10	332338	1	4	4	1	0	610	1	4	0	64	94	0	0	100
fixed	2	8	11	333608	5	2	2	1	0	1148	1	4	0	48	95	0	0	100
fixed	2	8	12	335742	4	3	3	1	0	801	1	4	0	56	96	0	0	100
fixed	2	9	1	337213	4	1	1	1	0	867	1	4	0	40	97	0	0	100
fixed	2	9	2	338721	1	2	2	2	0	755	2	4	0	48	98	0	0	100
fixed	2	9	3	340316	6	4	4	1	0	664	1	4	0	64	99	0	0	100
fixed	2	9	4	341560	2	1	1	1	0	739	1	4	0	40	100	0	0	100
fixed	2	9	5	342661	5	3	3	1	0	1148	1	4	0	56	101	0	0	100
fixed	2	9	6	344335	6	4	4	1	0	670	1	4	0	64	102	0	0	100
fixed	2	9	7	345875	3	1	1	1	0	788	1	4	0	40	103	0	0	100
fixed	2	9	8	347303	2	3	3	1	0	1032	1	4	0	56	104	0	0	100
fixed	2	9	9	349217	3	2	2	1	0	847	1	4	0	48	105	0	0	100
fixed	2	9	10	350406	1	4	4	1	0	781	1	4	0	64	106	0	0	100
fixed	2	9	11	351626	5	2	2	1	0	969	1	4	0	48	107	0	0	100
fixed	2	9	12	353086	4	3	3	1	0	899	1	4	0	56	108	0	0	100
fixed	2	10	1	354940	4	1	1	1	0	444	1	4	0	40	109	0	0	100
fixed	2	10	2	356037	1	2	2	1	0	1222	1	4	0	48	110	0	0	100
fixed	2	10	3	357644	6	4	4	1	0	666	1	4	0	64	111	0	0	100
fixed	2	10	4	359207	2	1	0	1	2	0	3	4	0	40	111	0	1	99
fixed	2	10	5	362720	5	3	3	1	0	1043	1	4	0	56	112	0	1	99
fixed	2	10	6	364166	6	4	4	1	0	710	1	4	0	64	113	0	1	99
fixed	2	10	7	365554	3	1	1	1	0	707	1	4	0	40	114	0	1	99
fixed	2	10	8	366831	2	3	3	1	0	1605	1	4	0	56	115	0	1	99
fixed	2	10	9	369064	3	2	2	1	0	838	1	4	0	48	116	0	1	99
fixed	2	10	10	370587	1	4	4	1	0	598	1	4	0	64	117	0	1	99
fixed	2	10	11	371676	5	2	2	1	0	984	1	4	0	48	118	0	1	99
fixed	2	10	12	373151	4	3	3	1	0	713	1	4	0	56	119	0	1	99
fixed	3	1	1	375338	4	1	1	1	0	404	1	4	0	72	1	0	0	100
fixed	3	1	2	376394	1	2	2	1	0	736	1	4	0	80	2	0	0	100
fixed	3	1	3	378033	6	4	4	1	0	658	1	4	0	96	3	0	0	100
fixed	3	1	4	379014	2	1	1	1	0	808	1	4	0	72	4	0	0	100
fixed	3	1	5	380284	5	3	3	1	0	827	1	4	0	88	5	0	0	100
fixed	3	1	6	382038	6	4	4	1	0	760	1	4	0	96	6	0	0	100
fixed	3	1	7	383259	3	1	1	1	0	749	1	4	0	72	7	0	0	100
fixed	3	1	8	384932	2	3	3	1	0	694	1	4	0	88	8	0	0	100
fixed	3	1	9	386511	3	2	2	1	0	371	1	4	0	80	9	0	0	100
fixed	3	1	10	387238	1	4	4	1	0	724	1	4	0	96	10	0	0	100
fixed	3	1	11	388273	5	2	2	1	0	864	1	4	0	80	11	0	0	100
fixed	3	1	12	390108	4	3	3	1	0	803	1	4	0	88	12	0	0	100
fixed	3	2	1	391614	4	1	1	1	0	507	1	4	0	72	13	0	0	100
fixed	3	2	2	393024	1	2	2	2	0	1559	2	4	0	80	14	0	0	100
fixed	3	2	3	395387	6	4	4	1	0	643	1	4	0	96	15	0	0	100
fixed	3	2	4	396560	2	1	1	1	0	745	1	4	0	72	16	0	0	100
fixed	3	2	5	398007	5	3	3	1	0	1021	1	4	0	88	17	0	0	100
fixed	3	2	6	399718	6	4	4	1	0	764	1	4	0	96	18	0	0	100
fixed	3	2	7	401228	3	1	1	1	0	924	1	4	0	72	19	0	0	100
fixed	3	2	8	402625	2	3	3	1	0	745	1	4	0	88	20	0	0	100
fixed	3	2	9	403784	3	2	2	1	0	680	1	4	0	80	21	0	0	100
fixed	3	2	10	405244	1	4	4	1	0	610	1	4	0	96	22	0	0	100
fixed	3	2	11	406782	5	2	2	1	0	776	1	4	0	80	23	0	0	100
fixed	3	2	12	408455	4	3	3	1	0	794	1	4	0	88	24	0	0	100
fixed	3	3	1	409992	4	1	1	1	0	568	1	4	0	72	25	0	0	100
fixed	3	3	2	411294	1	2	2	1	0	553	1	4	0	80	26	0	0	100
fixed	3	3	3	412734	6	4	4	1	0	396	1	4	0	96	27	0	0	100
fixed	3	3	4	413613	2	1	1	1	0	792	1	4	0	72	28	0	0	100
fixed	3	3	5	415239	5	3	3	1	0	850	1	4	0	88	29	0	0	100
fixed	3	3	6	416687	6	4	4	1	0	693	1	4	0	96	30	0	0	100
fixed	3	3	7	417806	3	1	1	1	0	734	1	4	0	72	31	0	0	100
fixed	3	3	8	418880	2	3	3	1	0	936	1	4	0	88	32	0	0	100
fixed	3	3	9	420157	3	2	2	1	0	690	1	4	0	80	33	0	0	100
fixed	3	3	10	421571	1	4	4	1	0	742	1	4	0	96	34	0	0	100
fixed	3	3	11	423011	5	2	2	1	0	905	1	4	0	80	35	0	0	100
fixed	3	3	12	424302	4	3	3	1	0	883	1	4	0	88	36	0	0	100
fixed	3	4	1	425797	4	1	1	1	0	979	1	4	0	72	37	0	0	100
fixed	3	4	2	427140	1	2	0	2	2	0	3	4	0	80	37	0	1	97
fixed	3	4	3	430012	6	4	4	2	0	753	2	4	0	96	38	0	1	97
fixed	3	4	4	431099	2	1	1	1	0	827	1	4	0	72	39	0	1	98
fixed	3	4	5	432870	5	3	3	1	0	960	1	4	0	88	40	0	1	98
fixed	3	4	6	434262	6	4	4	1	0	749	1	4	0	96	41	0	1	98
fixed	3	4	7	435831	3	1	1	1	0	914	1	4	0	72	42	0	1	98
fixed	3	4	8	437732	2	3	3	1	0	746	1	4	0	88	43	0	1	98
fixed	3	4	9	439005	3	2	2	1	0	884	1	4	0	80	44	0	1	98
fixed	3	4	10	440215	1	4	4	1	0	936	1	4	0	96	45	0	1	98
fixed	3	4	11	441849	5	2	2	1	0	828	1	4	0	80	46	0	1	98
fixed	3	4	12	443058	4	3	3	2	0	952	2	4	0	88	47	0	1	98
fixed	3	5	1	444644	4	1	1	1	0	789	1	4	0	72	48	0	1	98
fixed	3	5	2	445912	1	2	2	2	0	1559	2	4	0	80	49	0	1	98
fixed	3	5	3	447943	6	4	4	1	0	713	1	4	0	96	50	0	1	98
fixed	3	5	4	449326	2	1	1	2	0	1807	2	4	0	72	51	0	1	98
fixed	3	5	5	451470	5	3	3	1	0	788	1	4	0	88	52	0	1	98
fixed	3	5	6	453066	6	4	4	1	0	752	1	4	0	96	53	0	1	98
fixed	3	5	7	454201	3	1	1	1	0	912	1	4	0	72	54	0	1	98
fixed	3	5	8	456067	2	3	3	1	0	777	1	4	0	88	55	0	1	98
fixed	3	5	9	457149	3	2	2	1	0	1195	1	4	0	80	56	0	1	98
fixed	3	5	10	458989	1	4	4	1	0	558	1	4	0	96	57	0	1	98
fixed	3	5	11	460573	5	2	2	2	0	1402	2	4	0	80	58	0	1	98
fixed	3	5	12	462615	4	3	3	1	0	748	1	4	0	88	59	0	1	98
fixed	3	6	1	464342	4	1	1	1	0	498	1	4	0	72	60	0	1	98
fixed	3	6	2	465218	1	2	2	2	0	1230	2	4	0	80	61	0	1	98
fixed	3	6	3	467038	6	4	4	1	0	993	1	4	0	96	62	0	1	98
fixed	3	6	4	468498	2	1	1	1	0	2355	1	4	0	72	63	0	1	98
fixed	3	6	5	471165	5	3	3	1	0	962	1	4	0	88	64	0	1	98
fixed	3	6	6	472941	6	4	4	1	0	767	1	4	0	96	65	0	1	98
fixed	3	6	7	474038	3	1	1	2	0	1456	2	4	0	72	66	0	1	99
fixed	3	6	8	475938	2	3	3	1	0	767	1	4	0	88	67	0	1	99
fixed	3	6	9	477464	3	2	2	1	0	495	1	4	0	80	68	0	1	99
fixed	3	6	10	478816	1	4	4	1	0	726	1	4	0	96	69	0	1	99
fixed	3	6	11	480516	5	2	2	1	0	893	1	4	0	80	70	0	1	99
fixed	3	6	12	482366	4	3	3	1	0	1024	1	4	0	88	71	0	1	99
fixed	3	7	1	484592	4	1	1	1	0	761	1	4	0	72	72	0	1	99
fixed	3	7	2	486109	1	2	2	1	0	440	1	4	0	80	73	0	1	99
fixed	3	7	3	487576	6	4	4	1	0	579	1	4	0	96	74	0	1	99
fixed	3	7	4	488572	2	1	1	1	0	720	1	4	0	72	75	0	1	99
fixed	3	7	5	490022	5	3	3	1	0	1395	1	4	0	88	76	0	1	99
fixed	3	7	6	491973	6	4	4	1	0	585	1	4	0	96	77	0	1	99
fixed	3	7	7	493164	3	1	1	1	0	750	1	4	0	72	78	0	1	99
fixed	3	7	8	494782	2	3	3	1	0	897	1	4	0	88	79	0	1	99
fixed	3	7	9	496114	3	2	2	1	0	449	1	4	0	80	80	0	1	99
fixed	3	7	10	497080	1	4	4	1	0	680	1	4	0	96	81	0	1	99
fixed	3	7	11	498725	5	2	2	1	0	826	1	4	0	80	82	0	1	99
fixed	3	7	12	500526	4	3	3	1	0	670	1	4	0	88	83	0	1	99
fixed	3	8	1	502202	4	1	1	1	0	479	1	4	0	72	84	0	1	99
fixed	3	8	2	503055	1	2	2	1	0	1123	1	4	0	80	85	0	1	99
fixed	3	8	3	504823	6	4	4	1	0	840	1	4	0	96	86	0	1	99
fixed	3	8	4	506253	2	1	1	1	0	828	1	4	0	72	87	0	1	99
fixed	3	8	5	507876	5	3	3	1	0	847	1	4	0	88	88	0	1	99
fixed	3	8	6	509615	6	4	4	1	0	701	1	4	0	96	89	0	1	99
fixed	3	8	7	510992	3	1	1	1	0	683	1	4	0	72	90	0	1	99
fixed	3	8	8	512405	2	3	3	1	0	1399	1	4	0	88	91	0	1	99
fixed	3	8	9	514622	3	2	2	1	0	697	1	4	0	80	92	0	1	99
fixed	3	8	10	516068	1	4	4	1	0	596	1	4	0	96	93	0	1	99
fixed	3	8	11	517234	5	2	2	1	0	1131	1	4	0	80	94	0	1	99
fixed	3	8	12	518869	4	3	3	1	0	565	1	4	0	88	95	0	1	99
fixed	3	9	1	520580	4	1	1	1	0	637	1	4	0	72	96	0	1	99
fixed	3	9	2	521868	1	2	2	1	0	438	1	4	0	80	97	0	1	99
fixed	3	9	3	522755	6	4	4	1	0	736	1	4	0	96	98	0	1	99
fixed	3	9	4	524491	2	1	1	1	0	839	1	4	0	72	99	0	1	99
fixed	3	9	5	525897	5	3	3	1	0	787	1	4	0	88	100	0	1	99
fixed	3	9	6	527214	6	4	4	1	0	684	1	4	0	96	101	0	1	99
fixed	3	9	7	528418	3	1	1	1	0	857	1	4	0	72	102	0	1	99
fixed	3	9	8	529929	2	3	3	1	0	793	1	4	0	88	103	0	1	99
fixed	3	9	9	531574	3	2	2	1	0	539	1	4	0	80	104	0	1	99
fixed	3	9	10	532935	1	4	4	1	0	842	1	4	0	96	105	0	1	99
fixed	3	9	11	534565	5	2	2	1	0	804	1	4	0	80	106	0	1	99
fixed	3	9	12	535824	4	3	3	1	0	855	1	4	0	88	107	0	1	99
fixed	3	10	1	537371	4	1	1	1	0	853	1	4	0	72	108	0	1	99
fixed	3	10	2	539083	1	2	2	1	0	949	1	4	0	80	109	0	1	99
fixed	3	10	3	540785	6	4	4	1	0	453	1	4	0	96	110	0	1	99
fixed	3	10	4	542216	2	1	1	2	0	1552	2	4	0	72	111	0	1	99
fixed	3	10	5	544623	5	3	3	1	0	914	1	4	0	88	112	0	1	99
fixed	3	10	6	545879	6	4	4	1	0	629	1	4	0	96	113	0	1	99
fixed	3	10	7	547021	3	1	1	1	0	1213	1	4	0	72	114	0	1	99
fixed	3	10	8	548912	2	3	3	1	0	1085	1	4	0	88	115	0	1	99
fixed	3	10	9	550991	3	2	2	1	0	997	1	4	0	80	116	0	1	99
fixed	3	10	10	552492	1	4	4	1	0	965	1	4	0	96	117	0	1	99
fixed	3	10	11	553849	5	2	2	1	0	1188	1	4	0	80	118	0	1	99
fixed	3	10	12	555569	4	3	3	1	0	1187	1	4	0	88	119	0	1	99
fixed	4	1	1	653136	4	1	1	1	0	926	1	4	0	104	1	0	0	100
fixed	4	1	2	654874	1	2	0	1	2	0	3	4	0	112	1	0	1	50
fixed	4	1	3	657967	6	4	4	1	0	809	1	4	0	128	2	0	1	67
fixed	4	1	4	659131	2	1	1	1	0	721	1	4	0	104	3	0	1	75
fixed	4	1	5	660392	5	3	3	2	0	939	2	4	0	120	4	0	1	80
fixed	4	1	6	662363	6	4	4	1	0	735	1	4	0	128	5	0	1	83
fixed	4	1	7	663943	3	1	1	1	0	629	1	4	0	104	6	0	1	86
fixed	4	1	8	665419	2	3	3	1	0	774	1	4	0	120	7	0	1	88
fixed	4	1	9	666525	3	2	2	1	0	695	1	4	0	112	8	0	1	89
fixed	4	1	10	668083	1	4	4	1	0	613	1	4	0	128	9	0	1	90
fixed	4	1	11	669369	5	2	2	1	0	815	1	4	0	112	10	0	1	91
fixed	4	1	12	670592	4	3	3	1	0	723	1	4	0	120	11	0	1	92
fixed	4	2	1	672586	4	1	1	1	0	662	1	4	0	104	12	0	1	92
fixed	4	2	2	673815	1	2	2	1	0	699	1	4	0	112	13	0	1	93
fixed	4	2	3	675430	6	4	4	1	0	638	1	4	0	128	14	0	1	93
fixed	4	2	4	676376	2	1	1	1	0	774	1	4	0	104	15	0	1	94
fixed	4	2	5	677848	5	3	3	1	0	895	1	4	0	120	16	0	1	94
fixed	4	2	6	679035	6	4	4	1	0	765	1	4	0	128	17	0	1	94
fixed	4	2	7	680765	3	1	1	1	0	772	1	4	0	104	18	0	1	95
fixed	4	2	8	682159	2	3	3	1	0	921	1	4	0	120	19	0	1	95
fixed	4	2	9	683727	3	2	2	1	0	494	1	4	0	112	20	0	1	95
fixed	4	2	10	685203	1	4	4	1	0	816	1	4	0	128	21	0	1	95
fixed	4	2	11	686914	5	2	2	1	0	992	1	4	0	112	22	0	1	96
fixed	4	2	12	688263	4	3	3	1	0	630	1	4	0	120	23	0	1	96
fixed	4	3	1	689946	4	1	1	1	0	599	1	4	0	104	24	0	1	96
fixed	4	3	2	691549	1	2	2	1	0	331	1	4	0	112	25	0	1	96
fixed	4	3	3	692724	6	4	4	1	0	585	1	4	0	128	26	0	1	96
fixed	4	3	4	693680	2	1	1	1	0	1065	1	4	0	104	27	0	1	96
fixed	4	3	5	695261	5	3	3	2	0	782	2	4	0	120	28	0	1	97
fixed	4	3	6	696826	6	4	4	1	0	684	1	4	0	128	29	0	1	97
fixed	4	3	7	698380	3	1	1	1	0	802	1	4	0	104	30	0	1	97
fixed	4	3	8	699490	2	3	3	1	0	811	1	4	0	120	31	0	1	97
fixed	4	3	9	700963	3	2	2	1	0	413	1	4	0	112	32	0	1	97
fixed	4	3	10	702231	1	4	4	1	0	391	1	4	0	128	33	0	1	97
fixed	4	3	11	703452	5	2	2	1	0	547	1	4	0	112	34	0	1	97
fixed	4	3	12	704350	4	3	3	1	0	829	1	4	0	120	35	0	1	97
fixed	4	4	1	706035	4	1	1	1	0	621	1	4	0	104	36	0	1	97
fixed	4	4	2	707135	1	2	2	1	0	743	1	4	0	112	37	0	1	97
fixed	4	4	3	708666	6	4	4	1	0	374	1	4	0	128	38	0	1	97
fixed	4	4	4	709809	2	1	1	1	0	382	1	4	0	104	39	0	1	98
fixed	4	4	5	711037	5	3	3	1	0	746	1	4	0	120	40	0	1	98
fixed	4	4	6	712423	6	4	4	1	0	719	1	4	0	128	41	0	1	98
fixed	4	4	7	713670	3	1	1	1	0	778	1	4	0	104	42	0	1	98
fixed	4	4	8	714915	2	3	3	1	0	734	1	4	0	120	43	0	1	98
fixed	4	4	9	716149	3	2	2	1	0	473	1	4	0	112	44	0	1	98
fixed	4	4	10	717383	1	4	4	1	0	461	1	4	0	128	45	0	1	98
fixed	4	4	11	718622	5	2	2	1	0	537	1	4	0	112	46	0	1	98
fixed	4	4	12	719603	4	3	3	1	0	399	1	4	0	120	47	0	1	98
fixed	4	5	1	721005	4	1	1	1	0	427	1	4	0	104	48	0	1	98
fixed	4	5	2	722260	1	2	2	1	0	350	1	4	0	112	49	0	1	98
fixed	4	5	3	722976	6	4	4	1	0	712	1	4	0	128	50	0	1	98
fixed	4	5	4	724189	2	1	1	2	0	1165	2	4	0	104	51	0	1	98
fixed	4	5	5	726160	5	3	3	1	0	833	1	4	0	120	52	0	1	98
fixed	4	5	6	727865	6	4	4	1	0	705	1	4	0	128	53	0	1	98
fixed	4	5	7	729006	3	1	1	1	0	720	1	4	0	104	54	0	1	98
fixed	4	5	8	730641	2	3	3	1	0	860	1	4	0	120	55	0	1	98
fixed	4	5	9	732126	3	2	2	1	0	413	1	4	0	112	56	0	1	98
fixed	4	5	10	733026	1	4	4	1	0	511	1	4	0	128	57	0	1	98
fixed	4	5	11	734026	5	2	2	1	0	596	1	4	0	112	58	0	1	98
fixed	4	5	12	735582	4	3	3	1	0	306	1	4	0	120	59	0	1	98
fixed	4	6	1	736527	4	1	1	1	0	570	1	4	0	104	60	0	1	98
fixed	4	6	2	737469	1	2	2	1	0	962	1	4	0	112	61	0	1	98
fixed	4	6	3	739158	6	4	4	1	0	707	1	4	0	128	62	0	1	98
fixed	4	6	4	740899	2	1	1	1	0	945	1	4	0	104	63	0	1	98
fixed	4	6	5	742650	5	3	3	1	0	759	1	4	0	120	64	0	1	98
fixed	4	6	6	744075	6	4	4	1	0	771	1	4	0	128	65	0	1	98
fixed	4	6	7	745204	3	1	1	1	0	843	1	4	0	104	66	0	1	99
fixed	4	6	8	747041	2	3	3	1	0	813	1	4	0	120	67	0	1	99
fixed	4	6	9	748144	3	2	2	1	0	598	1	4	0	112	68	0	1	99
fixed	4	6	10	749494	1	4	4	1	0	453	1	4	0	128	69	0	1	99
fixed	4	6	11	750938	5	2	2	1	0	296	1	4	0	112	70	0	1	99
fixed	4	6	12	751579	4	3	3	1	0	876	1	4	0	120	71	0	1	99
fixed	4	7	1	753485	4	1	1	1	0	772	1	4	0	104	72	0	1	99
fixed	4	7	2	755292	1	2	2	1	0	311	1	4	0	112	73	0	1	99
fixed	4	7	3	756441	6	4	4	1	0	478	1	4	0	128	74	0	1	99
fixed	4	7	4	757479	2	1	1	1	0	1019	1	4	0	104	75	0	1	99
fixed	4	7	5	759158	5	3	3	1	0	980	1	4	0	120	76	0	1	99
fixed	4	7	6	760691	6	4	4	1	0	795	1	4	0	128	77	0	1	99
fixed	4	7	7	762152	3	1	1	1	0	957	1	4	0	104	78	0	1	99
fixed	4	7	8	763453	2	3	3	1	0	790	1	4	0	120	79	0	1	99
fixed	4	7	9	764762	3	2	2	1	0	510	1	4	0	112	80	0	1	99
fixed	4	7	10	766120	1	4	4	1	0	869	1	4	0	128	81	0	1	99
fixed	4	7	11	767549	5	2	2	1	0	697	1	4	0	112	82	0	1	99
fixed	4	7	12	768571	4	3	3	1	0	573	1	4	0	120	83	0	1	99
fixed	4	8	1	769908	4	1	1	1	0	380	1	4	0	104	84	0	1	99
fixed	4	8	2	770886	1	2	2	1	0	483	1	4	0	112	85	0	1	99
fixed	4	8	3	771995	6	4	4	1	0	364	1	4	0	128	86	0	1	99
fixed	4	8	4	773302	2	1	1	1	0	780	1	4	0	104	87	0	1	99
fixed	4	8	5	775004	5	3	3	1	0	764	1	4	0	120	88	0	1	99
fixed	4	8	6	776377	6	4	4	1	0	754	1	4	0	128	89	0	1	99
fixed	4	8	7	777921	3	1	1	1	0	897	1	4	0	104	90	0	1	99
fixed	4	8	8	779468	2	3	3	1	0	608	1	4	0	120	91	0	1	99
fixed	4	8	9	780550	3	2	2	1	0	489	1	4	0	112	92	0	1	99
fixed	4	8	10	781827	1	4	4	1	0	860	1	4	0	128	93	0	1	99
fixed	4	8	11	783165	5	2	2	1	0	691	1	4	0	112	94	0	1	99
fixed	4	8	12	784601	4	3	3	1	0	318	1	4	0	120	95	0	1	99
fixed	4	9	1	786165	4	1	1	1	0	652	1	4	0	104	96	0	1	99
fixed	4	9	2	787722	1	2	2	2	0	1706	2	4	0	112	97	0	1	99
fixed	4	9	3	790216	6	4	4	1	0	1032	1	4	0	128	98	0	1	99
fixed	4	9	4	791604	2	1	1	1	0	1054	1	4	0	104	99	0	1	99
fixed	4	9	5	793193	5	3	3	1	0	738	1	4	0	120	100	0	1	99
fixed	4	9	6	794672	6	4	4	1	0	963	1	4	0	128	101	0	1	99
fixed	4	9	7	796239	3	1	1	1	0	713	1	4	0	104	102	0	1	99
fixed	4	9	8	797435	2	3	3	1	0	703	1	4	0	120	103	0	1	99
fixed	4	9	9	798629	3	2	2	1	0	676	1	4	0	112	104	0	1	99
fixed	4	9	10	799688	1	4	4	1	0	1023	1	4	0	128	105	0	1	99
fixed	4	9	11	801407	5	2	2	1	0	766	1	4	0	112	106	0	1	99
fixed	4	9	12	802543	4	3	3	1	0	374	1	4	0	120	107	0	1	99
fixed	4	10	1	803608	4	1	1	1	0	457	1	4	0	104	108	0	1	99
fixed	4	10	2	804530	1	2	2	1	0	866	1	4	0	112	109	0	1	99
fixed	4	10	3	805744	6	4	4	1	0	622	1	4	0	128	110	0	1	99
fixed	4	10	4	807150	2	1	1	1	0	891	1	4	0	104	111	0	1	99
fixed	4	10	5	808505	5	3	3	1	0	793	1	4	0	120	112	0	1	99
fixed	4	10	6	810214	6	4	4	1	0	457	1	4	0	128	113	0	1	99
fixed	4	10	7	811271	3	1	1	1	0	749	1	4	0	104	114	0	1	99
fixed	4	10	8	812579	2	3	3	1	0	597	1	4	0	120	115	0	1	99
fixed	4	10	9	813466	3	2	2	1	0	447	1	4	0	112	116	0	1	99
fixed	4	10	10	814822	1	4	4	1	0	494	1	4	0	128	117	0	1	99
fixed	4	10	11	815718	5	2	2	1	0	840	1	4	0	112	118	0	1	99
fixed	4	10	12	817115	4	3	3	1	0	317	1	4	0	120	119	0	1	99
fixed	5	1	1	818592	4	1	1	2	0	1974	2	4	0	136	1	0	0	100
fixed	5	1	2	821380	1	2	2	2	0	960	2	4	0	144	2	0	0	100
fixed	5	1	3	822912	6	4	4	1	0	535	1	4	0	160	3	0	0	100
fixed	5	1	4	824194	2	1	1	1	0	681	1	4	0	136	4	0	0	100
fixed	5	1	5	825441	5	3	3	1	0	813	1	4	0	152	5	0	0	100
fixed	5	1	6	826707	6	4	4	1	0	511	1	4	0	160	6	0	0	100
fixed	5	1	7	827781	3	1	1	1	0	849	1	4	0	136	7	0	0	100
fixed	5	1	8	829294	2	3	3	1	0	689	1	4	0	152	8	0	0	100
fixed	5	1	9	830352	3	2	2	1	0	356	1	4	0	144	9	0	0	100
fixed	5	1	10	831538	1	4	4	1	0	626	1	4	0	160	10	0	0	100
fixed	5	1	11	832573	5	2	2	2	0	926	2	4	0	144	11	0	0	100
fixed	5	1	12	834129	4	3	3	1	0	317	1	4	0	152	12	0	0	100
fixed	5	2	1	835219	4	1	1	1	0	750	1	4	0	136	13	0	0	100
fixed	5	2	2	836728	1	2	2	2	0	1174	2	4	0	144	14	0	0	100
fixed	5	2	3	838704	6	4	4	1	0	491	1	4	0	160	15	0	0	100
fixed	5	2	4	840095	2	1	1	1	0	519	1	4	0	136	16	0	0	100
fixed	5	2	5	841110	5	3	3	1	0	1005	1	4	0	152	17	0	0	100
fixed	5	2	6	842855	6	4	4	1	0	674	1	4	0	160	18	0	0	100
fixed	5	2	7	844500	3	1	1	1	0	773	1	4	0	136	19	0	0	100
fixed	5	2	8	845931	2	3	3	1	0	1232	1	4	0	152	20	0	0	100
fixed	5	2	9	847653	3	2	2	1	0	343	1	4	0	144	21	0	0	100
fixed	5	2	10	848594	1	4	4	1	0	728	1	4	0	160	22	0	0	100
fixed	5	2	11	850251	5	2	2	1	0	322	1	4	0	144	23	0	0	100
fixed	5	2	12	851067	4	3	3	1	0	303	1	4	0	152	24	0	0	100
fixed	5	3	1	852611	4	1	1	1	0	461	1	4	0	136	25	0	0	100
fixed	5	3	2	853959	1	2	2	1	0	989	1	4	0	144	26	0	0	100
fixed	5	3	3	855606	6	4	4	1	0	358	1	4	0	160	27	0	0	100
fixed	5	3	4	856281	2	1	1	1	0	642	1	4	0	136	28	0	0	100
fixed	5	3	5	857881	5	3	3	1	0	1006	1	4	0	152	29	0	0	100
fixed	5	3	6	859345	6	4	4	1	0	744	1	4	0	160	30	0	0	100
fixed	5	3	7	861110	3	1	1	2	0	1414	2	4	0	136	31	0	0	100
fixed	5	3	8	863017	2	3	3	1	0	1565	1	4	0	152	32	0	0	100
fixed	5	3	9	865333	3	2	2	1	0	307	1	4	0	144	33	0	0	100
fixed	5	3	10	866455	1	4	4	1	0	555	1	4	0	160	34	0	0	100
fixed	5	3	11	867904	5	2	2	1	0	390	1	4	0	144	35	0	0	100
fixed	5	3	12	868835	4	3	3	1	0	726	1	4	0	152	36	0	0	100
fixed	5	4	1	870839	4	1	1	1	0	617	1	4	0	136	37	0	0	100
fixed	5	4	2	871921	1	2	2	1	0	900	1	4	0	144	38	0	0	100
fixed	5	4	3	873559	6	4	4	1	0	334	1	4	0	160	39	0	0	100
fixed	5	4	4	874240	2	1	1	1	0	801	1	4	0	136	40	0	0	100
fixed	5	4	5	876041	5	3	3	1	0	949	1	4	0	152	41	0	0	100
fixed	5	4	6	877310	6	4	4	1	0	943	1	4	0	160	42	0	0	100
fixed	5	4	7	878970	3	1	1	1	0	777	1	4	0	136	43	0	0	100
fixed	5	4	8	880600	2	3	3	1	0	948	1	4	0	152	44	0	0	100
fixed	5	4	9	881887	3	2	2	1	0	1141	1	4	0	144	45	0	0	100
fixed	5	4	10	883834	1	4	4	1	0	899	1	4	0	160	46	0	0	100
fixed	5	4	11	885040	5	2	2	1	0	920	1	4	0	144	47	0	0	100
fixed	5	4	12	886669	4	3	3	1	0	867	1	4	0	152	48	0	0	100
fixed	5	5	1	888299	4	1	1	1	0	582	1	4	0	136	49	0	0	100
fixed	5	5	2	889274	1	2	2	1	0	853	1	4	0	144	50	0	0	100
fixed	5	5	3	890499	6	4	4	1	0	633	1	4	0	160	51	0	0	100
fixed	5	5	4	891633	2	1	1	1	0	801	1	4	0	136	52	0	0	100
fixed	5	5	5	893209	5	3	3	1	0	846	1	4	0	152	53	0	0	100
fixed	5	5	6	894397	6	4	4	1	0	803	1	4	0	160	54	0	0	100
fixed	5	5	7	896116	3	1	1	1	0	811	1	4	0	136	55	0	0	100
fixed	5	5	8	897926	2	3	3	1	0	766	1	4	0	152	56	0	0	100
fixed	5	5	9	899044	3	2	2	1	0	415	1	4	0	144	57	0	0	100
fixed	5	5	10	900157	1	4	4	1	0	528	1	4	0	160	58	0	0	100
fixed	5	5	11	901251	5	2	2	1	0	817	1	4	0	144	59	0	0	100
fixed	5	5	12	902379	4	3	3	1	0	394	1	4	0	152	60	0	0	100
fixed	5	6	1	903887	4	1	1	1	0	361	1	4	0	136	61	0	0	100
fixed	5	6	2	904608	1	2	2	2	0	1603	2	4	0	144	62	0	0	100
fixed	5	6	3	906638	6	4	4	1	0	605	1	4	0	160	63	0	0	100
fixed	5	6	4	908137	2	1	1	1	0	766	1	4	0	136	64	0	0	100
fixed	5	6	5	909460	5	3	3	1	0	870	1	4	0	152	65	0	0	100
fixed	5	6	6	911148	6	4	4	1	0	854	1	4	0	160	66	0	0	100
fixed	5	6	7	912544	3	1	1	1	0	675	1	4	0	136	67	0	0	100
fixed	5	6	8	914103	2	3	3	1	0	753	1	4	0	152	68	0	0	100
fixed	5	6	9	915806	3	2	2	1	0	1033	1	4	0	144	69	0	0	100
fixed	5	6	10	917131	1	4	4	1	0	841	1	4	0	160	70	0	0	100
fixed	5	6	11	918290	5	2	2	1	0	783	1	4	0	144	71	0	0	100
fixed	5	6	12	919830	4	3	3	1	0	910	1	4	0	152	72	0	0	100
fixed	5	7	1	921447	4	1	1	1	0	970	1	4	0	136	73	0	0	100
fixed	5	7	2	923439	1	2	2	1	0	390	1	4	0	144	74	0	0	100
fixed	5	7	3	924413	6	4	4	1	0	692	1	4	0	160	75	0	0	100
fixed	5	7	4	925734	2	1	1	2	0	901	2	4	0	136	76	0	0	100
fixed	5	7	5	927550	5	3	3	1	0	1071	1	4	0	152	77	0	0	100
fixed	5	7	6	929537	6	4	4	1	0	987	1	4	0	160	78	0	0	100
fixed	5	7	7	931161	3	1	1	1	0	783	1	4	0	136	79	0	0	100
fixed	5	7	8	932693	2	3	3	1	0	1109	1	4	0	152	80	0	0	100
fixed	5	7	9	934396	3	2	2	1	0	397	1	4	0	144	81	0	0	100
fixed	5	7	10	935700	1	4	4	1	0	374	1	4	0	160	82	0	0	100
fixed	5	7	11	936874	5	2	2	1	0	1173	1	4	0	144	83	0	0	100
fixed	5	7	12	938706	4	3	3	1	0	215	1	4	0	152	84	0	0	100
fixed	5	8	1	940126	4	1	1	1	0	787	1	4	0	136	85	0	0	100
fixed	5	8	2	941638	1	2	2	1	0	531	1	4	0	144	86	0	0	100
fixed	5	8	3	942743	6	4	4	1	0	412	1	4	0	160	87	0	0	100
fixed	5	8	4	943615	2	1	1	1	0	647	1	4	0	136	88	0	0	100
fixed	5	8	5	945298	5	3	3	1	0	848	1	4	0	152	89	0	0	100
fixed	5	8	6	946886	6	4	4	1	0	597	1	4	0	160	90	0	0	100
fixed	5	8	7	947767	3	1	1	1	0	823	1	4	0	136	91	0	0	100
fixed	5	8	8	949015	2	3	3	1	0	1290	1	4	0	152	92	0	0	100
fixed	5	8	9	951009	3	2	2	1	0	382	1	4	0	144	93	0	0	100
fixed	5	8	10	952234	1	4	4	1	0	650	1	4	0	160	94	0	0	100
fixed	5	8	11	953578	5	2	2	1	0	377	1	4	0	144	95	0	0	100
fixed	5	8	12	954471	4	3	3	1	0	299	1	4	0	152	96	0	0	100
fixed	5	9	1	955731	4	1	1	1	0	438	1	4	0	136	97	0	0	100
fixed	5	9	2	957203	1	2	2	1	0	279	1	4	0	144	98	0	0	100
fixed	5	9	3	958136	6	4	4	1	0	368	1	4	0	160	99	0	0	100
fixed	5	9	4	959110	2	1	1	1	0	1007	1	4	0	136	100	0	0	100
fixed	5	9	5	960724	5	3	3	1	0	882	1	4	0	152	101	0	0	100
fixed	5	9	6	962061	6	4	4	1	0	841	1	4	0	160	102	0	0	100
fixed	5	9	7	963266	3	1	1	1	0	958	1	4	0	136	103	0	0	100
fixed	5	9	8	964867	2	3	3	1	0	770	1	4	0	152	104	0	0	100
fixed	5	9	9	966330	3	2	2	1	0	317	1	4	0	144	105	0	0	100
fixed	5	9	10	967438	1	4	4	1	0	326	1	4	0	160	106	0	0	100
fixed	5	9	11	968495	5	2	2	1	0	769	1	4	0	144	107	0	0	100
fixed	5	9	12	969795	4	3	3	1	0	290	1	4	0	152	108	0	0	100
fixed	5	10	1	971102	4	1	1	1	0	435	1	4	0	136	109	0	0	100
fixed	5	10	2	972349	1	2	2	1	0	678	1	4	0	144	110	0	0	100
fixed	5	10	3	973766	6	4	4	1	0	658	1	4	0	160	111	0	0	100
fixed	5	10	4	975087	2	1	1	1	0	762	1	4	0	136	112	0	0	100
fixed	5	10	5	976256	5	3	3	1	0	1121	1	4	0	152	113	0	0	100
fixed	5	10	6	978159	6	4	4	1	0	760	1	4	0	160	114	0	0	100
fixed	5	10	7	979321	3	1	1	1	0	1038	1	4	0	136	115	0	0	100
fixed	5	10	8	981071	2	3	3	1	0	1597	1	4	0	152	116	0	0	100
fixed	5	10	9	983262	3	2	2	1	0	360	1	4	0	144	117	0	0	100
fixed	5	10	10	984088	1	4	4	1	0	389	1	4	0	160	118	0	0	100
fixed	5	10	11	985082	5	2	2	1	0	531	1	4	0	144	119	0	0	100
fixed	5	10	12	986214	4	3	3	1	0	291	1	4	0	152	120	0	0	100
random	6	1	1	1069341	6	1	1	1	0	1354	1	4	0	168	1	0	0	100
random	6	1	2	1071680	4	4	4	1	0	574	1	4	0	192	2	0	0	100
random	6	1	3	1073221	2	2	2	1	0	965	1	4	0	176	3	0	0	100
random	6	1	4	1075092	3	3	3	1	0	582	1	4	0	184	4	0	0	100
random	6	1	5	1076517	5	2	2	1	0	842	1	4	0	176	5	0	0	100
random	6	1	6	1077741	1	4	4	1	0	702	1	4	0	192	6	0	0	100
random	6	1	7	1079429	6	1	1	1	0	663	1	4	0	168	7	0	0	100
random	6	1	8	1081071	2	3	3	1	0	889	1	4	0	184	8	0	0	100
random	6	1	9	1082965	4	2	2	1	0	729	1	4	0	176	9	0	0	100
random	6	1	10	1084332	1	1	1	1	0	1039	1	4	0	168	10	0	0	100
random	6	1	11	1086036	5	4	4	1	0	455	1	4	0	192	11	0	0	100
random	6	1	12	1087045	3	3	3	1	0	876	1	4	0	184	12	0	0	100
random	6	1	13	1088624	5	2	2	1	0	881	1	4	0	176	13	0	0	100
random	6	1	14	1089946	1	4	4	1	0	1017	1	4	0	192	14	0	0	100
random	6	1	15	1091552	3	1	1	1	0	645	1	4	0	168	15	0	0	100
random	6	1	16	1092851	4	3	3	1	0	750	1	4	0	184	16	0	0	100
random	6	1	17	1094508	6	4	4	1	0	1160	1	4	0	192	17	0	0	100
random	6	1	18	1096004	2	1	1	1	0	889	1	4	0	168	18	0	0	100
random	6	1	19	1097275	5	3	3	1	0	795	1	4	0	184	19	0	0	100
random	6	1	20	1098484	2	2	2	1	0	759	1	4	0	176	20	0	0	100
random	6	1	21	1100112	3	3	3	1	0	595	1	4	0	184	21	0	0	100
random	6	1	22	1101611	6	1	1	2	0	1251	2	4	0	168	22	0	0	100
random	6	1	23	1103543	4	2	2	1	0	865	1	4	0	176	23	0	0	100
random	6	1	24	1105023	1	4	4	1	0	659	1	4	0	192	24	0	0	100
random	6	1	25	1106501	4	3	3	2	0	1364	2	4	0	184	25	0	0	100
random	6	1	26	1108336	2	1	1	1	0	774	1	4	0	168	26	0	0	100
random	6	1	27	1109684	5	2	2	1	0	997	1	4	0	176	27	0	0	100
random	6	1	28	1111079	6	4	4	1	0	602	1	4	0	192	28	0	0	100
random	6	1	29	1112313	1	3	3	1	0	869	1	4	0	184	29	0	0	100
random	6	1	30	1113639	5	2	2	2	0	1854	2	4	0	176	30	0	0	100
random	6	1	31	1116487	2	1	1	1	0	885	1	4	0	168	31	0	0	100
random	6	1	32	1117882	3	3	3	1	0	874	1	4	0	184	32	0	0	100
random	6	1	33	1119345	6	4	4	1	0	828	1	4	0	192	33	0	0	100
random	6	1	34	1120954	4	2	2	1	0	960	1	4	0	176	34	0	0	100
random	6	1	35	1122826	3	4	4	1	0	744	1	4	0	192	35	0	0	100
random	6	1	36	1124548	1	1	1	1	0	735	1	4	0	168	36	0	0	100
random	6	1	37	1126266	3	4	4	1	0	711	1	4	0	192	37	0	0	100
random	6	1	38	1127676	5	3	3	1	0	1003	1	4	0	184	38	0	0	100
random	6	1	39	1129545	6	1	1	1	0	764	1	4	0	168	39	0	0	100
random	6	1	40	1131003	1	2	2	1	0	1398	1	4	0	176	40	0	0	100
random	6	1	41	1133190	2	3	3	1	0	746	1	4	0	184	41	0	0	100
random	6	1	42	1134371	4	4	4	1	0	775	1	4	0	192	42	0	0	100
random	6	1	43	1135672	1	2	2	1	0	1432	1	4	0	176	43	0	0	100
random	6	1	44	1137669	6	3	3	1	0	652	1	4	0	184	44	0	0	100
random	6	1	45	1138801	3	1	1	2	0	1028	2	4	0	168	45	0	0	100
random	6	1	46	1140440	4	4	4	1	0	670	1	4	0	192	46	0	0	100
random	6	1	47	1141514	2	2	2	1	0	1345	1	4	0	176	47	0	0	100
random	6	1	48	1143241	5	1	1	1	0	896	1	4	0	168	48	0	0	100
random	6	1	49	1144778	2	3	3	1	0	1470	1	4	0	184	49	0	0	100
random	6	1	50	1146749	3	1	1	1	0	1019	1	4	0	168	50	0	0	100
random	6	1	51	1148719	1	4	4	1	0	703	1	4	0	192	51	0	0	100
random	6	1	52	1150112	5	3	3	1	0	909	1	4	0	184	52	0	0	100
random	6	1	53	1151841	3	2	2	1	0	812	1	4	0	176	53	0	0	100
random	6	1	54	1153055	6	4	4	1	0	1216	1	4	0	192	54	0	0	100
random	6	1	55	1155266	4	2	2	1	0	803	1	4	0	176	55	0	0	100
random	6	1	56	1156650	1	1	1	1	0	712	1	4	0	168	56	0	0	100
random	6	1	57	1157651	5	4	4	1	0	726	1	4	0	192	57	0	0	100
random	6	1	58	1159400	2	1	1	1	0	739	1	4	0	168	58	0	0	100
random	6	1	59	1160513	6	2	2	1	0	869	1	4	0	176	59	0	0	100
random	6	1	60	1161857	4	3	3	1	0	715	1	4	0	184	60	0	0	100
random	6	1	61	1163257	1	2	2	1	0	888	1	4	0	176	61	0	0	100
random	6	1	62	1165101	6	4	4	1	0	834	1	4	0	192	62	0	0	100
random	6	1	63	1166566	4	1	1	1	0	524	1	4	0	168	63	0	0	100
random	6	1	64	1167600	2	2	2	2	0	1264	2	4	0	176	64	0	0	100
random	6	1	65	1169632	4	3	3	1	0	1066	1	4	0	184	65	0	0	100
random	6	1	66	1171234	3	1	1	1	0	662	1	4	0	168	66	0	0	100
random	6	1	67	1172543	1	3	3	1	0	927	1	4	0	184	67	0	0	100
random	6	1	68	1174058	5	4	4	1	0	671	1	4	0	192	68	0	0	100
random	6	1	69	1175564	2	2	2	1	0	727	1	4	0	176	69	0	0	100
random	6	1	70	1176667	3	1	1	2	0	1040	2	4	0	168	70	0	0	100
random	6	1	71	1178321	5	4	4	1	0	706	1	4	0	192	71	0	0	100
random	6	1	72	1179877	6	3	3	1	0	1024	1	4	0	184	72	0	0	100
random	6	1	73	1181502	2	1	1	1	0	1011	1	4	0	168	73	0	0	100
random	6	1	74	1183424	5	3	3	1	0	738	1	4	0	184	74	0	0	100
random	6	1	75	1184492	1	4	4	1	0	868	1	4	0	192	75	0	0	100
random	6	1	76	1186319	6	2	2	1	0	855	1	4	0	176	76	0	0	100
random	6	1	77	1187624	2	1	1	1	0	1808	1	4	0	168	77	0	0	100
random	6	1	78	1190088	4	4	4	1	0	679	1	4	0	192	78	0	0	100
random	6	1	79	1191127	3	2	2	1	0	787	1	4	0	176	79	0	0	100
random	6	1	80	1192686	4	3	3	1	0	834	1	4	0	184	80	0	0	100
random	6	1	81	1193913	1	4	4	1	0	957	1	4	0	192	81	0	0	100
random	6	1	82	1195253	5	1	1	1	0	813	1	4	0	168	82	0	0	100
random	6	1	83	1196517	3	2	2	1	0	776	1	4	0	176	83	0	0	100
random	6	1	84	1198113	6	3	3	1	0	860	1	4	0	184	84	0	0	100
random	6	1	85	1199629	3	2	2	1	0	763	1	4	0	176	85	0	0	100
random	6	1	86	1201132	1	3	3	1	0	819	1	4	0	184	86	0	0	100
random	6	1	87	1202839	4	4	4	1	0	1163	1	4	0	192	87	0	0	100
random	6	1	88	1204735	2	1	1	1	0	819	1	4	0	168	88	0	0	100
random	6	1	89	1206428	6	4	4	1	0	923	1	4	0	192	89	0	0	100
random	6	1	90	1207799	3	3	3	1	0	1129	1	4	0	184	90	0	0	100
random	6	1	91	1209359	5	4	4	2	0	1375	2	4	0	192	91	0	0	100
random	6	1	92	1211201	1	2	2	1	0	753	1	4	0	176	92	0	0	100
random	6	1	93	1212806	5	1	1	1	0	814	1	4	0	168	93	0	0	100
random	6	1	94	1214263	4	3	3	1	0	735	1	4	0	184	94	0	0	100
random	6	1	95	1215615	6	1	1	1	0	767	1	4	0	168	95	0	0	100
random	6	1	96	1216803	2	2	2	1	0	1188	1	4	0	176	96	0	0	100
random	6	1	97	1218693	4	3	3	1	0	788	1	4	0	184	97	0	0	100
random	6	1	98	1220466	3	2	0	1	2	0	3	4	0	176	97	0	1	99
random	6	1	99	1223495	6	3	3	1	0	873	1	4	0	184	98	0	1	99
random	6	1	100	1225245	1	4	4	1	0	830	1	4	0	192	99	0	1	99
random	6	1	101	1226700	4	1	1	1	0	617	1	4	0	168	100	0	1	99
random	6	1	102	1227783	5	2	2	1	0	859	1	4	0	176	101	0	1	99
random	6	1	103	1229656	2	4	4	1	0	660	1	4	0	192	102	0	1	99
random	6	1	104	1231068	3	1	1	1	0	752	1	4	0	168	103	0	1	99
random	6	1	105	1232499	1	3	3	1	0	683	1	4	0	184	104	0	1	99
random	6	1	106	1233723	2	2	2	1	0	808	1	4	0	176	105	0	1	99
random	6	1	107	1235373	5	4	4	1	0	570	1	4	0	192	106	0	1	99
random	6	1	108	1236462	6	1	1	1	0	748	1	4	0	168	107	0	1	99
random	6	1	109	1238458	5	4	4	1	0	879	1	4	0	192	108	0	1	99
random	6	1	110	1239695	6	3	3	1	0	938	1	4	0	184	109	0	1	99
random	6	1	111	1241145	2	2	2	1	0	821	1	4	0	176	110	0	1	99
random	6	1	112	1242832	3	1	1	1	0	670	1	4	0	168	111	0	1	99
random	6	1	113	1244266	1	2	2	1	0	1449	1	4	0	176	112	0	1	99
random	6	1	114	1246659	2	3	3	1	0	675	1	4	0	184	113	0	1	99
random	6	1	115	1247952	3	1	1	1	0	685	1	4	0	168	114	0	1	99
random	6	1	116	1249419	4	4	4	1	0	382	1	4	0	192	115	0	1	99
random	6	1	117	1250359	6	1	1	1	0	951	1	4	0	168	116	0	1	99
random	6	1	118	1252265	5	3	3	1	0	790	1	4	0	184	117	0	1	99
random	6	1	119	1253814	1	4	4	1	0	892	1	4	0	192	118	0	1	99
random	6	1	120	1255365	4	2	2	1	0	1074	1	4	0	176	119	0	1	99
fixed	7	1	1	1257753	4	1	1	1	0	941	1	4	0	200	1	0	0	100
fixed	7	1	2	1259717	1	2	2	1	0	1450	1	4	0	208	2	0	0	100
fixed	7	1	3	1261863	6	4	4	1	0	495	1	4	0	224	3	0	0	100
fixed	7	1	4	1262955	2	1	1	1	0	689	1	4	0	200	4	0	0	100
fixed	7	1	5	1264356	5	3	3	1	0	950	1	4	0	216	5	0	0	100
fixed	7	1	6	1266001	6	4	4	1	0	768	1	4	0	224	6	0	0	100
fixed	7	1	7	1267146	3	1	1	1	0	880	1	4	0	200	7	0	0	100
fixed	7	1	8	1268376	2	3	3	1	0	836	1	4	0	216	8	0	0	100
fixed	7	1	9	1269763	3	2	2	1	0	377	1	4	0	208	9	0	0	100
fixed	7	1	10	1270543	1	4	4	1	0	688	1	4	0	224	10	0	0	100
fixed	7	1	11	1272059	5	2	2	1	0	887	1	4	0	208	11	0	0	100
fixed	7	1	12	1273817	4	3	3	1	0	397	1	4	0	216	12	0	0	100
fixed	7	2	1	1274864	4	1	1	1	0	1265	1	4	0	200	1	0	0	8
fixed	7	2	2	1276461	1	2	2	1	0	1565	1	4	0	208	2	0	0	14
fixed	7	2	3	1278858	6	4	4	1	0	567	1	4	0	224	3	0	0	20
fixed	7	2	4	1280287	2	1	1	1	0	459	1	4	0	200	4	0	0	25
fixed	7	2	5	1281648	5	3	3	1	0	713	1	4	0	216	5	0	0	29
fixed	7	2	6	1283301	6	4	4	1	0	691	1	4	0	224	6	0	0	33
fixed	7	2	7	1284773	3	1	1	1	0	797	1	4	0	200	7	0	0	37
fixed	7	2	8	1285858	2	3	3	1	0	823	1	4	0	216	8	0	0	40
fixed	7	2	9	1286998	3	2	2	1	0	727	1	4	0	208	9	0	0	43
fixed	7	2	10	1288139	1	4	4	1	0	615	1	4	0	224	10	0	0	45
fixed	7	2	11	1289205	5	2	2	1	0	793	1	4	0	208	11	0	0	48
fixed	7	2	12	1290555	4	3	3	1	0	704	1	4	0	216	12	0	0	50
fixed	7	3	1	1292173	4	1	1	1	0	659	1	4	0	200	1	0	0	4
fixed	7	3	2	1293174	1	2	2	1	0	1001	1	4	0	208	2	0	0	8
fixed	7	3	3	1295182	6	4	4	1	0	756	1	4	0	224	3	0	0	11
fixed	7	3	4	1296824	2	1	1	1	0	703	1	4	0	200	4	0	0	14
fixed	7	3	5	1298529	5	3	3	1	0	855	1	4	0	216	5	0	0	17
fixed	7	3	6	1300377	6	4	4	1	0	776	1	4	0	224	6	0	0	20
fixed	7	3	7	1302123	3	1	1	1	0	782	1	4	0	200	7	0	0	23
fixed	7	3	8	1303849	2	3	3	1	0	478	1	4	0	216	8	0	0	25
fixed	7	3	9	1305114	3	2	2	1	0	480	1	4	0	208	9	0	0	27
fixed	7	3	10	1306566	1	4	4	1	0	802	1	4	0	224	10	0	0	29
fixed	7	3	11	1308199	5	2	2	1	0	789	1	4	0	208	11	0	0	31
fixed	7	3	12	1309566	4	3	3	1	0	371	1	4	0	216	12	0	0	33
fixed	7	4	1	1310785	4	1	1	1	0	975	1	4	0	200	1	0	0	3
fixed	7	4	2	1312448	1	2	2	1	0	625	1	4	0	208	2	0	0	5
fixed	7	4	3	1313684	6	4	4	1	0	549	1	4	0	224	3	0	0	8
fixed	7	4	4	1314824	2	1	1	1	0	821	1	4	0	200	4	0	0	10
fixed	7	4	5	1316525	5	3	3	1	0	732	1	4	0	216	5	0	0	12
fixed	7	4	6	1317681	6	4	4	1	0	724	1	4	0	224	6	0	0	14
fixed	7	4	7	1318937	3	1	1	1	0	718	1	4	0	200	7	0	0	16
fixed	7	4	8	1320098	2	3	3	1	0	517	1	4	0	216	8	0	0	18
fixed	7	4	9	1321302	3	2	2	1	0	338	1	4	0	208	9	0	0	20
fixed	7	4	10	1322381	1	4	4	1	0	580	1	4	0	224	10	0	0	22
fixed	7	4	11	1323904	5	2	2	1	0	996	1	4	0	208	11	0	0	23
fixed	7	4	12	1325247	4	3	3	1	0	355	1	4	0	216	12	0	0	25
fixed	7	5	1	1326775	4	1	1	1	0	562	1	4	0	200	1	0	0	2
fixed	7	5	2	1328235	1	2	2	1	0	676	1	4	0	208	2	0	0	4
fixed	7	5	3	1329852	6	4	4	1	0	736	1	4	0	224	3	0	0	6
fixed	7	5	4	1331159	2	1	1	1	0	1064	1	4	0	200	4	0	0	8
fixed	7	5	5	1332558	5	3	3	1	0	741	1	4	0	216	5	0	0	9
fixed	7	5	6	1333883	6	4	4	1	0	381	1	4	0	224	6	0	0	11
fixed	7	5	7	1334674	3	1	1	1	0	844	1	4	0	200	7	0	0	13
fixed	7	5	8	1336415	2	3	3	1	0	938	1	4	0	216	8	0	0	14
fixed	7	5	9	1337828	3	2	2	1	0	566	1	4	0	208	9	0	0	16
fixed	7	5	10	1338682	1	4	4	1	0	546	1	4	0	224	10	0	0	17
fixed	7	5	11	1339851	5	2	2	1	0	881	1	4	0	208	11	0	0	19
fixed	7	5	12	1341624	4	3	3	1	0	190	1	4	0	216	12	0	0	20
fixed	7	6	1	1342497	4	1	1	2	0	1280	2	4	0	200	1	0	0	2
fixed	7	6	2	1344476	1	2	2	1	0	1036	1	4	0	208	2	0	0	3
fixed	7	6	3	1346345	6	4	4	1	0	821	1	4	0	224	3	0	0	5
fixed	7	6	4	1347472	2	1	1	1	0	2430	1	4	0	200	4	0	0	6
fixed	7	6	5	1350258	5	3	3	1	0	752	1	4	0	216	5	0	0	8
fixed	7	6	6	1351938	6	4	4	1	0	800	1	4	0	224	6	0	0	9
fixed	7	6	7	1353752	3	1	1	1	0	692	1	4	0	200	7	0	0	10
fixed	7	6	8	1355343	2	3	3	1	0	768	1	4	0	216	8	0	0	12
fixed	7	6	9	1356889	3	2	2	1	0	759	1	4	0	208	9	0	0	13
fixed	7	6	10	1358115	1	4	4	1	0	922	1	4	0	224	10	0	0	14
fixed	7	6	11	1359369	5	2	2	1	0	709	1	4	0	208	11	0	0	15
fixed	7	6	12	1360448	4	3	3	1	0	744	1	4	0	216	12	0	0	17
fixed	7	7	1	1362161	4	1	1	1	0	495	1	4	0	200	1	0	0	1
fixed	7	7	2	1363653	1	2	2	1	0	528	1	4	0	208	2	0	0	3
fixed	7	7	3	1365185	6	4	4	1	0	623	1	4	0	224	3	0	0	4
fixed	7	7	4	1366327	2	1	1	1	0	751	1	4	0	200	4	0	0	5
fixed	7	7	5	1367823	5	3	3	1	0	943	1	4	0	216	5	0	0	6
fixed	7	7	6	1369667	6	4	4	1	0	561	1	4	0	224	6	0	0	8
fixed	7	7	7	1370770	3	1	1	1	0	627	1	4	0	200	7	0	0	9
fixed	7	7	8	1371817	2	3	3	1	0	758	1	4	0	216	8	0	0	10
fixed	7	7	9	1373007	3	2	2	1	0	468	1	4	0	208	9	0	0	11
fixed	7	7	10	1374391	1	4	4	1	0	353	1	4	0	224	10	0	0	12
fixed	7	7	11	1375183	5	2	2	1	0	664	1	4	0	208	11	0	0	13
fixed	7	7	12	1376441	4	3	3	1	0	307	1	4	0	216	12	0	0	14
fixed	7	8	1	1377599	4	1	1	1	0	569	1	4	0	200	1	0	0	1
fixed	7	8	2	1378632	1	2	2	1	0	510	1	4	0	208	2	0	0	2
fixed	7	8	3	1379740	6	4	4	1	0	351	1	4	0	224	3	0	0	3
fixed	7	8	4	1380440	2	1	1	1	0	761	1	4	0	200	4	0	0	5
fixed	7	8	5	1382018	5	3	3	1	0	1022	1	4	0	216	5	0	0	6
fixed	7	8	6	1383453	6	4	4	1	0	858	1	4	0	224	6	0	0	7
fixed	7	8	7	1384639	3	1	1	1	0	815	1	4	0	200	7	0	0	8
fixed	7	8	8	1386109	2	3	3	1	0	657	1	4	0	216	8	0	0	9
fixed	7	8	9	1387657	3	2	2	1	0	343	1	4	0	208	9	0	0	10
fixed	7	8	10	1388475	1	4	4	1	0	693	1	4	0	224	10	0	0	11
fixed	7	8	11	1389596	5	2	2	1	0	437	1	4	0	208	11	0	0	12
fixed	7	8	12	1391033	4	3	3	1	0	288	1	4	0	216	12	0	0	13
fixed	7	9	1	1392369	4	1	1	1	0	872	1	4	0	200	1	0	0	1
fixed	7	9	2	1394210	1	2	2	1	0	1146	1	4	0	208	2	0	0	2
fixed	7	9	3	1395665	6	4	4	1	0	604	1	4	0	224	3	0	0	3
fixed	7	9	4	1397244	2	1	1	1	0	714	1	4	0	200	4	0	0	4
fixed	7	9	5	1398429	5	3	3	2	0	1279	2	4	0	216	5	0	0	5
fixed	7	9	6	1400420	6	4	4	2	0	1531	2	4	0	224	6	0	0	6
fixed	7	9	7	1402871	3	1	1	1	0	1123	1	4	0	200	7	0	0	7
fixed	7	9	8	1404965	2	3	3	1	0	714	1	4	0	216	8	0	0	8
fixed	7	9	9	1406292	3	2	2	1	0	770	1	4	0	208	9	0	0	9
fixed	7	9	10	1407755	1	4	4	1	0	780	1	4	0	224	10	0	0	9
fixed	7	9	11	1409378	5	2	2	1	0	895	1	4	0	208	11	0	0	10
fixed	7	9	12	1410802	4	3	3	1	0	819	1	4	0	216	12	0	0	11
fixed	7	10	1	1412769	4	1	1	1	0	544	1	4	0	200	1	0	0	1
fixed	7	10	2	1413860	1	2	0	1	2	0	3	4	0	208	1	0	1	1
fixed	7	10	3	1416816	6	4	4	1	0	1116	1	4	0	224	2	0	1	2
fixed	7	10	4	1418475	2	1	1	1	0	886	1	4	0	200	3	0	1	3
fixed	7	10	5	1420233	5	3	3	1	0	836	1	4	0	216	4	0	1	4
fixed	7	10	6	1422058	6	4	4	1	0	830	1	4	0	224	5	0	1	4
fixed	7	10	7	1423269	3	1	1	1	0	787	1	4	0	200	6	0	1	5
fixed	7	10	8	1424351	2	3	3	1	0	693	1	4	0	216	7	0	1	6
fixed	7	10	9	1425502	3	2	2	1	0	332	1	4	0	208	8	0	1	7
fixed	7	10	10	1426321	1	4	4	1	0	594	1	4	0	224	9	0	1	8
fixed	7	10	11	1427793	5	2	2	1	0	307	1	4	0	208	10	0	1	8
fixed	7	10	12	1429134	4	3	3	1	0	275	1	4	0	216	11	0	1	9
