type	block	sequ.	trial	time	Pos.	Color	Button	NumRsp	Resp_1	RT_1	R_Code	Resp_2	RT_2	Trigg.	n_hit	n_inc	n_miss	score_%

random	1	1	1	16067	6	1	1	1	0	1323	1	4	0	8	1	0	0	100
random	1	1	2	17814	4	4	4	1	0	1546	1	4	0	32	2	0	0	100
random	1	1	3	20225	2	2	2	1	0	1908	1	4	0	16	3	0	0	100
random	1	1	4	22688	3	3	3	1	0	1299	1	4	0	24	4	0	0	100
random	1	1	5	24856	5	2	2	1	0	2335	1	4	0	16	5	0	0	100
random	1	1	6	27835	1	4	4	1	0	1385	1	4	0	32	6	0	0	100
random	1	1	7	29770	6	1	1	1	0	471	1	4	0	8	7	0	0	100
random	1	1	8	31028	2	3	3	1	0	1538	1	4	0	24	8	0	0	100
random	1	1	9	33279	4	2	2	1	0	978	1	4	0	16	9	0	0	100
random	1	1	10	34722	1	1	1	1	0	774	1	4	0	8	10	0	0	100
random	1	1	11	35922	5	4	4	1	0	763	1	4	0	32	11	0	0	100
random	1	1	12	37098	3	3	3	1	0	1449	1	4	0	24	12	0	0	100
random	1	1	13	39559	5	2	0	1	2	0	3	4	0	16	12	0	1	92
random	1	1	14	43076	1	4	4	1	0	884	1	4	0	32	13	0	1	93
random	1	1	15	44949	3	1	1	1	0	996	1	4	0	8	14	0	1	93
random	1	1	16	46784	4	3	3	1	0	1367	1	4	0	24	15	0	1	94
random	1	1	17	49075	6	4	4	1	0	918	1	4	0	32	16	0	1	94
random	1	1	18	50517	2	1	1	1	0	649	1	4	0	8	17	0	1	94
random	1	1	19	51600	5	3	3	1	0	1211	1	4	0	24	18	0	1	95
random	1	1	20	53442	2	2	2	1	0	1612	1	4	0	16	19	0	1	95
random	1	1	21	55391	3	3	3	1	0	1402	1	4	0	24	20	0	1	95
random	1	1	22	57729	6	1	1	1	0	831	1	4	0	8	21	0	1	95
random	1	1	23	59515	4	2	2	1	0	1571	1	4	0	16	22	0	1	96
random	1	1	24	61747	1	4	4	1	0	797	1	4	0	32	23	0	1	96
random	1	1	25	63351	4	3	3	1	0	1689	1	4	0	24	24	0	1	96
random	1	1	26	65990	2	1	1	1	0	897	1	4	0	8	25	0	1	96
random	1	1	27	67772	5	2	2	1	0	1438	1	4	0	16	26	0	1	96
random	1	1	28	69588	6	4	4	2	0	1569	2	4	0	32	27	0	1	96
random	1	1	29	71671	1	3	3	1	0	1752	1	4	0	24	28	0	1	97
random	1	1	30	73808	5	2	2	1	0	1438	1	4	0	16	29	0	1	97
random	1	1	31	75738	2	1	1	1	0	820	1	4	0	8	30	0	1	97
random	1	1	32	77517	3	3	3	1	0	1369	1	4	0	24	31	0	1	97
random	1	1	33	79889	6	4	4	1	0	1028	1	4	0	32	32	0	1	97
random	1	1	34	81299	4	2	2	1	0	1585	1	4	0	16	33	0	1	97
random	1	1	35	83667	3	4	4	1	0	1044	1	4	0	32	34	0	1	97
random	1	1	36	85332	1	1	1	1	0	470	1	4	0	8	35	0	1	97
random	1	1	37	86910	3	4	4	1	0	787	1	4	0	32	36	0	1	97
random	1	1	38	88658	5	3	3	1	0	1577	1	4	0	24	37	0	1	97
random	1	1	39	90876	6	1	1	1	0	1091	1	4	0	8	38	0	1	97
random	1	1	40	92415	1	2	2	1	0	2010	1	4	0	16	39	0	1	98
random	1	1	41	94839	2	3	3	1	0	1027	1	4	0	24	40	0	1	98
random	1	1	42	96464	4	4	4	1	0	550	1	4	0	32	41	0	1	98
random	1	1	43	97909	1	2	2	1	0	1473	1	4	0	16	42	0	1	98
random	1	1	44	99757	6	3	3	1	0	1651	1	4	0	24	43	0	1	98
random	1	1	45	102239	3	1	1	1	0	858	1	4	0	8	44	0	1	98
random	1	1	46	103650	4	4	4	1	0	614	1	4	0	32	45	0	1	98
random	1	1	47	104971	2	2	2	1	0	1102	1	4	0	16	46	0	1	98
random	1	1	48	106933	5	1	1	1	0	715	1	4	0	8	47	0	1	98
random	1	1	49	108897	2	3	3	1	0	1584	1	4	0	24	48	0	1	98
random	1	1	50	111349	3	1	1	1	0	976	1	4	0	8	49	0	1	98
random	1	1	51	113228	1	4	4	1	0	752	1	4	0	32	50	0	1	98
random	1	1	52	114524	5	3	3	1	0	1474	1	4	0	24	51	0	1	98
random	1	1	53	116445	3	2	2	1	0	1240	1	4	0	16	52	0	1	98
random	1	1	54	117987	6	4	4	1	0	879	1	4	0	32	53	0	1	98
random	1	1	55	119523	4	2	2	1	0	1157	1	4	0	16	54	0	1	98
random	1	1	56	121569	1	1	1	1	0	727	1	4	0	8	55	0	1	98
random	1	1	57	122732	5	4	4	1	0	726	1	4	0	32	56	0	1	98
random	1	1	58	123923	2	1	1	1	0	1219	1	4	0	8	57	0	1	98
random	1	1	59	126102	6	2	2	1	0	1407	1	4	0	16	58	0	1	98
random	1	1	60	128313	4	3	3	1	0	1649	1	4	0	24	59	0	1	98
random	1	1	61	130700	1	2	2	1	0	1260	1	4	0	16	60	0	1	98
random	1	1	62	132775	6	4	4	1	0	796	1	4	0	32	61	0	1	98
random	1	1	63	134391	4	1	1	1	0	680	1	4	0	8	62	0	1	98
random	1	1	64	135959	2	2	2	1	0	1358	1	4	0	16	63	0	1	98
random	1	1	65	137883	4	3	3	1	0	1556	1	4	0	24	64	0	1	98
random	1	1	66	139951	3	1	1	1	0	877	1	4	0	8	65	0	1	98
random	1	1	67	141404	1	3	3	1	0	1967	1	4	0	24	66	0	1	99
random	1	1	68	143683	5	4	4	1	0	1030	1	4	0	32	67	0	1	99
random	1	1	69	145155	2	2	2	1	0	1144	1	4	0	16	68	0	1	99
random	1	1	70	146771	3	1	1	1	0	891	1	4	0	8	69	0	1	99
random	1	1	71	148329	5	4	4	1	0	745	1	4	0	32	70	0	1	99
random	1	1	72	149461	6	3	3	1	0	1505	1	4	0	24	71	0	1	99
random	1	1	73	151668	2	1	1	1	0	1084	1	4	0	8	72	0	1	99
random	1	1	74	153596	5	3	3	1	0	1435	1	4	0	24	73	0	1	99
random	1	1	75	155376	1	4	4	1	0	975	1	4	0	32	74	0	1	99
random	1	1	76	156905	6	2	2	1	0	1134	1	4	0	16	75	0	1	99
random	1	1	77	158648	2	1	1	1	0	733	1	4	0	8	76	0	1	99
random	1	1	78	159937	4	4	4	1	0	598	1	4	0	32	77	0	1	99
random	1	1	79	160938	3	2	2	1	0	939	1	4	0	16	78	0	1	99
random	1	1	80	162591	4	3	3	1	0	1430	1	4	0	24	79	0	1	99
random	1	1	81	164753	1	4	4	1	0	698	1	4	0	32	80	0	1	99
random	1	1	82	166405	5	1	1	1	0	764	1	4	0	8	81	0	1	99
random	1	1	83	168151	3	2	2	1	0	1434	1	4	0	16	82	0	1	99
random	1	1	84	169989	6	3	3	1	0	1116	1	4	0	24	83	0	1	99
random	1	1	85	172052	3	2	2	1	0	1285	1	4	0	16	84	0	1	99
random	1	1	86	173776	1	3	3	1	0	1284	1	4	0	24	85	0	1	99
random	1	1	87	175464	4	4	4	1	0	836	1	4	0	32	86	0	1	99
random	1	1	88	176639	2	1	1	1	0	547	1	4	0	8	87	0	1	99
random	1	1	89	177529	6	4	4	1	0	972	1	4	0	32	88	0	1	99
random	1	1	90	178962	3	3	3	1	0	1296	1	4	0	24	89	0	1	99
random	1	1	91	180982	5	4	4	1	0	883	1	4	0	32	90	0	1	99
random	1	1	92	182399	1	2	2	1	0	959	1	4	0	16	91	0	1	99
random	1	1	93	184355	5	1	1	1	0	836	1	4	0	8	92	0	1	99
random	1	1	94	185590	4	3	3	1	0	1335	1	4	0	24	93	0	1	99
random	1	1	95	187492	6	1	1	1	0	1223	1	4	0	8	94	0	1	99
random	1	1	96	189222	2	2	2	1	0	1286	1	4	0	16	95	0	1	99
random	1	1	97	191566	4	3	3	1	0	1490	1	4	0	24	96	0	1	99
random	1	1	98	194023	3	2	2	1	0	1050	1	4	0	16	97	0	1	99
random	1	1	99	195502	6	3	3	1	0	1292	1	4	0	24	98	0	1	99
random	1	1	100	197307	1	4	4	1	0	815	1	4	0	32	99	0	1	99
random	1	1	101	199096	4	1	1	1	0	420	1	4	0	8	100	0	1	99
random	1	1	102	200164	5	2	2	1	0	1174	1	4	0	16	101	0	1	99
random	1	1	103	202264	2	4	4	1	0	669	1	4	0	32	102	0	1	99
random	1	1	104	203307	3	1	1	1	0	953	1	4	0	8	103	0	1	99
random	1	1	105	205206	1	3	3	1	0	1841	1	4	0	24	104	0	1	99
random	1	1	106	207515	2	2	2	1	0	887	1	4	0	16	105	0	1	99
random	1	1	107	208892	5	4	4	1	0	860	1	4	0	32	106	0	1	99
random	1	1	108	210443	6	1	1	1	0	738	1	4	0	8	107	0	1	99
random	1	1	109	211783	5	4	4	1	0	762	1	4	0	32	108	0	1	99
random	1	1	110	212918	6	3	3	1	0	1442	1	4	0	24	109	0	1	99
random	1	1	111	215205	2	2	2	1	0	721	1	4	0	16	110	0	1	99
random	1	1	112	216405	3	1	1	1	0	902	1	4	0	8	111	0	1	99
random	1	1	113	217985	1	2	2	1	0	1435	1	4	0	16	112	0	1	99
random	1	1	114	220016	2	3	3	1	0	998	1	4	0	24	113	0	1	99
random	1	1	115	221838	3	1	1	1	0	896	1	4	0	8	114	0	1	99
random	1	1	116	223174	4	4	4	1	0	648	1	4	0	32	115	0	1	99
random	1	1	117	224782	6	1	1	1	0	859	1	4	0	8	116	0	1	99
random	1	1	118	226628	5	3	3	2	0	1221	2	4	0	24	117	0	1	99
random	1	1	119	228879	1	4	4	1	0	718	1	4	0	32	118	0	1	99
random	1	1	120	230009	4	2	2	1	0	1118	1	4	0	16	119	0	1	99
fixed	2	1	1	232464	4	1	1	1	0	902	1	4	0	40	1	0	0	100
fixed	2	1	2	234334	1	2	2	1	0	1559	1	4	0	48	2	0	0	100
fixed	2	1	3	236621	6	4	4	1	0	710	1	4	0	64	3	0	0	100
fixed	2	1	4	238270	2	1	1	1	0	936	1	4	0	40	4	0	0	100
fixed	2	1	5	240081	5	3	3	1	0	1580	1	4	0	56	5	0	0	100
fixed	2	1	6	242596	6	4	4	1	0	761	1	4	0	64	6	0	0	100
fixed	2	1	7	243935	3	1	1	1	0	888	1	4	0	40	7	0	0	100
fixed	2	1	8	245426	2	3	3	1	0	1833	1	4	0	56	8	0	0	100
fixed	2	1	9	247633	3	2	2	1	0	1100	1	4	0	48	9	0	0	100
fixed	2	1	10	249586	1	4	4	1	0	705	1	4	0	64	10	0	0	100
fixed	2	1	11	251099	5	2	2	1	0	1009	1	4	0	48	11	0	0	100
fixed	2	1	12	252978	4	3	3	1	0	1153	1	4	0	56	12	0	0	100
fixed	2	2	1	255005	4	1	1	1	0	723	1	4	0	40	13	0	0	100
fixed	2	2	2	256262	1	2	2	1	0	1414	1	4	0	48	14	0	0	100
fixed	2	2	3	258292	6	4	4	1	0	840	1	4	0	64	15	0	0	100
fixed	2	2	4	259768	2	1	1	1	0	921	1	4	0	40	16	0	0	100
fixed	2	2	5	261011	5	3	0	0	2	0	3	4	0	56	16	0	1	94
fixed	2	2	6	264531	6	4	4	1	0	872	1	4	0	64	17	0	1	94
fixed	2	2	7	266370	3	1	1	1	0	994	1	4	0	40	18	0	1	95
fixed	2	2	8	268152	2	3	3	2	0	1166	2	4	0	56	19	0	1	95
fixed	2	2	9	269716	3	2	2	1	0	1140	1	4	0	48	20	0	1	95
fixed	2	2	10	271726	1	4	4	1	0	663	1	4	0	64	21	0	1	95
fixed	2	2	11	272740	5	2	2	1	0	1020	1	4	0	48	22	0	1	96
fixed	2	2	12	274248	4	3	3	1	0	1381	1	4	0	56	23	0	1	96
fixed	2	3	1	276324	4	1	1	1	0	748	1	4	0	40	24	0	1	96
fixed	2	3	2	277868	1	2	2	1	0	1323	1	4	0	48	25	0	1	96
fixed	2	3	3	279705	6	4	4	1	0	733	1	4	0	64	26	0	1	96
fixed	2	3	4	280846	2	1	1	1	0	901	1	4	0	40	27	0	1	96
fixed	2	3	5	282282	5	3	3	1	0	992	1	4	0	56	28	0	1	97
fixed	2	3	6	283650	6	4	4	1	0	894	1	4	0	64	29	0	1	97
fixed	2	3	7	285367	3	1	1	1	0	517	1	4	0	40	30	0	1	97
fixed	2	3	8	286726	2	3	3	1	0	1380	1	4	0	56	31	0	1	97
fixed	2	3	9	288767	3	2	2	1	0	718	1	4	0	48	32	0	1	97
fixed	2	3	10	290238	1	4	4	1	0	695	1	4	0	64	33	0	1	97
fixed	2	3	11	291923	5	2	2	1	0	1040	1	4	0	48	34	0	1	97
fixed	2	3	12	293358	4	3	3	1	0	1467	1	4	0	56	35	0	1	97
fixed	2	4	1	296106	4	1	1	1	0	846	1	4	0	40	36	0	1	97
fixed	2	4	2	297724	1	2	2	1	0	1138	1	4	0	48	37	0	1	97
fixed	2	4	3	299670	6	4	4	1	0	728	1	4	0	64	38	0	1	97
fixed	2	4	4	301130	2	1	1	1	0	874	1	4	0	40	39	0	1	98
fixed	2	4	5	302656	5	3	3	1	0	1009	1	4	0	56	40	0	1	98
fixed	2	4	6	304673	6	4	4	1	0	772	1	4	0	64	41	0	1	98
fixed	2	4	7	306045	3	1	1	1	0	937	1	4	0	40	42	0	1	98
fixed	2	4	8	307364	2	3	3	1	0	1746	1	4	0	56	43	0	1	98
fixed	2	4	9	309785	3	2	2	1	0	835	1	4	0	48	44	0	1	98
fixed	2	4	10	311542	1	4	4	1	0	696	1	4	0	64	45	0	1	98
fixed	2	4	11	312637	5	2	2	1	0	1274	1	4	0	48	46	0	1	98
fixed	2	4	12	314738	4	3	3	1	0	1329	1	4	0	56	47	0	1	98
fixed	2	5	1	317225	4	1	1	1	0	944	1	4	0	40	48	0	1	98
fixed	2	5	2	319056	1	2	2	1	0	1003	1	4	0	48	49	0	1	98
fixed	2	5	3	320893	6	4	4	1	0	845	1	4	0	64	50	0	1	98
fixed	2	5	4	322492	2	1	1	1	0	913	1	4	0	40	51	0	1	98
fixed	2	5	5	323744	5	3	3	1	0	1620	1	4	0	56	52	0	1	98
fixed	2	5	6	326217	6	4	4	1	0	739	1	4	0	64	53	0	1	98
fixed	2	5	7	327278	3	1	1	1	0	1030	1	4	0	40	54	0	1	98
fixed	2	5	8	329271	2	3	3	1	0	1250	1	4	0	56	55	0	1	98
fixed	2	5	9	331165	3	2	2	1	0	738	1	4	0	48	56	0	1	98
fixed	2	5	10	332894	1	4	4	1	0	680	1	4	0	64	57	0	1	98
fixed	2	5	11	334374	5	2	2	1	0	1050	1	4	0	48	58	0	1	98
fixed	2	5	12	336247	4	3	3	1	0	1442	1	4	0	56	59	0	1	98
fixed	2	6	1	338443	4	1	1	1	0	805	1	4	0	40	60	0	1	98
fixed	2	6	2	340190	1	2	2	1	0	1299	1	4	0	48	61	0	1	98
fixed	2	6	3	342385	6	4	4	1	0	758	1	4	0	64	62	0	1	98
fixed	2	6	4	343592	2	1	1	1	0	715	1	4	0	40	63	0	1	98
fixed	2	6	5	345144	5	3	3	2	0	1161	2	4	0	56	64	0	1	98
fixed	2	6	6	346653	6	4	4	1	0	730	1	4	0	64	65	0	1	98
fixed	2	6	7	348136	3	1	1	1	0	963	1	4	0	40	66	0	1	99
fixed	2	6	8	349420	2	3	3	2	0	1660	2	4	0	56	67	0	1	99
fixed	2	6	9	351849	3	2	2	1	0	1037	1	4	0	48	68	0	1	99
fixed	2	6	10	353308	1	4	4	1	0	712	1	4	0	64	69	0	1	99
fixed	2	6	11	354885	5	2	2	1	0	957	1	4	0	48	70	0	1	99
fixed	2	6	12	356563	4	3	3	1	0	1814	1	4	0	56	71	0	1	99
fixed	2	7	1	359144	4	1	1	1	0	728	1	4	0	40	72	0	1	99
fixed	2	7	2	360872	1	2	2	1	0	1143	1	4	0	48	73	0	1	99
fixed	2	7	3	362698	6	4	4	1	0	690	1	4	0	64	74	0	1	99
fixed	2	7	4	364104	2	1	1	1	0	1110	1	4	0	40	75	0	1	99
fixed	2	7	5	365962	5	3	3	1	0	1032	1	4	0	56	76	0	1	99
fixed	2	7	6	367861	6	4	4	1	0	720	1	4	0	64	77	0	1	99
fixed	2	7	7	369588	3	1	1	1	0	766	1	4	0	40	78	0	1	99
fixed	2	7	8	371167	2	3	3	1	0	1331	1	4	0	56	79	0	1	99
fixed	2	7	9	373158	3	2	2	2	0	1647	2	4	0	48	80	0	1	99
fixed	2	7	10	375607	1	4	4	1	0	751	1	4	0	64	81	0	1	99
fixed	2	7	11	376967	5	2	2	1	0	1054	1	4	0	48	82	0	1	99
fixed	2	7	12	378556	4	3	3	1	0	1138	1	4	0	56	83	0	1	99
fixed	2	8	1	380647	4	1	1	1	0	753	1	4	0	40	84	0	1	99
fixed	2	8	2	382403	1	2	2	1	0	1127	1	4	0	48	85	0	1	99
fixed	2	8	3	384100	6	4	4	1	0	808	1	4	0	64	86	0	1	99
fixed	2	8	4	385892	2	1	1	1	0	779	1	4	0	40	87	0	1	99
fixed	2	8	5	387584	5	3	3	1	0	1332	1	4	0	56	88	0	1	99
fixed	2	8	6	389871	6	4	4	1	0	731	1	4	0	64	89	0	1	99
fixed	2	8	7	391226	3	1	1	1	0	682	1	4	0	40	90	0	1	99
fixed	2	8	8	392245	2	3	3	1	0	958	1	4	0	56	91	0	1	99
fixed	2	8	9	393827	3	2	2	1	0	947	1	4	0	48	92	0	1	99
fixed	2	8	10	395504	1	4	4	1	0	620	1	4	0	64	93	0	1	99
fixed	2	8	11	396434	5	2	2	1	0	989	1	4	0	48	94	0	1	99
fixed	2	8	12	398186	4	3	3	1	0	1307	1	4	0	56	95	0	1	99
fixed	2	9	1	400044	4	1	1	1	0	1028	1	4	0	40	96	0	1	99
fixed	2	9	2	401831	1	2	2	1	0	1224	1	4	0	48	97	0	1	99
fixed	2	9	3	403751	6	4	4	1	0	711	1	4	0	64	98	0	1	99
fixed	2	9	4	405349	2	1	1	1	0	732	1	4	0	40	99	0	1	99
fixed	2	9	5	406566	5	3	3	1	0	976	1	4	0	56	100	0	1	99
fixed	2	9	6	408263	6	4	4	1	0	808	1	4	0	64	101	0	1	99
fixed	2	9	7	409819	3	1	1	1	0	958	1	4	0	40	102	0	1	99
fixed	2	9	8	411700	2	3	3	1	0	1119	1	4	0	56	103	0	1	99
fixed	2	9	9	413695	3	2	2	1	0	818	1	4	0	48	104	0	1	99
fixed	2	9	10	415526	1	4	4	1	0	909	1	4	0	64	105	0	1	99
fixed	2	9	11	417411	5	2	2	1	0	781	1	4	0	48	106	0	1	99
fixed	2	9	12	419136	4	3	3	1	0	1172	1	4	0	56	107	0	1	99
fixed	2	10	1	421130	4	1	1	1	0	815	1	4	0	40	108	0	1	99
fixed	2	10	2	422702	1	2	2	1	0	1164	1	4	0	48	109	0	1	99
fixed	2	10	3	424262	6	4	4	1	0	859	1	4	0	64	110	0	1	99
fixed	2	10	4	426039	2	1	1	1	0	799	1	4	0	40	111	0	1	99
fixed	2	10	5	427643	5	3	3	1	0	979	1	4	0	56	112	0	1	99
fixed	2	10	6	429375	6	4	4	1	0	818	1	4	0	64	113	0	1	99
fixed	2	10	7	430555	3	1	1	1	0	856	1	4	0	40	114	0	1	99
fixed	2	10	8	432066	2	3	3	1	0	1416	1	4	0	56	115	0	1	99
fixed	2	10	9	434034	3	2	2	1	0	981	1	4	0	48	116	0	1	99
fixed	2	10	10	435989	1	4	4	1	0	642	1	4	0	64	117	0	1	99
fixed	2	10	11	437332	5	2	2	1	0	1129	1	4	0	48	118	0	1	99
fixed	2	10	12	438994	4	3	3	1	0	1082	1	4	0	56	119	0	1	99
fixed	3	1	1	441059	4	1	1	1	0	835	1	4	0	72	1	0	0	100
fixed	3	1	2	442556	1	2	2	1	0	1220	1	4	0	80	2	0	0	100
fixed	3	1	3	444370	6	4	4	1	0	678	1	4	0	96	3	0	0	100
fixed	3	1	4	445944	2	1	1	1	0	796	1	4	0	72	4	0	0	100
fixed	3	1	5	447606	5	3	3	1	0	1110	1	4	0	88	5	0	0	100
fixed	3	1	6	449131	6	4	4	1	0	933	1	4	0	96	6	0	0	100
fixed	3	1	7	450619	3	1	1	1	0	662	1	4	0	72	7	0	0	100
fixed	3	1	8	451882	2	3	3	1	0	1289	1	4	0	88	8	0	0	100
fixed	3	1	9	453654	3	2	2	2	0	1078	2	4	0	80	9	0	0	100
fixed	3	1	10	455494	1	4	4	1	0	776	1	4	0	96	10	0	0	100
fixed	3	1	11	456710	5	2	2	1	0	1260	1	4	0	80	11	0	0	100
fixed	3	1	12	458426	4	3	0	1	2	0	3	4	0	88	11	0	1	92
fixed	3	2	1	461996	4	1	1	1	0	900	1	4	0	72	12	0	1	92
fixed	3	2	2	463245	1	2	2	1	0	1232	1	4	0	80	13	0	1	93
fixed	3	2	3	465067	6	4	4	1	0	706	1	4	0	96	14	0	1	93
fixed	3	2	4	466654	2	1	1	1	0	695	1	4	0	72	15	0	1	94
fixed	3	2	5	467714	5	3	3	1	0	1442	1	4	0	88	16	0	1	94
fixed	3	2	6	469794	6	4	4	1	0	898	1	4	0	96	17	0	1	94
fixed	3	2	7	471390	3	1	1	1	0	870	1	4	0	72	18	0	1	95
fixed	3	2	8	472857	2	3	3	1	0	1472	1	4	0	88	19	0	1	95
fixed	3	2	9	474970	3	2	2	1	0	887	1	4	0	80	20	0	1	95
fixed	3	2	10	476216	1	4	4	1	0	738	1	4	0	96	21	0	1	95
fixed	3	2	11	477711	5	2	2	1	0	1067	1	4	0	80	22	0	1	96
fixed	3	2	12	479678	4	3	3	1	0	903	1	4	0	88	23	0	1	96
fixed	3	3	1	481427	4	1	1	1	0	733	1	4	0	72	24	0	1	96
fixed	3	3	2	483126	1	2	0	1	2	0	3	4	0	80	24	0	2	92
fixed	3	3	3	486562	6	4	4	1	0	820	1	4	0	96	25	0	2	93
fixed	3	3	4	488109	2	1	1	1	0	1018	1	4	0	72	26	0	2	93
fixed	3	3	5	490002	5	3	3	1	0	1274	1	4	0	88	27	0	2	93
fixed	3	3	6	491843	6	4	4	1	0	796	1	4	0	96	28	0	2	93
fixed	3	3	7	493144	3	1	1	1	0	973	1	4	0	72	29	0	2	94
fixed	3	3	8	494634	2	3	3	1	0	1182	1	4	0	88	30	0	2	94
fixed	3	3	9	496270	3	2	2	1	0	657	1	4	0	80	31	0	2	94
fixed	3	3	10	497268	1	4	4	1	0	718	1	4	0	96	32	0	2	94
fixed	3	3	11	498832	5	2	2	1	0	1092	1	4	0	80	33	0	2	94
fixed	3	3	12	500761	4	3	3	1	0	1530	1	4	0	88	34	0	2	94
fixed	3	4	1	503415	4	1	1	1	0	818	1	4	0	72	35	0	2	95
fixed	3	4	2	504698	1	2	2	1	0	1331	1	4	0	80	36	0	2	95
fixed	3	4	3	506717	6	4	4	1	0	702	1	4	0	96	37	0	2	95
fixed	3	4	4	508341	2	1	1	1	0	945	1	4	0	72	38	0	2	95
fixed	3	4	5	509896	5	3	3	1	0	1279	1	4	0	88	39	0	2	95
fixed	3	4	6	512106	6	4	4	1	0	746	1	4	0	96	40	0	2	95
fixed	3	4	7	513156	3	1	1	1	0	885	1	4	0	72	41	0	2	95
fixed	3	4	8	514613	2	3	3	1	0	951	1	4	0	88	42	0	2	95
fixed	3	4	9	516238	3	2	2	1	0	771	1	4	0	80	43	0	2	96
fixed	3	4	10	517493	1	4	4	1	0	662	1	4	0	96	44	0	2	96
fixed	3	4	11	518982	5	2	2	1	0	1111	1	4	0	80	45	0	2	96
fixed	3	4	12	520832	4	3	3	2	0	1016	2	4	0	88	46	0	2	96
fixed	3	5	1	522913	4	1	1	1	0	856	1	4	0	72	47	0	2	96
fixed	3	5	2	524364	1	2	2	1	0	970	1	4	0	80	48	0	2	96
fixed	3	5	3	526175	6	4	4	1	0	694	1	4	0	96	49	0	2	96
fixed	3	5	4	527729	2	1	1	1	0	996	1	4	0	72	50	0	2	96
fixed	3	5	5	529510	5	3	3	1	0	840	1	4	0	88	51	0	2	96
fixed	3	5	6	531272	6	4	4	1	0	750	1	4	0	96	52	0	2	96
fixed	3	5	7	532916	3	1	1	1	0	753	1	4	0	72	53	0	2	96
fixed	3	5	8	534537	2	3	3	1	0	892	1	4	0	88	54	0	2	96
fixed	3	5	9	535999	3	2	2	1	0	854	1	4	0	80	55	0	2	96
fixed	3	5	10	537297	1	4	4	1	0	671	1	4	0	96	56	0	2	97
fixed	3	5	11	538843	5	2	2	1	0	1061	1	4	0	80	57	0	2	97
fixed	3	5	12	540333	4	3	3	1	0	1151	1	4	0	88	58	0	2	97
fixed	3	6	1	542745	4	1	1	1	0	736	1	4	0	72	59	0	2	97
fixed	3	6	2	544069	1	2	2	1	0	928	1	4	0	80	60	0	2	97
fixed	3	6	3	545868	6	4	4	1	0	612	1	4	0	96	61	0	2	97
fixed	3	6	4	546832	2	1	1	1	0	875	1	4	0	72	62	0	2	97
fixed	3	6	5	548704	5	3	3	1	0	860	1	4	0	88	63	0	2	97
fixed	3	6	6	550565	6	4	4	1	0	645	1	4	0	96	64	0	2	97
fixed	3	6	7	551695	3	1	1	1	0	877	1	4	0	72	65	0	2	97
fixed	3	6	8	553113	2	3	3	1	0	1385	1	4	0	88	66	0	2	97
fixed	3	6	9	555259	3	2	2	1	0	1286	1	4	0	80	67	0	2	97
fixed	3	6	10	557011	1	4	4	1	0	651	1	4	0	96	68	0	2	97
fixed	3	6	11	558575	5	2	2	1	0	1018	1	4	0	80	69	0	2	97
fixed	3	6	12	560265	4	3	3	1	0	1242	1	4	0	88	70	0	2	97
fixed	3	7	1	562610	4	1	1	1	0	758	1	4	0	72	71	0	2	97
fixed	3	7	2	563826	1	2	2	2	0	1819	2	4	0	80	72	0	2	97
fixed	3	7	3	565956	6	4	4	1	0	729	1	4	0	96	73	0	2	97
fixed	3	7	4	567023	2	1	1	1	0	924	1	4	0	72	74	0	2	97
fixed	3	7	5	568680	5	3	3	1	0	1302	1	4	0	88	75	0	2	97
fixed	3	7	6	570836	6	4	4	1	0	754	1	4	0	96	76	0	2	97
fixed	3	7	7	572594	3	1	1	1	0	760	1	4	0	72	77	0	2	97
fixed	3	7	8	573661	2	3	3	1	0	1419	1	4	0	88	78	0	2	98
fixed	3	7	9	576082	3	2	2	1	0	628	1	4	0	80	79	0	2	98
fixed	3	7	10	577727	1	4	4	1	0	679	1	4	0	96	80	0	2	98
fixed	3	7	11	579117	5	2	2	1	0	779	1	4	0	80	81	0	2	98
fixed	3	7	12	580255	4	3	0	1	2	0	3	4	0	88	81	0	3	96
fixed	3	8	1	583862	4	1	1	1	0	938	1	4	0	72	82	0	3	96
fixed	3	8	2	585231	1	2	2	1	0	1400	1	4	0	80	83	0	3	97
fixed	3	8	3	587267	6	4	4	1	0	627	1	4	0	96	84	0	3	97
fixed	3	8	4	588188	2	1	1	1	0	763	1	4	0	72	85	0	3	97
fixed	3	8	5	589978	5	3	3	1	0	1375	1	4	0	88	86	0	3	97
fixed	3	8	6	591711	6	4	4	1	0	814	1	4	0	96	87	0	3	97
fixed	3	8	7	593063	3	1	1	1	0	829	1	4	0	72	88	0	3	97
fixed	3	8	8	594815	2	3	3	1	0	1403	1	4	0	88	89	0	3	97
fixed	3	8	9	597127	3	2	2	1	0	752	1	4	0	80	90	0	3	97
fixed	3	8	10	598593	1	4	4	1	0	627	1	4	0	96	91	0	3	97
fixed	3	8	11	600230	5	2	2	1	0	1102	1	4	0	80	92	0	3	97
fixed	3	8	12	602050	4	3	3	1	0	760	1	4	0	88	93	0	3	97
fixed	3	9	1	603360	4	1	1	1	0	881	1	4	0	72	94	0	3	97
fixed	3	9	2	604729	1	2	2	1	0	1382	1	4	0	80	95	0	3	97
fixed	3	9	3	606717	6	4	4	1	0	1434	1	4	0	96	96	0	3	97
fixed	3	9	4	608810	2	1	1	1	0	1106	1	4	0	72	97	0	3	97
fixed	3	9	5	610884	5	3	3	1	0	1002	1	4	0	88	98	0	3	97
fixed	3	9	6	612576	6	4	4	1	0	739	1	4	0	96	99	0	3	97
fixed	3	9	7	614190	3	1	1	1	0	790	1	4	0	72	100	0	3	97
fixed	3	9	8	615578	2	3	3	1	0	1131	1	4	0	88	101	0	3	97
fixed	3	9	9	617086	3	2	2	1	0	843	1	4	0	80	102	0	3	97
fixed	3	9	10	618420	1	4	4	1	0	699	1	4	0	96	103	0	3	97
fixed	3	9	11	619478	5	2	2	1	0	982	1	4	0	80	104	0	3	97
fixed	3	9	12	621201	4	3	3	1	0	1165	1	4	0	88	105	0	3	97
fixed	3	10	1	623042	4	1	1	1	0	759	1	4	0	72	106	0	3	97
fixed	3	10	2	624479	1	2	2	1	0	1026	1	4	0	80	107	0	3	97
fixed	3	10	3	625975	6	4	4	1	0	667	1	4	0	96	108	0	3	97
fixed	3	10	4	627089	2	1	1	1	0	1100	1	4	0	72	109	0	3	97
fixed	3	10	5	628822	5	3	3	1	0	1090	1	4	0	88	110	0	3	97
fixed	3	10	6	630850	6	4	4	1	0	724	1	4	0	96	111	0	3	97
fixed	3	10	7	632461	3	1	1	1	0	824	1	4	0	72	112	0	3	97
fixed	3	10	8	634120	2	3	3	1	0	1266	1	4	0	88	113	0	3	97
fixed	3	10	9	636383	3	2	2	1	0	706	1	4	0	80	114	0	3	97
fixed	3	10	10	637557	1	4	4	1	0	745	1	4	0	96	115	0	3	97
fixed	3	10	11	638704	5	2	2	1	0	1024	1	4	0	80	116	0	3	97
fixed	3	10	12	640665	4	3	3	1	0	1309	1	4	0	88	117	0	3	98
fixed	4	1	1	731455	4	1	1	1	0	1191	1	4	0	104	1	0	0	100
fixed	4	1	2	733668	1	2	2	1	0	897	1	4	0	112	2	0	0	100
fixed	4	1	3	735129	6	4	4	1	0	604	1	4	0	128	3	0	0	100
fixed	4	1	4	736242	2	1	1	1	0	813	1	4	0	104	4	0	0	100
fixed	4	1	5	737887	5	3	3	1	0	1143	1	4	0	120	5	0	0	100
fixed	4	1	6	739561	6	4	4	1	0	720	1	4	0	128	6	0	0	100
fixed	4	1	7	740749	3	1	1	1	0	861	1	4	0	104	7	0	0	100
fixed	4	1	8	742553	2	3	3	1	0	857	1	4	0	120	8	0	0	100
fixed	4	1	9	744089	3	2	0	1	2	0	3	4	0	112	8	0	1	89
fixed	4	1	10	747423	1	4	4	1	0	707	1	4	0	128	9	0	1	90
fixed	4	1	11	748639	5	2	2	1	0	1055	1	4	0	112	10	0	1	91
fixed	4	1	12	750007	4	3	3	1	0	1021	1	4	0	120	11	0	1	92
fixed	4	2	1	751941	4	1	1	1	0	803	1	4	0	104	12	0	1	92
fixed	4	2	2	753495	1	2	2	1	0	1098	1	4	0	112	13	0	1	93
fixed	4	2	3	754888	6	4	4	1	0	655	1	4	0	128	14	0	1	93
fixed	4	2	4	756383	2	1	1	1	0	807	1	4	0	104	15	0	1	94
fixed	4	2	5	757687	5	3	3	1	0	1576	1	4	0	120	16	0	1	94
fixed	4	2	6	760114	6	4	4	1	0	705	1	4	0	128	17	0	1	94
fixed	4	2	7	761389	3	1	1	1	0	827	1	4	0	104	18	0	1	95
fixed	4	2	8	763065	2	3	3	1	0	1285	1	4	0	120	19	0	1	95
fixed	4	2	9	765168	3	2	2	1	0	860	1	4	0	112	20	0	1	95
fixed	4	2	10	766525	1	4	4	2	0	1138	2	4	0	128	21	0	1	95
fixed	4	2	11	768553	5	2	2	1	0	1020	1	4	0	112	22	0	1	96
fixed	4	2	12	770415	4	3	3	1	0	909	1	4	0	120	23	0	1	96
fixed	4	3	1	772191	4	1	1	1	0	698	1	4	0	104	24	0	1	96
fixed	4	3	2	773704	1	2	2	1	0	1042	1	4	0	112	25	0	1	96
fixed	4	3	3	775331	6	4	4	1	0	645	1	4	0	128	26	0	1	96
fixed	4	3	4	776986	2	1	1	1	0	791	1	4	0	104	27	0	1	96
fixed	4	3	5	778119	5	3	3	1	0	983	1	4	0	120	28	0	1	97
fixed	4	3	6	779509	6	4	4	1	0	756	1	4	0	128	29	0	1	97
fixed	4	3	7	781284	3	1	1	1	0	761	1	4	0	104	30	0	1	97
fixed	4	3	8	782426	2	3	3	2	0	1065	2	4	0	120	31	0	1	97
fixed	4	3	9	784276	3	2	2	1	0	962	1	4	0	112	32	0	1	97
fixed	4	3	10	786140	1	4	4	1	0	667	1	4	0	128	33	0	1	97
fixed	4	3	11	787572	5	2	2	1	0	903	1	4	0	112	34	0	1	97
fixed	4	3	12	788953	4	3	3	1	0	1100	1	4	0	120	35	0	1	97
fixed	4	4	1	791171	4	1	1	1	0	782	1	4	0	104	36	0	1	97
fixed	4	4	2	792878	1	2	2	1	0	1166	1	4	0	112	37	0	1	97
fixed	4	4	3	794614	6	4	4	1	0	636	1	4	0	128	38	0	1	97
fixed	4	4	4	796142	2	1	1	2	0	1212	2	4	0	104	39	0	1	98
fixed	4	4	5	797891	5	3	3	1	0	1633	1	4	0	120	40	0	1	98
fixed	4	4	6	800178	6	4	4	1	0	840	1	4	0	128	41	0	1	98
fixed	4	4	7	801355	3	1	1	1	0	967	1	4	0	104	42	0	1	98
fixed	4	4	8	802695	2	3	3	1	0	982	1	4	0	120	43	0	1	98
fixed	4	4	9	804013	3	2	2	1	0	1374	1	4	0	112	44	0	1	98
fixed	4	4	10	806406	1	4	4	1	0	880	1	4	0	128	45	0	1	98
fixed	4	4	11	808042	5	2	2	1	0	1044	1	4	0	112	46	0	1	98
fixed	4	4	12	809804	4	3	3	1	0	1217	1	4	0	120	47	0	1	98
fixed	4	5	1	811888	4	1	1	1	0	968	1	4	0	104	48	0	1	98
fixed	4	5	2	813272	1	2	2	1	0	1526	1	4	0	112	49	0	1	98
fixed	4	5	3	815356	6	4	4	1	0	758	1	4	0	128	50	0	1	98
fixed	4	5	4	816686	2	1	1	1	0	725	1	4	0	104	51	0	1	98
fixed	4	5	5	818283	5	3	3	1	0	890	1	4	0	120	52	0	1	98
fixed	4	5	6	819593	6	4	4	1	0	826	1	4	0	128	53	0	1	98
fixed	4	5	7	821315	3	1	1	1	0	833	1	4	0	104	54	0	1	98
fixed	4	5	8	822791	2	3	3	1	0	1579	1	4	0	120	55	0	1	98
fixed	4	5	9	824825	3	2	2	1	0	949	1	4	0	112	56	0	1	98
fixed	4	5	10	826090	1	4	4	1	0	799	1	4	0	128	57	0	1	98
fixed	4	5	11	827233	5	2	2	1	0	1023	1	4	0	112	58	0	1	98
fixed	4	5	12	828873	4	3	3	1	0	849	1	4	0	120	59	0	1	98
fixed	4	6	1	830885	4	1	1	1	0	812	1	4	0	104	60	0	1	98
fixed	4	6	2	832242	1	2	2	1	0	1186	1	4	0	112	61	0	1	98
fixed	4	6	3	834315	6	4	4	1	0	619	1	4	0	128	62	0	1	98
fixed	4	6	4	835264	2	1	1	1	0	1002	1	4	0	104	63	0	1	98
fixed	4	6	5	836986	5	3	3	1	0	1105	1	4	0	120	64	0	1	98
fixed	4	6	6	838619	6	4	4	1	0	796	1	4	0	128	65	0	1	98
fixed	4	6	7	839938	3	1	1	1	0	956	1	4	0	104	66	0	1	99
fixed	4	6	8	841759	2	3	3	1	0	976	1	4	0	120	67	0	1	99
fixed	4	6	9	843240	3	2	2	1	0	993	1	4	0	112	68	0	1	99
fixed	4	6	10	844998	1	4	4	1	0	710	1	4	0	128	69	0	1	99
fixed	4	6	11	846427	5	2	2	1	0	842	1	4	0	112	70	0	1	99
fixed	4	6	12	847936	4	3	3	2	0	1090	2	4	0	120	71	0	1	99
fixed	4	7	1	849581	4	1	1	1	0	812	1	4	0	104	72	0	1	99
fixed	4	7	2	851424	1	2	2	1	0	1070	1	4	0	112	73	0	1	99
fixed	4	7	3	853517	6	4	4	1	0	725	1	4	0	128	74	0	1	99
fixed	4	7	4	854751	2	1	1	1	0	1073	1	4	0	104	75	0	1	99
fixed	4	7	5	856319	5	3	3	1	0	1087	1	4	0	120	76	0	1	99
fixed	4	7	6	857791	6	4	4	1	0	776	1	4	0	128	77	0	1	99
fixed	4	7	7	859598	3	1	1	1	0	844	1	4	0	104	78	0	1	99
fixed	4	7	8	861040	2	3	3	1	0	974	1	4	0	120	79	0	1	99
fixed	4	7	9	862706	3	2	2	1	0	880	1	4	0	112	80	0	1	99
fixed	4	7	10	864520	1	4	4	1	0	771	1	4	0	128	81	0	1	99
fixed	4	7	11	865700	5	2	2	1	0	906	1	4	0	112	82	0	1	99
fixed	4	7	12	867260	4	3	3	2	0	1295	2	4	0	120	83	0	1	99
fixed	4	8	1	869363	4	1	1	1	0	1070	1	4	0	104	84	0	1	99
fixed	4	8	2	871184	1	2	2	1	0	1337	1	4	0	112	85	0	1	99
fixed	4	8	3	873123	6	4	4	1	0	631	1	4	0	128	86	0	1	99
fixed	4	8	4	874512	2	1	1	1	0	620	1	4	0	104	87	0	1	99
fixed	4	8	5	875568	5	3	3	1	0	1047	1	4	0	120	88	0	1	99
fixed	4	8	6	877105	6	4	4	1	0	782	1	4	0	128	89	0	1	99
fixed	4	8	7	878821	3	1	1	1	0	661	1	4	0	104	90	0	1	99
fixed	4	8	8	880459	2	3	3	1	0	1384	1	4	0	120	91	0	1	99
fixed	4	8	9	882523	3	2	2	1	0	633	1	4	0	112	92	0	1	99
fixed	4	8	10	883588	1	4	4	1	0	764	1	4	0	128	93	0	1	99
fixed	4	8	11	884872	5	2	2	1	0	1093	1	4	0	112	94	0	1	99
fixed	4	8	12	886461	4	3	3	1	0	1066	1	4	0	120	95	0	1	99
fixed	4	9	1	888075	4	1	1	1	0	789	1	4	0	104	96	0	1	99
fixed	4	9	2	889888	1	2	2	1	0	1081	1	4	0	112	97	0	1	99
fixed	4	9	3	891897	6	4	4	1	0	732	1	4	0	128	98	0	1	99
fixed	4	9	4	892972	2	1	1	2	0	1310	2	4	0	104	99	0	1	99
fixed	4	9	5	895152	5	3	3	1	0	1426	1	4	0	120	100	0	1	99
fixed	4	9	6	897300	6	4	4	1	0	655	1	4	0	128	101	0	1	99
fixed	4	9	7	898713	3	1	1	1	0	739	1	4	0	104	102	0	1	99
fixed	4	9	8	899977	2	3	3	2	0	1149	2	4	0	120	103	0	1	99
fixed	4	9	9	901447	3	2	2	1	0	911	1	4	0	112	104	0	1	99
fixed	4	9	10	903356	1	4	4	1	0	687	1	4	0	128	105	0	1	99
fixed	4	9	11	905014	5	2	2	1	0	896	1	4	0	112	106	0	1	99
fixed	4	9	12	906820	4	3	3	1	0	971	1	4	0	120	107	0	1	99
fixed	4	10	1	908642	4	1	1	1	0	702	1	4	0	104	108	0	1	99
fixed	4	10	2	909700	1	2	2	1	0	1042	1	4	0	112	109	0	1	99
fixed	4	10	3	911424	6	4	4	1	0	641	1	4	0	128	110	0	1	99
fixed	4	10	4	912949	2	1	1	1	0	904	1	4	0	104	111	0	1	99
fixed	4	10	5	914241	5	3	3	1	0	985	1	4	0	120	112	0	1	99
fixed	4	10	6	915811	6	4	4	1	0	711	1	4	0	128	113	0	1	99
fixed	4	10	7	916871	3	1	1	1	0	818	1	4	0	104	114	0	1	99
fixed	4	10	8	918258	2	3	3	1	0	1103	1	4	0	120	115	0	1	99
fixed	4	10	9	920274	3	2	2	1	0	930	1	4	0	112	116	0	1	99
fixed	4	10	10	922002	1	4	4	1	0	657	1	4	0	128	117	0	1	99
fixed	4	10	11	923354	5	2	2	1	0	1079	1	4	0	112	118	0	1	99
fixed	4	10	12	925320	4	3	3	1	0	1532	1	4	0	120	119	0	1	99
fixed	5	1	1	928338	4	1	1	1	0	1100	1	4	0	136	1	0	0	100
fixed	5	1	2	930390	1	2	2	1	0	822	1	4	0	144	2	0	0	100
fixed	5	1	3	932045	6	4	4	1	0	607	1	4	0	160	3	0	0	100
fixed	5	1	4	932977	2	1	1	1	0	1064	1	4	0	136	4	0	0	100
fixed	5	1	5	934426	5	3	3	1	0	1058	1	4	0	152	5	0	0	100
fixed	5	1	6	936009	6	4	4	1	0	687	1	4	0	160	6	0	0	100
fixed	5	1	7	937524	3	1	1	1	0	735	1	4	0	136	7	0	0	100
fixed	5	1	8	938558	2	3	3	1	0	1203	1	4	0	152	8	0	0	100
fixed	5	1	9	940353	3	2	2	1	0	863	1	4	0	144	9	0	0	100
fixed	5	1	10	941683	1	4	4	1	0	775	1	4	0	160	10	0	0	100
fixed	5	1	11	943153	5	2	2	1	0	825	1	4	0	144	11	0	0	100
fixed	5	1	12	944917	4	3	3	1	0	926	1	4	0	152	12	0	0	100
fixed	5	2	1	946619	4	1	1	1	0	862	1	4	0	136	13	0	0	100
fixed	5	2	2	948300	1	2	2	1	0	1183	1	4	0	144	14	0	0	100
fixed	5	2	3	950067	6	4	4	1	0	572	1	4	0	160	15	0	0	100
fixed	5	2	4	951337	2	1	1	2	0	1366	2	4	0	136	16	0	0	100
fixed	5	2	5	953073	5	3	3	1	0	789	1	4	0	152	17	0	0	100
fixed	5	2	6	954695	6	4	4	1	0	688	1	4	0	160	18	0	0	100
fixed	5	2	7	956361	3	1	1	1	0	841	1	4	0	136	19	0	0	100
fixed	5	2	8	957978	2	3	3	2	0	1020	2	4	0	152	20	0	0	100
fixed	5	2	9	959302	3	2	2	1	0	845	1	4	0	144	21	0	0	100
fixed	5	2	10	961181	1	4	4	1	0	653	1	4	0	160	22	0	0	100
fixed	5	2	11	962499	5	2	2	1	0	933	1	4	0	144	23	0	0	100
fixed	5	2	12	964237	4	3	3	1	0	884	1	4	0	152	24	0	0	100
fixed	5	3	1	965716	4	1	1	1	0	741	1	4	0	136	25	0	0	100
fixed	5	3	2	967462	1	2	2	1	0	1099	1	4	0	144	26	0	0	100
fixed	5	3	3	969118	6	4	4	1	0	613	1	4	0	160	27	0	0	100
fixed	5	3	4	970682	2	1	1	1	0	707	1	4	0	136	28	0	0	100
fixed	5	3	5	972121	5	3	3	1	0	894	1	4	0	152	29	0	0	100
fixed	5	3	6	974050	6	4	4	1	0	700	1	4	0	160	30	0	0	100
fixed	5	3	7	975714	3	1	1	1	0	846	1	4	0	136	31	0	0	100
fixed	5	3	8	977011	2	3	3	1	0	902	1	4	0	152	32	0	0	100
fixed	5	3	9	978263	3	2	2	1	0	745	1	4	0	144	33	0	0	100
fixed	5	3	10	979374	1	4	4	1	0	603	1	4	0	160	34	0	0	100
fixed	5	3	11	980780	5	2	2	1	0	1015	1	4	0	144	35	0	0	100
fixed	5	3	12	982699	4	3	3	1	0	1206	1	4	0	152	36	0	0	100
fixed	5	4	1	984829	4	1	1	1	0	851	1	4	0	136	37	0	0	100
fixed	5	4	2	986075	1	2	2	1	0	1031	1	4	0	144	38	0	0	100
fixed	5	4	3	987401	6	4	4	1	0	662	1	4	0	160	39	0	0	100
fixed	5	4	4	988421	2	1	1	1	0	795	1	4	0	136	40	0	0	100
fixed	5	4	5	989526	5	3	3	1	0	1084	1	4	0	152	41	0	0	100
fixed	5	4	6	991241	6	4	4	1	0	684	1	4	0	160	42	0	0	100
fixed	5	4	7	992515	3	1	1	1	0	774	1	4	0	136	43	0	0	100
fixed	5	4	8	993730	2	3	3	1	0	1091	1	4	0	152	44	0	0	100
fixed	5	4	9	995248	3	2	2	1	0	1194	1	4	0	144	45	0	0	100
fixed	5	4	10	997438	1	4	4	1	0	1478	1	4	0	160	46	0	0	100
fixed	5	4	11	999600	5	2	2	1	0	1090	1	4	0	144	47	0	0	100
fixed	5	4	12	1001548	4	3	3	2	0	984	2	4	0	152	48	0	0	100
fixed	5	5	1	1003542	4	1	1	1	0	755	1	4	0	136	49	0	0	100
fixed	5	5	2	1004704	1	2	2	1	0	1354	1	4	0	144	50	0	0	100
fixed	5	5	3	1006987	6	4	4	1	0	641	1	4	0	160	51	0	0	100
fixed	5	5	4	1007984	2	1	1	1	0	1150	1	4	0	136	52	0	0	100
fixed	5	5	5	1010110	5	3	3	1	0	1509	1	4	0	152	53	0	0	100
fixed	5	5	6	1011913	6	4	4	1	0	704	1	4	0	160	54	0	0	100
fixed	5	5	7	1013663	3	1	1	1	0	847	1	4	0	136	55	0	0	100
fixed	5	5	8	1014983	2	3	3	1	0	1247	1	4	0	152	56	0	0	100
fixed	5	5	9	1016720	3	2	2	1	0	757	1	4	0	144	57	0	0	100
fixed	5	5	10	1017863	1	4	4	1	0	668	1	4	0	160	58	0	0	100
fixed	5	5	11	1019491	5	2	2	1	0	1000	1	4	0	144	59	0	0	100
fixed	5	5	12	1021073	4	3	3	1	0	844	1	4	0	152	60	0	0	100
fixed	5	6	1	1022555	4	1	1	1	0	741	1	4	0	136	61	0	0	100
fixed	5	6	2	1024247	1	2	0	1	2	0	3	4	0	144	61	0	1	98
fixed	5	6	3	1027420	6	4	4	1	0	727	1	4	0	160	62	0	1	98
fixed	5	6	4	1028867	2	1	1	1	0	1315	1	4	0	136	63	0	1	98
fixed	5	6	5	1030943	5	3	3	1	0	1418	1	4	0	152	64	0	1	98
fixed	5	6	6	1032745	6	4	4	1	0	726	1	4	0	160	65	0	1	98
fixed	5	6	7	1034328	3	1	1	1	0	867	1	4	0	136	66	0	1	99
fixed	5	6	8	1035878	2	3	3	1	0	993	1	4	0	152	67	0	1	99
fixed	5	6	9	1037250	3	2	2	1	0	927	1	4	0	144	68	0	1	99
fixed	5	6	10	1039129	1	4	4	1	0	775	1	4	0	160	69	0	1	99
fixed	5	6	11	1040332	5	2	2	1	0	1004	1	4	0	144	70	0	1	99
fixed	5	6	12	1042263	4	3	3	1	0	1059	1	4	0	152	71	0	1	99
fixed	5	7	1	1044275	4	1	1	1	0	765	1	4	0	136	72	0	1	99
fixed	5	7	2	1045653	1	2	2	1	0	1035	1	4	0	144	73	0	1	99
fixed	5	7	3	1047519	6	4	4	1	0	644	1	4	0	160	74	0	1	99
fixed	5	7	4	1049002	2	1	1	1	0	733	1	4	0	136	75	0	1	99
fixed	5	7	5	1050680	5	3	3	1	0	814	1	4	0	152	76	0	1	99
fixed	5	7	6	1052171	6	4	4	1	0	607	1	4	0	160	77	0	1	99
fixed	5	7	7	1053677	3	1	1	1	0	744	1	4	0	136	78	0	1	99
fixed	5	7	8	1055175	2	3	3	1	0	1048	1	4	0	152	79	0	1	99
fixed	5	7	9	1057209	3	2	2	1	0	1074	1	4	0	144	80	0	1	99
fixed	5	7	10	1058876	1	4	4	1	0	611	1	4	0	160	81	0	1	99
fixed	5	7	11	1060069	5	2	2	1	0	1001	1	4	0	144	82	0	1	99
fixed	5	7	12	1061741	4	3	3	1	0	874	1	4	0	152	83	0	1	99
fixed	5	8	1	1063405	4	1	1	1	0	819	1	4	0	136	84	0	1	99
fixed	5	8	2	1065019	1	2	2	1	0	1071	1	4	0	144	85	0	1	99
fixed	5	8	3	1066825	6	4	4	1	0	739	1	4	0	160	86	0	1	99
fixed	5	8	4	1068195	2	1	1	1	0	1257	1	4	0	136	87	0	1	99
fixed	5	8	5	1069770	5	3	3	1	0	974	1	4	0	152	88	0	1	99
fixed	5	8	6	1071430	6	4	4	1	0	743	1	4	0	160	89	0	1	99
fixed	5	8	7	1072933	3	1	1	1	0	1056	1	4	0	136	90	0	1	99
fixed	5	8	8	1074347	2	3	3	2	0	1188	2	4	0	152	91	0	1	99
fixed	5	8	9	1075960	3	2	2	1	0	768	1	4	0	144	92	0	1	99
fixed	5	8	10	1077631	1	4	4	1	0	689	1	4	0	160	93	0	1	99
fixed	5	8	11	1078728	5	2	2	1	0	1034	1	4	0	144	94	0	1	99
fixed	5	8	12	1080624	4	3	3	1	0	818	1	4	0	152	95	0	1	99
fixed	5	9	1	1082285	4	1	1	1	0	843	1	4	0	136	96	0	1	99
fixed	5	9	2	1083704	1	2	2	1	0	1511	1	4	0	144	97	0	1	99
fixed	5	9	3	1086186	6	4	4	1	0	735	1	4	0	160	98	0	1	99
fixed	5	9	4	1087344	2	1	1	1	0	910	1	4	0	136	99	0	1	99
fixed	5	9	5	1088893	5	3	3	1	0	1068	1	4	0	152	100	0	1	99
fixed	5	9	6	1090319	6	4	0	0	2	0	3	4	0	160	100	0	2	98
fixed	5	9	7	1093729	3	1	1	1	0	911	1	4	0	136	101	0	2	98
fixed	5	9	8	1095438	2	3	3	1	0	983	1	4	0	152	102	0	2	98
fixed	5	9	9	1096874	3	2	2	1	0	778	1	4	0	144	103	0	2	98
fixed	5	9	10	1098256	1	4	4	1	0	671	1	4	0	160	104	0	2	98
fixed	5	9	11	1099506	5	2	2	1	0	931	1	4	0	144	105	0	2	98
fixed	5	9	12	1101139	4	3	3	1	0	861	1	4	0	152	106	0	2	98
fixed	5	10	1	1102685	4	1	1	1	0	691	1	4	0	136	107	0	2	98
fixed	5	10	2	1103867	1	2	2	1	0	954	1	4	0	144	108	0	2	98
fixed	5	10	3	1105703	6	4	4	1	0	668	1	4	0	160	109	0	2	98
fixed	5	10	4	1107271	2	1	1	1	0	802	1	4	0	136	110	0	2	98
fixed	5	10	5	1109008	5	3	3	1	0	1000	1	4	0	152	111	0	2	98
fixed	5	10	6	1111027	6	4	4	1	0	618	1	4	0	160	112	0	2	98
fixed	5	10	7	1112237	3	1	1	1	0	695	1	4	0	136	113	0	2	98
fixed	5	10	8	1113412	2	3	3	1	0	837	1	4	0	152	114	0	2	98
fixed	5	10	9	1115111	3	2	2	1	0	838	1	4	0	144	115	0	2	98
fixed	5	10	10	1116678	1	4	4	1	0	651	1	4	0	160	116	0	2	98
fixed	5	10	11	1118234	5	2	2	1	0	793	1	4	0	144	117	0	2	98
fixed	5	10	12	1119474	4	3	3	1	0	932	1	4	0	152	118	0	2	98
random	6	1	1	1233687	6	1	1	1	0	1143	1	4	0	168	1	0	0	100
random	6	1	2	1235505	4	4	4	1	0	954	1	4	0	192	2	0	0	100
random	6	1	3	1237353	2	2	2	1	0	988	1	4	0	176	3	0	0	100
random	6	1	4	1238667	3	3	3	1	0	820	1	4	0	184	4	0	0	100
random	6	1	5	1240113	5	2	2	1	0	951	1	4	0	176	5	0	0	100
random	6	1	6	1241671	1	4	4	1	0	717	1	4	0	192	6	0	0	100
random	6	1	7	1242777	6	1	1	1	0	718	1	4	0	168	7	0	0	100
random	6	1	8	1244277	2	3	3	1	0	855	1	4	0	184	8	0	0	100
random	6	1	9	1245902	4	2	2	2	0	1185	2	4	0	176	9	0	0	100
random	6	1	10	1247968	1	1	1	1	0	762	1	4	0	168	10	0	0	100
random	6	1	11	1249659	5	4	4	1	0	707	1	4	0	192	11	0	0	100
random	6	1	12	1250654	3	3	3	1	0	896	1	4	0	184	12	0	0	100
random	6	1	13	1252352	5	2	2	1	0	816	1	4	0	176	13	0	0	100
random	6	1	14	1253687	1	4	4	1	0	632	1	4	0	192	14	0	0	100
random	6	1	15	1255259	3	1	1	1	0	789	1	4	0	168	15	0	0	100
random	6	1	16	1256576	4	3	3	1	0	1101	1	4	0	184	16	0	0	100
random	6	1	17	1258632	6	4	4	1	0	726	1	4	0	192	17	0	0	100
random	6	1	18	1260279	2	1	1	1	0	617	1	4	0	168	18	0	0	100
random	6	1	19	1261918	5	3	3	1	0	947	1	4	0	184	19	0	0	100
random	6	1	20	1263521	2	2	2	2	0	1096	2	4	0	176	20	0	0	100
random	6	1	21	1265257	3	3	3	1	0	1006	1	4	0	184	21	0	0	100
random	6	1	22	1266672	6	1	1	1	0	778	1	4	0	168	22	0	0	100
random	6	1	23	1268455	4	2	2	2	0	1159	2	4	0	176	23	0	0	100
random	6	1	24	1270332	1	4	4	1	0	671	1	4	0	192	24	0	0	100
random	6	1	25	1271733	4	3	3	2	0	1275	2	4	0	184	25	0	0	100
random	6	1	26	1273416	2	1	1	1	0	909	1	4	0	168	26	0	0	100
random	6	1	27	1274715	5	2	2	1	0	1341	1	4	0	176	27	0	0	100
random	6	1	28	1276804	6	4	4	1	0	669	1	4	0	192	28	0	0	100
random	6	1	29	1277899	1	3	3	1	0	982	1	4	0	184	29	0	0	100
random	6	1	30	1279413	5	2	2	1	0	951	1	4	0	176	30	0	0	100
random	6	1	31	1281087	2	1	1	1	0	807	1	4	0	168	31	0	0	100
random	6	1	32	1282513	3	3	3	1	0	883	1	4	0	184	32	0	0	100
random	6	1	33	1284162	6	4	4	1	0	477	1	4	0	192	33	0	0	100
random	6	1	34	1285229	4	2	2	1	0	936	1	4	0	176	34	0	0	100
random	6	1	35	1286554	3	4	4	1	0	736	1	4	0	192	35	0	0	100
random	6	1	36	1288049	1	1	1	1	0	681	1	4	0	168	36	0	0	100
random	6	1	37	1289794	3	4	4	1	0	742	1	4	0	192	37	0	0	100
random	6	1	38	1290864	5	3	3	1	0	1145	1	4	0	184	38	0	0	100
random	6	1	39	1293050	6	1	1	1	0	780	1	4	0	168	39	0	0	100
random	6	1	40	1294561	1	2	2	1	0	797	1	4	0	176	40	0	0	100
random	6	1	41	1296045	2	3	3	1	0	934	1	4	0	184	41	0	0	100
random	6	1	42	1297963	4	4	4	1	0	900	1	4	0	192	42	0	0	100
random	6	1	43	1299427	1	2	2	1	0	911	1	4	0	176	43	0	0	100
random	6	1	44	1301271	6	3	3	1	0	1184	1	4	0	184	44	0	0	100
random	6	1	45	1303474	3	1	1	2	0	1196	2	4	0	168	45	0	0	100
random	6	1	46	1305406	4	4	4	1	0	777	1	4	0	192	46	0	0	100
random	6	1	47	1306868	2	2	2	1	0	915	1	4	0	176	47	0	0	100
random	6	1	48	1308617	5	1	1	1	0	722	1	4	0	168	48	0	0	100
random	6	1	49	1310111	2	3	3	2	0	1122	2	4	0	184	49	0	0	100
random	6	1	50	1311635	3	1	1	1	0	913	1	4	0	168	50	0	0	100
random	6	1	51	1313452	1	4	4	1	0	668	1	4	0	192	51	0	0	100
random	6	1	52	1315098	5	3	3	1	0	895	1	4	0	184	52	0	0	100
random	6	1	53	1316496	3	2	2	1	0	876	1	4	0	176	53	0	0	100
random	6	1	54	1317988	6	4	4	1	0	725	1	4	0	192	54	0	0	100
random	6	1	55	1319667	4	2	2	1	0	1077	1	4	0	176	55	0	0	100
random	6	1	56	1321679	1	1	1	1	0	784	1	4	0	168	56	0	0	100
random	6	1	57	1323456	5	4	4	1	0	949	1	4	0	192	57	0	0	100
random	6	1	58	1325209	2	1	1	1	0	683	1	4	0	168	58	0	0	100
random	6	1	59	1326173	6	2	2	1	0	1130	1	4	0	176	59	0	0	100
random	6	1	60	1327931	4	3	3	1	0	984	1	4	0	184	60	0	0	100
random	6	1	61	1329826	1	2	2	1	0	919	1	4	0	176	61	0	0	100
random	6	1	62	1331370	6	4	4	1	0	614	1	4	0	192	62	0	0	100
random	6	1	63	1332685	4	1	1	1	0	686	1	4	0	168	63	0	0	100
random	6	1	64	1333686	2	2	2	1	0	979	1	4	0	176	64	0	0	100
random	6	1	65	1335407	4	3	3	1	0	1195	1	4	0	184	65	0	0	100
random	6	1	66	1337360	3	1	1	1	0	856	1	4	0	168	66	0	0	100
random	6	1	67	1339253	1	3	3	1	0	832	1	4	0	184	67	0	0	100
random	6	1	68	1340629	5	4	4	1	0	758	1	4	0	192	68	0	0	100
random	6	1	69	1342194	2	2	2	1	0	843	1	4	0	176	69	0	0	100
random	6	1	70	1343478	3	1	1	1	0	717	1	4	0	168	70	0	0	100
random	6	1	71	1345148	5	4	4	1	0	670	1	4	0	192	71	0	0	100
random	6	1	72	1346678	6	3	3	1	0	774	1	4	0	184	72	0	0	100
random	6	1	73	1348070	2	1	1	1	0	722	1	4	0	168	73	0	0	100
random	6	1	74	1349194	5	3	3	1	0	1331	1	4	0	184	74	0	0	100
random	6	1	75	1350941	1	4	4	1	0	768	1	4	0	192	75	0	0	100
random	6	1	76	1352176	6	2	2	1	0	1125	1	4	0	176	76	0	0	100
random	6	1	77	1354171	2	1	1	1	0	752	1	4	0	168	77	0	0	100
random	6	1	78	1355602	4	4	4	1	0	732	1	4	0	192	78	0	0	100
random	6	1	79	1356923	3	2	2	1	0	1203	1	4	0	176	79	0	0	100
random	6	1	80	1359074	4	3	3	1	0	801	1	4	0	184	80	0	0	100
random	6	1	81	1360213	1	4	4	1	0	816	1	4	0	192	81	0	0	100
random	6	1	82	1361899	5	1	1	1	0	1033	1	4	0	168	82	0	0	100
random	6	1	83	1363432	3	2	2	1	0	1008	1	4	0	176	83	0	0	100
random	6	1	84	1365417	6	3	3	1	0	1052	1	4	0	184	84	0	0	100
random	6	1	85	1367618	3	2	0	0	2	0	3	4	0	176	84	0	1	99
random	6	1	86	1370639	1	3	3	1	0	1159	1	4	0	184	85	0	1	99
random	6	1	87	1372401	4	4	4	1	0	660	1	4	0	192	86	0	1	99
random	6	1	88	1373432	2	1	1	1	0	648	1	4	0	168	87	0	1	99
random	6	1	89	1374487	6	4	4	1	0	755	1	4	0	192	88	0	1	99
random	6	1	90	1376161	3	3	3	1	0	1029	1	4	0	184	89	0	1	99
random	6	1	91	1377536	5	4	4	1	0	763	1	4	0	192	90	0	1	99
random	6	1	92	1379208	1	2	2	1	0	812	1	4	0	176	91	0	1	99
random	6	1	93	1380395	5	1	1	1	0	914	1	4	0	168	92	0	1	99
random	6	1	94	1382311	4	3	3	1	0	864	1	4	0	184	93	0	1	99
random	6	1	95	1383906	6	1	1	1	0	812	1	4	0	168	94	0	1	99
random	6	1	96	1385314	2	2	2	1	0	857	1	4	0	176	95	0	1	99
random	6	1	97	1386782	4	3	3	1	0	1138	1	4	0	184	96	0	1	99
random	6	1	98	1388408	3	2	2	1	0	1078	1	4	0	176	97	0	1	99
random	6	1	99	1390238	6	3	3	1	0	1344	1	4	0	184	98	0	1	99
random	6	1	100	1392234	1	4	4	1	0	692	1	4	0	192	99	0	1	99
random	6	1	101	1393700	4	1	1	1	0	942	1	4	0	168	100	0	1	99
random	6	1	102	1394982	5	2	2	1	0	1096	1	4	0	176	101	0	1	99
random	6	1	103	1396518	2	4	4	1	0	727	1	4	0	192	102	0	1	99
random	6	1	104	1397575	3	1	1	1	0	777	1	4	0	168	103	0	1	99
random	6	1	105	1398876	1	3	3	1	0	970	1	4	0	184	104	0	1	99
random	6	1	106	1400821	2	2	2	1	0	1032	1	4	0	176	105	0	1	99
random	6	1	107	1402882	5	4	4	1	0	721	1	4	0	192	106	0	1	99
random	6	1	108	1403993	6	1	1	1	0	898	1	4	0	168	107	0	1	99
random	6	1	109	1405561	5	4	4	1	0	775	1	4	0	192	108	0	1	99
random	6	1	110	1406774	6	3	3	2	0	1164	2	4	0	184	109	0	1	99
random	6	1	111	1408782	2	2	2	1	0	847	1	4	0	176	110	0	1	99
random	6	1	112	1409950	3	1	1	2	0	1670	2	4	0	168	111	0	1	99
random	6	1	113	1412555	1	2	2	1	0	1735	1	4	0	176	112	0	1	99
random	6	1	114	1414913	2	3	3	1	0	891	1	4	0	184	113	0	1	99
random	6	1	115	1416635	3	1	1	1	0	1067	1	4	0	168	114	0	1	99
random	6	1	116	1418429	4	4	4	1	0	750	1	4	0	192	115	0	1	99
random	6	1	117	1420116	6	1	1	1	0	703	1	4	0	168	116	0	1	99
random	6	1	118	1421829	5	3	3	1	0	967	1	4	0	184	117	0	1	99
random	6	1	119	1423502	1	4	4	1	0	784	1	4	0	192	118	0	1	99
random	6	1	120	1424707	4	2	0	0	2	0	3	4	0	176	118	0	2	98
fixed	7	1	1	1428365	4	1	1	1	0	993	1	4	0	200	1	0	0	100
fixed	7	1	2	1430265	1	2	2	1	0	1017	1	4	0	208	2	0	0	100
fixed	7	1	3	1431622	6	4	4	1	0	728	1	4	0	224	3	0	0	100
fixed	7	1	4	1433376	2	1	1	1	0	782	1	4	0	200	4	0	0	100
fixed	7	1	5	1434469	5	3	3	1	0	1279	1	4	0	216	5	0	0	100
fixed	7	1	6	1436070	6	4	4	1	0	795	1	4	0	224	6	0	0	100
fixed	7	1	7	1437740	3	1	1	1	0	676	1	4	0	200	7	0	0	100
fixed	7	1	8	1439263	2	3	3	1	0	996	1	4	0	216	8	0	0	100
fixed	7	1	9	1440820	3	2	2	1	0	970	1	4	0	208	9	0	0	100
fixed	7	1	10	1442460	1	4	4	1	0	676	1	4	0	224	10	0	0	100
fixed	7	1	11	1444068	5	2	2	1	0	1081	1	4	0	208	11	0	0	100
fixed	7	1	12	1445766	4	3	3	1	0	1024	1	4	0	216	12	0	0	100
fixed	7	2	1	1447849	4	1	1	1	0	840	1	4	0	200	1	0	0	8
fixed	7	2	2	1449141	1	2	0	1	2	0	3	4	0	208	1	0	1	7
fixed	7	2	3	1452609	6	4	4	1	0	766	1	4	0	224	2	0	1	13
fixed	7	2	4	1453967	2	1	1	1	0	1173	1	4	0	200	3	0	1	19
fixed	7	2	5	1455535	5	3	3	1	0	1034	1	4	0	216	4	0	1	24
fixed	7	2	6	1457491	6	4	4	1	0	832	1	4	0	224	5	0	1	28
fixed	7	2	7	1459058	3	1	1	1	0	693	1	4	0	200	6	0	1	32
fixed	7	2	8	1460442	2	3	0	0	2	0	3	4	0	216	6	0	2	30
fixed	7	2	9	1463642	3	2	2	1	0	947	1	4	0	208	7	0	2	33
fixed	7	2	10	1465498	1	4	4	1	0	749	1	4	0	224	8	0	2	36
fixed	7	2	11	1466978	5	2	2	1	0	942	1	4	0	208	9	0	2	39
fixed	7	2	12	1468580	4	3	3	1	0	874	1	4	0	216	10	0	2	42
fixed	7	3	1	1470354	4	1	1	1	0	487	1	4	0	200	1	0	0	4
fixed	7	3	2	1471565	1	2	2	1	0	1580	1	4	0	208	2	0	0	8
fixed	7	3	3	1473852	6	4	4	1	0	651	1	4	0	224	3	0	0	11
fixed	7	3	4	1474992	2	1	1	1	0	867	1	4	0	200	4	0	0	14
fixed	7	3	5	1476183	5	3	3	1	0	1056	1	4	0	216	5	0	0	17
fixed	7	3	6	1477870	6	4	4	1	0	720	1	4	0	224	6	0	0	20
fixed	7	3	7	1479178	3	1	1	1	0	689	1	4	0	200	7	0	0	23
fixed	7	3	8	1480451	2	3	3	1	0	1027	1	4	0	216	8	0	0	25
fixed	7	3	9	1482426	3	2	2	1	0	680	1	4	0	208	9	0	0	27
fixed	7	3	10	1483538	1	4	4	1	0	648	1	4	0	224	10	0	0	29
fixed	7	3	11	1485213	5	2	2	1	0	778	1	4	0	208	11	0	0	31
fixed	7	3	12	1486677	4	3	3	1	0	1227	1	4	0	216	12	0	0	33
fixed	7	4	1	1489116	4	1	1	1	0	796	1	4	0	200	1	0	0	3
fixed	7	4	2	1490755	1	2	2	1	0	1031	1	4	0	208	2	0	0	5
fixed	7	4	3	1492815	6	4	4	1	0	704	1	4	0	224	3	0	0	8
fixed	7	4	4	1494394	2	1	1	1	0	692	1	4	0	200	4	0	0	10
fixed	7	4	5	1495809	5	3	3	1	0	793	1	4	0	216	5	0	0	12
fixed	7	4	6	1497585	6	4	4	1	0	669	1	4	0	224	6	0	0	14
fixed	7	4	7	1498829	3	1	1	1	0	969	1	4	0	200	7	0	0	16
fixed	7	4	8	1500404	2	3	3	2	0	1246	2	4	0	216	8	0	0	18
fixed	7	4	9	1502500	3	2	2	1	0	1069	1	4	0	208	9	0	0	20
fixed	7	4	10	1503926	1	4	4	1	0	665	1	4	0	224	10	0	0	22
fixed	7	4	11	1505366	5	2	2	1	0	1148	1	4	0	208	11	0	0	23
fixed	7	4	12	1507116	4	3	3	1	0	1234	1	4	0	216	12	0	0	25
fixed	7	5	1	1508999	4	1	1	1	0	818	1	4	0	200	1	0	0	2
fixed	7	5	2	1510409	1	2	2	1	0	1047	1	4	0	208	2	0	0	4
fixed	7	5	3	1511982	6	4	4	1	0	652	1	4	0	224	3	0	0	6
fixed	7	5	4	1513292	2	1	1	1	0	580	1	4	0	200	4	0	0	8
fixed	7	5	5	1514829	5	3	3	1	0	1195	1	4	0	216	5	0	0	9
fixed	7	5	6	1516393	6	4	4	1	0	785	1	4	0	224	6	0	0	11
fixed	7	5	7	1518107	3	1	1	1	0	856	1	4	0	200	7	0	0	13
fixed	7	5	8	1519522	2	3	3	1	0	1004	1	4	0	216	8	0	0	14
fixed	7	5	9	1521225	3	2	2	1	0	789	1	4	0	208	9	0	0	16
fixed	7	5	10	1522946	1	4	4	1	0	700	1	4	0	224	10	0	0	17
fixed	7	5	11	1524351	5	2	2	1	0	904	1	4	0	208	11	0	0	19
fixed	7	5	12	1526179	4	3	3	1	0	931	1	4	0	216	12	0	0	20
fixed	7	6	1	1527912	4	1	1	1	0	809	1	4	0	200	1	0	0	2
fixed	7	6	2	1529623	1	2	2	1	0	1089	1	4	0	208	2	0	0	3
fixed	7	6	3	1531528	6	4	4	1	0	664	1	4	0	224	3	0	0	5
fixed	7	6	4	1532604	2	1	1	1	0	874	1	4	0	200	4	0	0	6
fixed	7	6	5	1534301	5	3	3	1	0	1075	1	4	0	216	5	0	0	8
fixed	7	6	6	1536302	6	4	4	1	0	686	1	4	0	224	6	0	0	9
fixed	7	6	7	1537551	3	1	1	1	0	737	1	4	0	200	7	0	0	10
fixed	7	6	8	1539203	2	3	3	1	0	1123	1	4	0	216	8	0	0	12
fixed	7	6	9	1540912	3	2	2	1	0	842	1	4	0	208	9	0	0	13
fixed	7	6	10	1542102	1	4	4	1	0	624	1	4	0	224	10	0	0	14
fixed	7	6	11	1543743	5	2	2	1	0	955	1	4	0	208	11	0	0	15
fixed	7	6	12	1545501	4	3	3	1	0	752	1	4	0	216	12	0	0	17
fixed	7	7	1	1547042	4	1	1	1	0	791	1	4	0	200	1	0	0	1
fixed	7	7	2	1548845	1	2	2	1	0	906	1	4	0	208	2	0	0	3
fixed	7	7	3	1550077	6	4	4	1	0	615	1	4	0	224	3	0	0	4
fixed	7	7	4	1551614	2	1	1	1	0	653	1	4	0	200	4	0	0	5
fixed	7	7	5	1552887	5	3	3	1	0	751	1	4	0	216	5	0	0	6
fixed	7	7	6	1554007	6	4	4	1	0	768	1	4	0	224	6	0	0	8
fixed	7	7	7	1555123	3	1	1	1	0	1145	1	4	0	200	7	0	0	9
fixed	7	7	8	1557290	2	3	3	1	0	1317	1	4	0	216	8	0	0	10
fixed	7	7	9	1559188	3	2	2	1	0	820	1	4	0	208	9	0	0	11
fixed	7	7	10	1560753	1	4	4	1	0	658	1	4	0	224	10	0	0	12
fixed	7	7	11	1562247	5	2	2	1	0	795	1	4	0	208	11	0	0	13
fixed	7	7	12	1563707	4	3	3	1	0	757	1	4	0	216	12	0	0	14
fixed	7	8	1	1565370	4	1	1	1	0	686	1	4	0	200	1	0	0	1
fixed	7	8	2	1566397	1	2	2	1	0	1091	1	4	0	208	2	0	0	2
fixed	7	8	3	1568472	6	4	4	1	0	635	1	4	0	224	3	0	0	3
fixed	7	8	4	1569485	2	1	1	1	0	768	1	4	0	200	4	0	0	5
fixed	7	8	5	1570981	5	3	3	1	0	825	1	4	0	216	5	0	0	6
fixed	7	8	6	1572731	6	4	4	1	0	663	1	4	0	224	6	0	0	7
fixed	7	8	7	1573916	3	1	1	1	0	629	1	4	0	200	7	0	0	8
fixed	7	8	8	1574960	2	3	3	1	0	1016	1	4	0	216	8	0	0	9
fixed	7	8	9	1576384	3	2	2	2	0	1932	2	4	0	208	9	0	0	10
fixed	7	8	10	1578727	1	4	4	1	0	665	1	4	0	224	10	0	0	11
fixed	7	8	11	1580231	5	2	2	1	0	929	1	4	0	208	11	0	0	12
fixed	7	8	12	1581789	4	3	3	1	0	855	1	4	0	216	12	0	0	13
fixed	7	9	1	1583799	4	1	1	1	0	698	1	4	0	200	1	0	0	1
fixed	7	9	2	1585328	1	2	2	2	0	921	2	4	0	208	2	0	0	2
fixed	7	9	3	1587099	6	4	4	1	0	726	1	4	0	224	3	0	0	3
fixed	7	9	4	1588773	2	1	1	1	0	816	1	4	0	200	4	0	0	4
fixed	7	9	5	1590481	5	3	3	1	0	879	1	4	0	216	5	0	0	5
fixed	7	9	6	1592163	6	4	4	1	0	680	1	4	0	224	6	0	0	6
fixed	7	9	7	1593243	3	1	1	1	0	794	1	4	0	200	7	0	0	7
fixed	7	9	8	1594899	2	3	3	1	0	900	1	4	0	216	8	0	0	8
fixed	7	9	9	1596623	3	2	2	1	0	1011	1	4	0	208	9	0	0	9
fixed	7	9	10	1598491	1	4	4	1	0	972	1	4	0	224	10	0	0	9
fixed	7	9	11	1600327	5	2	2	1	0	798	1	4	0	208	11	0	0	10
fixed	7	9	12	1601953	4	3	3	1	0	817	1	4	0	216	12	0	0	11
fixed	7	10	1	1603347	4	1	1	1	0	694	1	4	0	200	1	0	0	1
fixed	7	10	2	1604447	1	2	2	1	0	999	1	4	0	208	2	0	0	2
fixed	7	10	3	1605938	6	4	4	1	0	680	1	4	0	224	3	0	0	3
fixed	7	10	4	1607101	2	1	1	1	0	663	1	4	0	200	4	0	0	4
fixed	7	10	5	1608487	5	3	3	1	0	1301	1	4	0	216	5	0	0	4
fixed	7	10	6	1610141	6	4	4	1	0	695	1	4	0	224	6	0	0	5
fixed	7	10	7	1611141	3	1	1	2	0	1260	2	4	0	200	7	0	0	6
fixed	7	10	8	1612734	2	3	3	2	0	1064	2	4	0	216	8	0	0	7
fixed	7	10	9	1614363	3	2	2	1	0	1227	1	4	0	208	9	0	0	8
fixed	7	10	10	1616588	1	4	4	1	0	661	1	4	0	224	10	0	0	8
fixed	7	10	11	1618184	5	2	2	1	0	1001	1	4	0	208	11	0	0	9
fixed	7	10	12	1619974	4	3	3	2	0	830	2	4	0	216	12	0	0	10
