type	block	sequ.	trial	time	Pos.	Color	Button	NumRsp	Resp_1	RT_1	R_Code	Resp_2	RT_2	Trigg.	n_hit	n_inc	n_miss	score_%

random	1	1	1	90055	6	1	1	1	0	1055	1	4	0	8	1	0	0	100
random	1	1	2	91585	4	4	4	1	0	775	1	4	0	32	2	0	0	100
random	1	1	3	92716	2	2	2	1	0	782	1	4	0	16	3	0	0	100
random	1	1	4	93860	3	3	3	1	0	590	1	4	0	24	4	0	0	100
random	1	1	5	94934	5	2	2	1	0	992	1	4	0	16	5	0	0	100
random	1	1	6	96570	1	4	4	1	0	668	1	4	0	32	6	0	0	100
random	1	1	7	97538	6	1	1	1	0	683	1	4	0	8	7	0	0	100
random	1	1	8	99233	2	3	3	1	0	1283	1	4	0	24	8	0	0	100
random	1	1	9	100882	4	2	2	1	0	756	1	4	0	16	9	0	0	100
random	1	1	10	102099	1	1	1	1	0	497	1	4	0	8	10	0	0	100
random	1	1	11	103518	5	4	4	1	0	389	1	4	0	32	11	0	0	100
random	1	1	12	104191	3	3	3	1	0	1160	1	4	0	24	12	0	0	100
random	1	1	13	106647	5	2	2	1	0	864	1	4	0	16	13	0	0	100
random	1	1	14	108268	1	4	4	1	0	708	1	4	0	32	14	0	0	100
random	1	1	15	109518	3	1	1	1	0	695	1	4	0	8	15	0	0	100
random	1	1	16	110845	4	3	3	1	0	879	1	4	0	24	16	0	0	100
random	1	1	17	112408	6	4	4	1	0	725	1	4	0	32	17	0	0	100
random	1	1	18	113808	2	1	1	1	0	553	1	4	0	8	18	0	0	100
random	1	1	19	114928	5	3	3	1	0	826	1	4	0	24	19	0	0	100
random	1	1	20	116324	2	2	2	1	0	543	1	4	0	16	20	0	0	100
random	1	1	21	117796	3	3	3	1	0	768	1	4	0	24	21	0	0	100
random	1	1	22	119548	6	1	1	1	0	702	1	4	0	8	22	0	0	100
random	1	1	23	120622	4	2	2	1	0	1625	1	4	0	16	23	0	0	100
random	1	1	24	122850	1	4	4	1	0	571	1	4	0	32	24	0	0	100
random	1	1	25	124257	4	3	3	2	0	1078	2	4	0	24	25	0	0	100
random	1	1	26	126355	2	1	1	1	0	702	1	4	0	8	26	0	0	100
random	1	1	27	127907	5	2	2	1	0	1156	1	4	0	16	27	0	0	100
random	1	1	28	129975	6	4	4	1	0	620	1	4	0	32	28	0	0	100
random	1	1	29	130985	1	3	3	2	0	1098	2	4	0	24	29	0	0	100
random	1	1	30	132467	5	2	2	1	0	1123	1	4	0	16	30	0	0	100
random	1	1	31	134449	2	1	1	1	0	615	1	4	0	8	31	0	0	100
random	1	1	32	135461	3	3	3	1	0	876	1	4	0	24	32	0	0	100
random	1	1	33	136923	6	4	4	1	0	710	1	4	0	32	33	0	0	100
random	1	1	34	138112	4	2	2	1	0	716	1	4	0	16	34	0	0	100
random	1	1	35	139799	3	4	4	1	0	756	1	4	0	32	35	0	0	100
random	1	1	36	140889	1	1	1	1	0	734	1	4	0	8	36	0	0	100
random	1	1	37	142402	3	4	4	1	0	694	1	4	0	32	37	0	0	100
random	1	1	38	144042	5	3	3	1	0	1121	1	4	0	24	38	0	0	100
random	1	1	39	145824	6	1	1	1	0	790	1	4	0	8	39	0	0	100
random	1	1	40	147343	1	2	2	1	0	453	1	4	0	16	40	0	0	100
random	1	1	41	148099	2	3	3	1	0	741	1	4	0	24	41	0	0	100
random	1	1	42	149343	4	4	4	1	0	512	1	4	0	32	42	0	0	100
random	1	1	43	150557	1	2	2	1	0	1133	1	4	0	16	43	0	0	100
random	1	1	44	152384	6	3	3	1	0	511	1	4	0	24	44	0	0	100
random	1	1	45	153751	3	1	1	1	0	781	1	4	0	8	45	0	0	100
random	1	1	46	155508	4	4	4	1	0	763	1	4	0	32	46	0	0	100
random	1	1	47	157074	2	2	2	1	0	881	1	4	0	16	47	0	0	100
random	1	1	48	158710	5	1	1	1	0	755	1	4	0	8	48	0	0	100
random	1	1	49	160747	2	3	0	1	2	0	3	4	0	24	48	0	1	98
random	1	1	50	163763	3	1	1	1	0	1550	1	4	0	8	49	0	1	98
random	1	1	51	165814	1	4	4	1	0	718	1	4	0	32	50	0	1	98
random	1	1	52	166953	5	3	3	1	0	966	1	4	0	24	51	0	1	98
random	1	1	53	168660	3	2	2	1	0	470	1	4	0	16	52	0	1	98
random	1	1	54	169646	6	4	4	1	0	860	1	4	0	32	53	0	1	98
random	1	1	55	171391	4	2	2	1	0	842	1	4	0	16	54	0	1	98
random	1	1	56	172620	1	1	1	1	0	1102	1	4	0	8	55	0	1	98
random	1	1	57	174229	5	4	4	1	0	762	1	4	0	32	56	0	1	98
random	1	1	58	175623	2	1	1	1	0	735	1	4	0	8	57	0	1	98
random	1	1	59	176852	6	2	2	1	0	907	1	4	0	16	58	0	1	98
random	1	1	60	178122	4	3	3	1	0	733	1	4	0	24	59	0	1	98
random	1	1	61	179543	1	2	2	1	0	961	1	4	0	16	60	0	1	98
random	1	1	62	180890	6	4	4	1	0	656	1	4	0	32	61	0	1	98
random	1	1	63	182487	4	1	1	1	0	708	1	4	0	8	62	0	1	98
random	1	1	64	183831	2	2	2	1	0	988	1	4	0	16	63	0	1	98
random	1	1	65	185161	4	3	3	1	0	875	1	4	0	24	64	0	1	98
random	1	1	66	186966	3	1	1	1	0	831	1	4	0	8	65	0	1	98
random	1	1	67	188450	1	3	3	1	0	952	1	4	0	24	66	0	1	99
random	1	1	68	189796	5	4	4	1	0	751	1	4	0	32	67	0	1	99
random	1	1	69	191330	2	2	2	1	0	830	1	4	0	16	68	0	1	99
random	1	1	70	192804	3	1	1	1	0	768	1	4	0	8	69	0	1	99
random	1	1	71	193960	5	4	4	1	0	742	1	4	0	32	70	0	1	99
random	1	1	72	195452	6	3	3	1	0	959	1	4	0	24	71	0	1	99
random	1	1	73	197638	2	1	1	1	0	746	1	4	0	8	72	0	1	99
random	1	1	74	198970	5	3	3	1	0	826	1	4	0	24	73	0	1	99
random	1	1	75	200214	1	4	4	1	0	757	1	4	0	32	74	0	1	99
random	1	1	76	201966	6	2	2	1	0	811	1	4	0	16	75	0	1	99
random	1	1	77	203536	2	1	1	1	0	633	1	4	0	8	76	0	1	99
random	1	1	78	205032	4	4	4	1	0	682	1	4	0	32	77	0	1	99
random	1	1	79	206371	3	2	2	1	0	681	1	4	0	16	78	0	1	99
random	1	1	80	207697	4	3	3	1	0	848	1	4	0	24	79	0	1	99
random	1	1	81	208992	1	4	4	1	0	706	1	4	0	32	80	0	1	99
random	1	1	82	210420	5	1	1	1	0	749	1	4	0	8	81	0	1	99
random	1	1	83	211537	3	2	2	1	0	862	1	4	0	16	82	0	1	99
random	1	1	84	212770	6	3	3	1	0	770	1	4	0	24	83	0	1	99
random	1	1	85	214262	3	2	2	1	0	970	1	4	0	16	84	0	1	99
random	1	1	86	216210	1	3	3	1	0	848	1	4	0	24	85	0	1	99
random	1	1	87	218074	4	4	4	1	0	801	1	4	0	32	86	0	1	99
random	1	1	88	219516	2	1	1	1	0	876	1	4	0	8	87	0	1	99
random	1	1	89	221331	6	4	4	1	0	743	1	4	0	32	88	0	1	99
random	1	1	90	222533	3	3	3	1	0	1212	1	4	0	24	89	0	1	99
random	1	1	91	224518	5	4	4	1	0	664	1	4	0	32	90	0	1	99
random	1	1	92	225506	1	2	2	1	0	774	1	4	0	16	91	0	1	99
random	1	1	93	227067	5	1	1	1	0	492	1	4	0	8	92	0	1	99
random	1	1	94	228348	4	3	3	1	0	1606	1	4	0	24	93	0	1	99
random	1	1	95	230704	6	1	1	1	0	770	1	4	0	8	94	0	1	99
random	1	1	96	232358	2	2	2	1	0	956	1	4	0	16	95	0	1	99
random	1	1	97	234094	4	3	3	1	0	850	1	4	0	24	96	0	1	99
random	1	1	98	235955	3	2	2	1	0	884	1	4	0	16	97	0	1	99
random	1	1	99	237219	6	3	3	1	0	974	1	4	0	24	98	0	1	99
random	1	1	100	239140	1	4	4	1	0	589	1	4	0	32	99	0	1	99
random	1	1	101	240134	4	1	1	1	0	739	1	4	0	8	100	0	1	99
random	1	1	102	241796	5	2	2	1	0	916	1	4	0	16	101	0	1	99
random	1	1	103	243652	2	4	4	1	0	718	1	4	0	32	102	0	1	99
random	1	1	104	245022	3	1	1	1	0	803	1	4	0	8	103	0	1	99
random	1	1	105	246184	1	3	3	1	0	995	1	4	0	24	104	0	1	99
random	1	1	106	247538	2	2	2	1	0	697	1	4	0	16	105	0	1	99
random	1	1	107	248967	5	4	4	2	0	956	2	4	0	32	106	0	1	99
random	1	1	108	250657	6	1	1	1	0	749	1	4	0	8	107	0	1	99
random	1	1	109	252238	5	4	4	1	0	874	1	4	0	32	108	0	1	99
random	1	1	110	253677	6	3	3	1	0	917	1	4	0	24	109	0	1	99
random	1	1	111	255362	2	2	2	1	0	709	1	4	0	16	110	0	1	99
random	1	1	112	257095	3	1	1	1	0	781	1	4	0	8	111	0	1	99
random	1	1	113	258826	1	2	2	1	0	1011	1	4	0	16	112	0	1	99
random	1	1	114	260465	2	3	3	1	0	926	1	4	0	24	113	0	1	99
random	1	1	115	262136	3	1	1	1	0	711	1	4	0	8	114	0	1	99
random	1	1	116	263535	4	4	4	1	0	659	1	4	0	32	115	0	1	99
random	1	1	117	264721	6	1	1	1	0	729	1	4	0	8	116	0	1	99
random	1	1	118	265950	5	3	3	1	0	838	1	4	0	24	117	0	1	99
random	1	1	119	267678	1	4	4	1	0	628	1	4	0	32	118	0	1	99
random	1	1	120	268919	4	2	2	1	0	760	1	4	0	16	119	0	1	99
fixed	2	1	1	271116	4	1	1	1	0	722	1	4	0	40	1	0	0	100
fixed	2	1	2	272377	1	2	2	1	0	757	1	4	0	48	2	0	0	100
fixed	2	1	3	274062	6	4	4	1	0	638	1	4	0	64	3	0	0	100
fixed	2	1	4	275685	2	1	1	1	0	737	1	4	0	40	4	0	0	100
fixed	2	1	5	277464	5	3	3	1	0	829	1	4	0	56	5	0	0	100
fixed	2	1	6	279262	6	4	4	1	0	673	1	4	0	64	6	0	0	100
fixed	2	1	7	280605	3	1	1	1	0	921	1	4	0	40	7	0	0	100
fixed	2	1	8	282233	2	3	3	1	0	1020	1	4	0	56	8	0	0	100
fixed	2	1	9	283667	3	2	2	1	0	559	1	4	0	48	9	0	0	100
fixed	2	1	10	285078	1	4	4	1	0	747	1	4	0	64	10	0	0	100
fixed	2	1	11	286736	5	2	2	1	0	837	1	4	0	48	11	0	0	100
fixed	2	1	12	288151	4	3	3	1	0	1081	1	4	0	56	12	0	0	100
fixed	2	2	1	290215	4	1	1	1	0	785	1	4	0	40	13	0	0	100
fixed	2	2	2	291940	1	2	2	1	0	944	1	4	0	48	14	0	0	100
fixed	2	2	3	293279	6	4	4	1	0	736	1	4	0	64	15	0	0	100
fixed	2	2	4	294455	2	1	1	1	0	758	1	4	0	40	16	0	0	100
fixed	2	2	5	296167	5	3	3	1	0	733	1	4	0	56	17	0	0	100
fixed	2	2	6	297401	6	4	4	1	0	713	1	4	0	64	18	0	0	100
fixed	2	2	7	298890	3	1	1	1	0	602	1	4	0	40	19	0	0	100
fixed	2	2	8	300079	2	3	3	1	0	864	1	4	0	56	20	0	0	100
fixed	2	2	9	301450	3	2	2	1	0	598	1	4	0	48	21	0	0	100
fixed	2	2	10	302651	1	4	4	1	0	779	1	4	0	64	22	0	0	100
fixed	2	2	11	304201	5	2	2	1	0	953	1	4	0	48	23	0	0	100
fixed	2	2	12	306091	4	3	3	1	0	945	1	4	0	56	24	0	0	100
fixed	2	3	1	307975	4	1	1	1	0	721	1	4	0	40	25	0	0	100
fixed	2	3	2	309473	1	2	2	1	0	818	1	4	0	48	26	0	0	100
fixed	2	3	3	310633	6	4	4	1	0	697	1	4	0	64	27	0	0	100
fixed	2	3	4	312098	2	1	1	1	0	707	1	4	0	40	28	0	0	100
fixed	2	3	5	313141	5	3	3	1	0	798	1	4	0	56	29	0	0	100
fixed	2	3	6	314967	6	4	4	1	0	713	1	4	0	64	30	0	0	100
fixed	2	3	7	316147	3	1	1	1	0	919	1	4	0	40	31	0	0	100
fixed	2	3	8	317772	2	3	3	1	0	1034	1	4	0	56	32	0	0	100
fixed	2	3	9	319548	3	2	2	1	0	551	1	4	0	48	33	0	0	100
fixed	2	3	10	320580	1	4	4	1	0	667	1	4	0	64	34	0	0	100
fixed	2	3	11	322023	5	2	2	1	0	791	1	4	0	48	35	0	0	100
fixed	2	3	12	323673	4	3	3	1	0	1065	1	4	0	56	36	0	0	100
fixed	2	4	1	325852	4	1	1	1	0	708	1	4	0	40	37	0	0	100
fixed	2	4	2	327533	1	2	2	1	0	997	1	4	0	48	38	0	0	100
fixed	2	4	3	329079	6	4	4	1	0	595	1	4	0	64	39	0	0	100
fixed	2	4	4	330478	2	1	1	1	0	672	1	4	0	40	40	0	0	100
fixed	2	4	5	331775	5	3	3	1	0	865	1	4	0	56	41	0	0	100
fixed	2	4	6	333281	6	4	4	1	0	682	1	4	0	64	42	0	0	100
fixed	2	4	7	334681	3	1	1	1	0	622	1	4	0	40	43	0	0	100
fixed	2	4	8	335773	2	3	3	1	0	968	1	4	0	56	44	0	0	100
fixed	2	4	9	337016	3	2	2	1	0	683	1	4	0	48	45	0	0	100
fixed	2	4	10	338567	1	4	4	1	0	729	1	4	0	64	46	0	0	100
fixed	2	4	11	340087	5	2	2	1	0	801	1	4	0	48	47	0	0	100
fixed	2	4	12	341842	4	3	3	1	0	1143	1	4	0	56	48	0	0	100
fixed	2	5	1	344030	4	1	1	1	0	714	1	4	0	40	49	0	0	100
fixed	2	5	2	345238	1	2	2	1	0	1159	1	4	0	48	50	0	0	100
fixed	2	5	3	347082	6	4	4	1	0	657	1	4	0	64	51	0	0	100
fixed	2	5	4	348105	2	1	1	1	0	781	1	4	0	40	52	0	0	100
fixed	2	5	5	349387	5	3	3	1	0	775	1	4	0	56	53	0	0	100
fixed	2	5	6	351179	6	4	4	1	0	675	1	4	0	64	54	0	0	100
fixed	2	5	7	352612	3	1	1	1	0	679	1	4	0	40	55	0	0	100
fixed	2	5	8	354204	2	3	3	1	0	867	1	4	0	56	56	0	0	100
fixed	2	5	9	355637	3	2	2	1	0	791	1	4	0	48	57	0	0	100
fixed	2	5	10	357388	1	4	4	1	0	605	1	4	0	64	58	0	0	100
fixed	2	5	11	358507	5	2	2	1	0	757	1	4	0	48	59	0	0	100
fixed	2	5	12	360146	4	3	3	2	0	1920	2	4	0	56	60	0	0	100
fixed	2	6	1	363227	4	1	1	1	0	917	1	4	0	40	61	0	0	100
fixed	2	6	2	364445	1	2	2	1	0	945	1	4	0	48	62	0	0	100
fixed	2	6	3	366156	6	4	4	1	0	1169	1	4	0	64	63	0	0	100
fixed	2	6	4	368024	2	1	1	1	0	602	1	4	0	40	64	0	0	100
fixed	2	6	5	369179	5	3	3	1	0	889	1	4	0	56	65	0	0	100
fixed	2	6	6	371087	6	4	4	1	0	696	1	4	0	64	66	0	0	100
fixed	2	6	7	372714	3	1	1	1	0	788	1	4	0	40	67	0	0	100
fixed	2	6	8	374439	2	3	3	1	0	746	1	4	0	56	68	0	0	100
fixed	2	6	9	375626	3	2	2	1	0	696	1	4	0	48	69	0	0	100
fixed	2	6	10	377221	1	4	4	1	0	661	1	4	0	64	70	0	0	100
fixed	2	6	11	378239	5	2	2	1	0	753	1	4	0	48	71	0	0	100
fixed	2	6	12	379694	4	3	3	1	0	924	1	4	0	56	72	0	0	100
fixed	2	7	1	381840	4	1	1	1	0	744	1	4	0	40	73	0	0	100
fixed	2	7	2	383002	1	2	2	1	0	864	1	4	0	48	74	0	0	100
fixed	2	7	3	384827	6	4	4	1	0	706	1	4	0	64	75	0	0	100
fixed	2	7	4	385880	2	1	1	1	0	829	1	4	0	40	76	0	0	100
fixed	2	7	5	387092	5	3	3	1	0	994	1	4	0	56	77	0	0	100
fixed	2	7	6	388880	6	4	4	1	0	687	1	4	0	64	78	0	0	100
fixed	2	7	7	390133	3	1	1	1	0	706	1	4	0	40	79	0	0	100
fixed	2	7	8	391373	2	3	3	1	0	925	1	4	0	56	80	0	0	100
fixed	2	7	9	393040	3	2	2	1	0	606	1	4	0	48	81	0	0	100
fixed	2	7	10	394373	1	4	4	1	0	654	1	4	0	64	82	0	0	100
fixed	2	7	11	395507	5	2	2	1	0	734	1	4	0	48	83	0	0	100
fixed	2	7	12	397087	4	3	3	1	0	931	1	4	0	56	84	0	0	100
fixed	2	8	1	398698	4	1	1	1	0	638	1	4	0	40	85	0	0	100
fixed	2	8	2	399774	1	2	2	1	0	953	1	4	0	48	86	0	0	100
fixed	2	8	3	401111	6	4	4	1	0	737	1	4	0	64	87	0	0	100
fixed	2	8	4	402323	2	1	1	1	0	749	1	4	0	40	88	0	0	100
fixed	2	8	5	403387	5	3	3	1	0	1024	1	4	0	56	89	0	0	100
fixed	2	8	6	404766	6	4	4	1	0	782	1	4	0	64	90	0	0	100
fixed	2	8	7	406025	3	1	1	1	0	753	1	4	0	40	91	0	0	100
fixed	2	8	8	407299	2	3	3	1	0	898	1	4	0	56	92	0	0	100
fixed	2	8	9	408872	3	2	2	1	0	728	1	4	0	48	93	0	0	100
fixed	2	8	10	409997	1	4	4	1	0	656	1	4	0	64	94	0	0	100
fixed	2	8	11	411584	5	2	2	1	0	877	1	4	0	48	95	0	0	100
fixed	2	8	12	413390	4	3	3	1	0	784	1	4	0	56	96	0	0	100
fixed	2	9	1	415188	4	1	1	1	0	708	1	4	0	40	97	0	0	100
fixed	2	9	2	416562	1	2	2	1	0	1218	1	4	0	48	98	0	0	100
fixed	2	9	3	418399	6	4	4	1	0	732	1	4	0	64	99	0	0	100
fixed	2	9	4	419686	2	1	1	1	0	654	1	4	0	40	100	0	0	100
fixed	2	9	5	421161	5	3	3	1	0	855	1	4	0	56	101	0	0	100
fixed	2	9	6	422964	6	4	4	1	0	651	1	4	0	64	102	0	0	100
fixed	2	9	7	424332	3	1	1	1	0	681	1	4	0	40	103	0	0	100
fixed	2	9	8	425624	2	3	3	1	0	1178	1	4	0	56	104	0	0	100
fixed	2	9	9	427503	3	2	2	1	0	634	1	4	0	48	105	0	0	100
fixed	2	9	10	428756	1	4	4	1	0	645	1	4	0	64	106	0	0	100
fixed	2	9	11	429722	5	2	2	1	0	820	1	4	0	48	107	0	0	100
fixed	2	9	12	431248	4	3	3	1	0	868	1	4	0	56	108	0	0	100
fixed	2	10	1	432748	4	1	1	1	0	708	1	4	0	40	109	0	0	100
fixed	2	10	2	433990	1	2	2	1	0	1304	1	4	0	48	110	0	0	100
fixed	2	10	3	435785	6	4	4	1	0	676	1	4	0	64	111	0	0	100
fixed	2	10	4	437016	2	1	1	1	0	688	1	4	0	40	112	0	0	100
fixed	2	10	5	438706	5	3	3	1	0	792	1	4	0	56	113	0	0	100
fixed	2	10	6	439924	6	4	4	1	0	669	1	4	0	64	114	0	0	100
fixed	2	10	7	441531	3	1	1	1	0	817	1	4	0	40	115	0	0	100
fixed	2	10	8	442870	2	3	3	1	0	831	1	4	0	56	116	0	0	100
fixed	2	10	9	444152	3	2	2	1	0	658	1	4	0	48	117	0	0	100
fixed	2	10	10	445231	1	4	4	1	0	764	1	4	0	64	118	0	0	100
fixed	2	10	11	446609	5	2	2	1	0	930	1	4	0	48	119	0	0	100
fixed	2	10	12	447855	4	3	3	1	0	797	1	4	0	56	120	0	0	100
fixed	3	1	1	449654	4	1	1	1	0	552	1	4	0	72	1	0	0	100
fixed	3	1	2	451140	1	2	2	1	0	817	1	4	0	80	2	0	0	100
fixed	3	1	3	452420	6	4	4	1	0	651	1	4	0	96	3	0	0	100
fixed	3	1	4	453983	2	1	1	1	0	705	1	4	0	72	4	0	0	100
fixed	3	1	5	455657	5	3	3	1	0	698	1	4	0	88	5	0	0	100
fixed	3	1	6	456992	6	4	4	1	0	690	1	4	0	96	6	0	0	100
fixed	3	1	7	458624	3	1	1	1	0	661	1	4	0	72	7	0	0	100
fixed	3	1	8	460299	2	3	3	1	0	837	1	4	0	88	8	0	0	100
fixed	3	1	9	462036	3	2	2	1	0	604	1	4	0	80	9	0	0	100
fixed	3	1	10	463438	1	4	4	1	0	736	1	4	0	96	10	0	0	100
fixed	3	1	11	464897	5	2	2	1	0	907	1	4	0	80	11	0	0	100
fixed	3	1	12	466621	4	3	3	1	0	674	1	4	0	88	12	0	0	100
fixed	3	2	1	467934	4	1	1	1	0	650	1	4	0	72	13	0	0	100
fixed	3	2	2	469150	1	2	2	1	0	855	1	4	0	80	14	0	0	100
fixed	3	2	3	471001	6	4	4	1	0	648	1	4	0	96	15	0	0	100
fixed	3	2	4	472212	2	1	1	1	0	765	1	4	0	72	16	0	0	100
fixed	3	2	5	473992	5	3	3	1	0	818	1	4	0	88	17	0	0	100
fixed	3	2	6	475245	6	4	4	1	0	677	1	4	0	96	18	0	0	100
fixed	3	2	7	476358	3	1	1	1	0	605	1	4	0	72	19	0	0	100
fixed	3	2	8	477792	2	3	3	1	0	873	1	4	0	88	20	0	0	100
fixed	3	2	9	479450	3	2	2	1	0	674	1	4	0	80	21	0	0	100
fixed	3	2	10	480734	1	4	4	1	0	676	1	4	0	96	22	0	0	100
fixed	3	2	11	481994	5	2	2	1	0	895	1	4	0	80	23	0	0	100
fixed	3	2	12	483195	4	3	3	1	0	796	1	4	0	88	24	0	0	100
fixed	3	3	1	485060	4	1	1	1	0	709	1	4	0	72	25	0	0	100
fixed	3	3	2	486669	1	2	2	1	0	889	1	4	0	80	26	0	0	100
fixed	3	3	3	488049	6	4	4	1	0	614	1	4	0	96	27	0	0	100
fixed	3	3	4	488984	2	1	1	1	0	838	1	4	0	72	28	0	0	100
fixed	3	3	5	490130	5	3	3	1	0	958	1	4	0	88	29	0	0	100
fixed	3	3	6	491877	6	4	4	1	0	652	1	4	0	96	30	0	0	100
fixed	3	3	7	493493	3	1	1	1	0	1008	1	4	0	72	31	0	0	100
fixed	3	3	8	494926	2	3	3	1	0	827	1	4	0	88	32	0	0	100
fixed	3	3	9	496200	3	2	2	1	0	701	1	4	0	80	33	0	0	100
fixed	3	3	10	497284	1	4	4	1	0	663	1	4	0	96	34	0	0	100
fixed	3	3	11	498251	5	2	2	1	0	886	1	4	0	80	35	0	0	100
fixed	3	3	12	499445	4	3	3	1	0	835	1	4	0	88	36	0	0	100
fixed	3	4	1	501032	4	1	1	1	0	1016	1	4	0	72	37	0	0	100
fixed	3	4	2	502946	1	2	2	1	0	831	1	4	0	80	38	0	0	100
fixed	3	4	3	504777	6	4	4	1	0	690	1	4	0	96	39	0	0	100
fixed	3	4	4	505920	2	1	1	1	0	737	1	4	0	72	40	0	0	100
fixed	3	4	5	507021	5	3	3	1	0	835	1	4	0	88	41	0	0	100
fixed	3	4	6	508642	6	4	4	1	0	606	1	4	0	96	42	0	0	100
fixed	3	4	7	510250	3	1	1	1	0	698	1	4	0	72	43	0	0	100
fixed	3	4	8	511508	2	3	3	1	0	756	1	4	0	88	44	0	0	100
fixed	3	4	9	512956	3	2	2	1	0	752	1	4	0	80	45	0	0	100
fixed	3	4	10	514665	1	4	4	1	0	719	1	4	0	96	46	0	0	100
fixed	3	4	11	516226	5	2	2	1	0	749	1	4	0	80	47	0	0	100
fixed	3	4	12	517860	4	3	3	1	0	759	1	4	0	88	48	0	0	100
fixed	3	5	1	519327	4	1	1	1	0	705	1	4	0	72	49	0	0	100
fixed	3	5	2	520996	1	2	2	1	0	786	1	4	0	80	50	0	0	100
fixed	3	5	3	522442	6	4	4	1	0	638	1	4	0	96	51	0	0	100
fixed	3	5	4	524000	2	1	1	1	0	716	1	4	0	72	52	0	0	100
fixed	3	5	5	525072	5	3	3	1	0	806	1	4	0	88	53	0	0	100
fixed	3	5	6	526470	6	4	4	1	0	651	1	4	0	96	54	0	0	100
fixed	3	5	7	527722	3	1	1	1	0	782	1	4	0	72	55	0	0	100
fixed	3	5	8	529149	2	3	3	1	0	889	1	4	0	88	56	0	0	100
fixed	3	5	9	530728	3	2	2	1	0	567	1	4	0	80	57	0	0	100
fixed	3	5	10	531827	1	4	4	1	0	688	1	4	0	96	58	0	0	100
fixed	3	5	11	533116	5	2	2	1	0	769	1	4	0	80	59	0	0	100
fixed	3	5	12	534819	4	3	3	1	0	841	1	4	0	88	60	0	0	100
fixed	3	6	1	536620	4	1	1	1	0	1061	1	4	0	72	61	0	0	100
fixed	3	6	2	538210	1	2	2	1	0	906	1	4	0	80	62	0	0	100
fixed	3	6	3	539715	6	4	4	1	0	594	1	4	0	96	63	0	0	100
fixed	3	6	4	540756	2	1	1	1	0	774	1	4	0	72	64	0	0	100
fixed	3	6	5	541952	5	3	3	1	0	923	1	4	0	88	65	0	0	100
fixed	3	6	6	543383	6	4	4	1	0	655	1	4	0	96	66	0	0	100
fixed	3	6	7	544548	3	1	1	1	0	853	1	4	0	72	67	0	0	100
fixed	3	6	8	545886	2	3	3	1	0	789	1	4	0	88	68	0	0	100
fixed	3	6	9	547286	3	2	2	1	0	609	1	4	0	80	69	0	0	100
fixed	3	6	10	548727	1	4	4	1	0	676	1	4	0	96	70	0	0	100
fixed	3	6	11	549718	5	2	2	1	0	1002	1	4	0	80	71	0	0	100
fixed	3	6	12	551478	4	3	3	1	0	792	1	4	0	88	72	0	0	100
fixed	3	7	1	552960	4	1	1	1	0	697	1	4	0	72	73	0	0	100
fixed	3	7	2	554511	1	2	2	1	0	831	1	4	0	80	74	0	0	100
fixed	3	7	3	555742	6	4	4	1	0	699	1	4	0	96	75	0	0	100
fixed	3	7	4	557051	2	1	1	1	0	1139	1	4	0	72	76	0	0	100
fixed	3	7	5	558676	5	3	3	1	0	783	1	4	0	88	77	0	0	100
fixed	3	7	6	560132	6	4	4	1	0	665	1	4	0	96	78	0	0	100
fixed	3	7	7	561227	3	1	1	1	0	691	1	4	0	72	79	0	0	100
fixed	3	7	8	562466	2	3	3	1	0	846	1	4	0	88	80	0	0	100
fixed	3	7	9	563762	3	2	2	1	0	776	1	4	0	80	81	0	0	100
fixed	3	7	10	565101	1	4	4	1	0	703	1	4	0	96	82	0	0	100
fixed	3	7	11	566549	5	2	2	1	0	729	1	4	0	80	83	0	0	100
fixed	3	7	12	568072	4	3	3	1	0	641	1	4	0	88	84	0	0	100
fixed	3	8	1	569367	4	1	1	1	0	682	1	4	0	72	85	0	0	100
fixed	3	8	2	570906	1	2	2	1	0	1377	1	4	0	80	86	0	0	100
fixed	3	8	3	573203	6	4	4	1	0	768	1	4	0	96	87	0	0	100
fixed	3	8	4	574685	2	1	1	1	0	753	1	4	0	72	88	0	0	100
fixed	3	8	5	576297	5	3	3	1	0	741	1	4	0	88	89	0	0	100
fixed	3	8	6	577505	6	4	4	1	0	713	1	4	0	96	90	0	0	100
fixed	3	8	7	579118	3	1	1	1	0	693	1	4	0	72	91	0	0	100
fixed	3	8	8	580110	2	3	3	1	0	867	1	4	0	88	92	0	0	100
fixed	3	8	9	581388	3	2	2	1	0	709	1	4	0	80	93	0	0	100
fixed	3	8	10	583033	1	4	4	1	0	711	1	4	0	96	94	0	0	100
fixed	3	8	11	584465	5	2	2	1	0	843	1	4	0	80	95	0	0	100
fixed	3	8	12	585788	4	3	3	1	0	858	1	4	0	88	96	0	0	100
fixed	3	9	1	587628	4	1	1	1	0	676	1	4	0	72	97	0	0	100
fixed	3	9	2	589342	1	2	2	1	0	996	1	4	0	80	98	0	0	100
fixed	3	9	3	590695	6	4	4	1	0	691	1	4	0	96	99	0	0	100
fixed	3	9	4	592161	2	1	1	1	0	573	1	4	0	72	100	0	0	100
fixed	3	9	5	593568	5	3	3	1	0	745	1	4	0	88	101	0	0	100
fixed	3	9	6	594957	6	4	4	1	0	686	1	4	0	96	102	0	0	100
fixed	3	9	7	596641	3	1	1	1	0	695	1	4	0	72	103	0	0	100
fixed	3	9	8	597787	2	3	3	1	0	830	1	4	0	88	104	0	0	100
fixed	3	9	9	599602	3	2	2	1	0	698	1	4	0	80	105	0	0	100
fixed	3	9	10	601105	1	4	4	1	0	666	1	4	0	96	106	0	0	100
fixed	3	9	11	602273	5	2	2	1	0	672	1	4	0	80	107	0	0	100
fixed	3	9	12	603472	4	3	3	1	0	893	1	4	0	88	108	0	0	100
fixed	3	10	1	605639	4	1	1	1	0	762	1	4	0	72	109	0	0	100
fixed	3	10	2	607273	1	2	2	1	0	708	1	4	0	80	110	0	0	100
fixed	3	10	3	608873	6	4	4	1	0	617	1	4	0	96	111	0	0	100
fixed	3	10	4	609899	2	1	1	1	0	781	1	4	0	72	112	0	0	100
fixed	3	10	5	611685	5	3	3	1	0	801	1	4	0	88	113	0	0	100
fixed	3	10	6	613442	6	4	4	1	0	671	1	4	0	96	114	0	0	100
fixed	3	10	7	614480	3	1	1	1	0	683	1	4	0	72	115	0	0	100
fixed	3	10	8	616113	2	3	3	1	0	862	1	4	0	88	116	0	0	100
fixed	3	10	9	617725	3	2	2	1	0	730	1	4	0	80	117	0	0	100
fixed	3	10	10	618895	1	4	4	1	0	664	1	4	0	96	118	0	0	100
fixed	3	10	11	620042	5	2	2	1	0	904	1	4	0	80	119	0	0	100
fixed	3	10	12	621866	4	3	3	1	0	722	1	4	0	88	120	0	0	100
fixed	4	1	1	709408	4	1	1	1	0	1214	1	4	0	104	1	0	0	100
fixed	4	1	2	711602	1	2	2	1	0	858	1	4	0	112	2	0	0	100
fixed	4	1	3	712971	6	4	4	1	0	616	1	4	0	128	3	0	0	100
fixed	4	1	4	714180	2	1	1	1	0	781	1	4	0	104	4	0	0	100
fixed	4	1	5	715570	5	3	3	1	0	1002	1	4	0	120	5	0	0	100
fixed	4	1	6	717566	6	4	4	1	0	741	1	4	0	128	6	0	0	100
fixed	4	1	7	718611	3	1	1	1	0	873	1	4	0	104	7	0	0	100
fixed	4	1	8	720235	2	3	3	1	0	772	1	4	0	120	8	0	0	100
fixed	4	1	9	721906	3	2	2	1	0	445	1	4	0	112	9	0	0	100
fixed	4	1	10	722993	1	4	4	1	0	607	1	4	0	128	10	0	0	100
fixed	4	1	11	724082	5	2	2	1	0	785	1	4	0	112	11	0	0	100
fixed	4	1	12	725886	4	3	3	1	0	837	1	4	0	120	12	0	0	100
fixed	4	2	1	728006	4	1	1	1	0	883	1	4	0	104	13	0	0	100
fixed	4	2	2	729312	1	2	2	1	0	1027	1	4	0	112	14	0	0	100
fixed	4	2	3	730880	6	4	4	1	0	673	1	4	0	128	15	0	0	100
fixed	4	2	4	732078	2	1	1	1	0	751	1	4	0	104	16	0	0	100
fixed	4	2	5	733158	5	3	3	1	0	889	1	4	0	120	17	0	0	100
fixed	4	2	6	734659	6	4	4	1	0	665	1	4	0	128	18	0	0	100
fixed	4	2	7	735609	3	1	1	1	0	881	1	4	0	104	19	0	0	100
fixed	4	2	8	737442	2	3	3	1	0	732	1	4	0	120	20	0	0	100
fixed	4	2	9	738692	3	2	2	1	0	606	1	4	0	112	21	0	0	100
fixed	4	2	10	739622	1	4	4	1	0	639	1	4	0	128	22	0	0	100
fixed	4	2	11	741027	5	2	2	1	0	843	1	4	0	112	23	0	0	100
fixed	4	2	12	742803	4	3	3	1	0	768	1	4	0	120	24	0	0	100
fixed	4	3	1	744830	4	1	1	1	0	754	1	4	0	104	25	0	0	100
fixed	4	3	2	746197	1	2	2	1	0	737	1	4	0	112	26	0	0	100
fixed	4	3	3	747646	6	4	4	1	0	635	1	4	0	128	27	0	0	100
fixed	4	3	4	748577	2	1	1	1	0	980	1	4	0	104	28	0	0	100
fixed	4	3	5	750375	5	3	3	1	0	1047	1	4	0	120	29	0	0	100
fixed	4	3	6	751784	6	4	4	1	0	748	1	4	0	128	30	0	0	100
fixed	4	3	7	753106	3	1	1	1	0	780	1	4	0	104	31	0	0	100
fixed	4	3	8	754917	2	3	3	1	0	943	1	4	0	120	32	0	0	100
fixed	4	3	9	756641	3	2	2	1	0	638	1	4	0	112	33	0	0	100
fixed	4	3	10	757604	1	4	4	1	0	725	1	4	0	128	34	0	0	100
fixed	4	3	11	759122	5	2	2	1	0	757	1	4	0	112	35	0	0	100
fixed	4	3	12	760340	4	3	3	1	0	1033	1	4	0	120	36	0	0	100
fixed	4	4	1	761989	4	1	1	1	0	507	1	4	0	104	37	0	0	100
fixed	4	4	2	762841	1	2	2	1	0	847	1	4	0	112	38	0	0	100
fixed	4	4	3	764390	6	4	4	1	0	662	1	4	0	128	39	0	0	100
fixed	4	4	4	765945	2	1	1	1	0	684	1	4	0	104	40	0	0	100
fixed	4	4	5	766909	5	3	3	1	0	803	1	4	0	120	41	0	0	100
fixed	4	4	6	768315	6	4	4	1	0	712	1	4	0	128	42	0	0	100
fixed	4	4	7	769721	3	1	1	1	0	748	1	4	0	104	43	0	0	100
fixed	4	4	8	771029	2	3	3	1	0	940	1	4	0	120	44	0	0	100
fixed	4	4	9	772394	3	2	2	1	0	667	1	4	0	112	45	0	0	100
fixed	4	4	10	773935	1	4	4	1	0	649	1	4	0	128	46	0	0	100
fixed	4	4	11	775199	5	2	2	1	0	796	1	4	0	112	47	0	0	100
fixed	4	4	12	776525	4	3	3	1	0	788	1	4	0	120	48	0	0	100
fixed	4	5	1	778396	4	1	1	1	0	684	1	4	0	104	49	0	0	100
fixed	4	5	2	779944	1	2	2	1	0	891	1	4	0	112	50	0	0	100
fixed	4	5	3	781822	6	4	4	1	0	651	1	4	0	128	51	0	0	100
fixed	4	5	4	783112	2	1	1	1	0	917	1	4	0	104	52	0	0	100
fixed	4	5	5	784508	5	3	3	1	0	978	1	4	0	120	53	0	0	100
fixed	4	5	6	786100	6	4	4	1	0	734	1	4	0	128	54	0	0	100
fixed	4	5	7	787812	3	1	1	1	0	798	1	4	0	104	55	0	0	100
fixed	4	5	8	788960	2	3	3	1	0	813	1	4	0	120	56	0	0	100
fixed	4	5	9	790513	3	2	2	1	0	627	1	4	0	112	57	0	0	100
fixed	4	5	10	791563	1	4	4	1	0	655	1	4	0	128	58	0	0	100
fixed	4	5	11	792581	5	2	2	1	0	796	1	4	0	112	59	0	0	100
fixed	4	5	12	793901	4	3	3	1	0	788	1	4	0	120	60	0	0	100
fixed	4	6	1	795571	4	1	1	1	0	765	1	4	0	104	61	0	0	100
fixed	4	6	2	796770	1	2	2	1	0	1131	1	4	0	112	62	0	0	100
fixed	4	6	3	798189	6	4	4	1	0	783	1	4	0	128	63	0	0	100
fixed	4	6	4	799447	2	1	1	1	0	745	1	4	0	104	64	0	0	100
fixed	4	6	5	800565	5	3	3	1	0	905	1	4	0	120	65	0	0	100
fixed	4	6	6	801958	6	4	4	1	0	735	1	4	0	128	66	0	0	100
fixed	4	6	7	803037	3	1	1	1	0	737	1	4	0	104	67	0	0	100
fixed	4	6	8	804481	2	3	3	1	0	916	1	4	0	120	68	0	0	100
fixed	4	6	9	805950	3	2	2	1	0	669	1	4	0	112	69	0	0	100
fixed	4	6	10	807242	1	4	4	1	0	719	1	4	0	128	70	0	0	100
fixed	4	6	11	808896	5	2	2	1	0	737	1	4	0	112	71	0	0	100
fixed	4	6	12	810621	4	3	3	1	0	1048	1	4	0	120	72	0	0	100
fixed	4	7	1	812948	4	1	1	1	0	837	1	4	0	104	73	0	0	100
fixed	4	7	2	814475	1	2	2	1	0	685	1	4	0	112	74	0	0	100
fixed	4	7	3	816132	6	4	4	1	0	686	1	4	0	128	75	0	0	100
fixed	4	7	4	817349	2	1	1	1	0	675	1	4	0	104	76	0	0	100
fixed	4	7	5	818615	5	3	3	1	0	757	1	4	0	120	77	0	0	100
fixed	4	7	6	819707	6	4	4	1	0	719	1	4	0	128	78	0	0	100
fixed	4	7	7	820733	3	1	1	1	0	1027	1	4	0	104	79	0	0	100
fixed	4	7	8	822631	2	3	3	1	0	1075	1	4	0	120	80	0	0	100
fixed	4	7	9	824683	3	2	2	1	0	724	1	4	0	112	81	0	0	100
fixed	4	7	10	826174	1	4	4	1	0	645	1	4	0	128	82	0	0	100
fixed	4	7	11	827668	5	2	2	1	0	773	1	4	0	112	83	0	0	100
fixed	4	7	12	828938	4	3	3	1	0	928	1	4	0	120	84	0	0	100
fixed	4	8	1	830474	4	1	1	1	0	655	1	4	0	104	85	0	0	100
fixed	4	8	2	831607	1	2	2	1	0	902	1	4	0	112	86	0	0	100
fixed	4	8	3	833499	6	4	4	1	0	543	1	4	0	128	87	0	0	100
fixed	4	8	4	834935	2	1	1	1	0	650	1	4	0	104	88	0	0	100
fixed	4	8	5	835902	5	3	3	1	0	873	1	4	0	120	89	0	0	100
fixed	4	8	6	837146	6	4	4	1	0	780	1	4	0	128	90	0	0	100
fixed	4	8	7	838443	3	1	1	1	0	621	1	4	0	104	91	0	0	100
fixed	4	8	8	839592	2	3	3	1	0	781	1	4	0	120	92	0	0	100
fixed	4	8	9	840714	3	2	2	1	0	693	1	4	0	112	93	0	0	100
fixed	4	8	10	841908	1	4	4	1	0	659	1	4	0	128	94	0	0	100
fixed	4	8	11	843280	5	2	2	1	0	1017	1	4	0	112	95	0	0	100
fixed	4	8	12	845262	4	3	3	2	0	1804	2	4	0	120	96	0	0	100
fixed	4	9	1	848251	4	1	1	1	0	758	1	4	0	104	97	0	0	100
fixed	4	9	2	849559	1	2	2	1	0	854	1	4	0	112	98	0	0	100
fixed	4	9	3	851128	6	4	4	1	0	700	1	4	0	128	99	0	0	100
fixed	4	9	4	852522	2	1	1	1	0	713	1	4	0	104	100	0	0	100
fixed	4	9	5	854041	5	3	3	1	0	961	1	4	0	120	101	0	0	100
fixed	4	9	6	855907	6	4	4	1	0	826	1	4	0	128	102	0	0	100
fixed	4	9	7	857256	3	1	1	1	0	824	1	4	0	104	103	0	0	100
fixed	4	9	8	858731	2	3	3	1	0	1010	1	4	0	120	104	0	0	100
fixed	4	9	9	860647	3	2	2	1	0	553	1	4	0	112	105	0	0	100
fixed	4	9	10	862228	1	4	4	1	0	622	1	4	0	128	106	0	0	100
fixed	4	9	11	863488	5	2	2	1	0	824	1	4	0	112	107	0	0	100
fixed	4	9	12	864979	4	3	3	1	0	937	1	4	0	120	108	0	0	100
fixed	4	10	1	867147	4	1	1	1	0	805	1	4	0	104	109	0	0	100
fixed	4	10	2	868651	1	2	2	1	0	926	1	4	0	112	110	0	0	100
fixed	4	10	3	870482	6	4	4	1	0	664	1	4	0	128	111	0	0	100
fixed	4	10	4	871767	2	1	1	1	0	682	1	4	0	104	112	0	0	100
fixed	4	10	5	873371	5	3	3	1	0	854	1	4	0	120	113	0	0	100
fixed	4	10	6	875265	6	4	4	1	0	685	1	4	0	128	114	0	0	100
fixed	4	10	7	876739	3	1	1	1	0	919	1	4	0	104	115	0	0	100
fixed	4	10	8	878009	2	3	3	1	0	953	1	4	0	120	116	0	0	100
fixed	4	10	9	879330	3	2	2	1	0	585	1	4	0	112	117	0	0	100
fixed	4	10	10	880350	1	4	4	1	0	654	1	4	0	128	118	0	0	100
fixed	4	10	11	881446	5	2	2	1	0	1096	1	4	0	112	119	0	0	100
fixed	4	10	12	883318	4	3	3	1	0	816	1	4	0	120	120	0	0	100
fixed	5	1	1	885172	4	1	1	1	0	874	1	4	0	136	1	0	0	100
fixed	5	1	2	886993	1	2	2	1	0	837	1	4	0	144	2	0	0	100
fixed	5	1	3	888523	6	4	4	1	0	692	1	4	0	160	3	0	0	100
fixed	5	1	4	889583	2	1	1	1	0	743	1	4	0	136	4	0	0	100
fixed	5	1	5	890860	5	3	3	1	0	985	1	4	0	152	5	0	0	100
fixed	5	1	6	892327	6	4	4	1	0	619	1	4	0	160	6	0	0	100
fixed	5	1	7	893952	3	1	1	1	0	710	1	4	0	136	7	0	0	100
fixed	5	1	8	895188	2	3	3	1	0	866	1	4	0	152	8	0	0	100
fixed	5	1	9	896406	3	2	2	1	0	862	1	4	0	144	9	0	0	100
fixed	5	1	10	898300	1	4	4	1	0	718	1	4	0	160	10	0	0	100
fixed	5	1	11	899872	5	2	2	1	0	828	1	4	0	144	11	0	0	100
fixed	5	1	12	901120	4	3	3	1	0	831	1	4	0	152	12	0	0	100
fixed	5	2	1	902684	4	1	1	1	0	812	1	4	0	136	13	0	0	100
fixed	5	2	2	904280	1	2	2	1	0	777	1	4	0	144	14	0	0	100
fixed	5	2	3	905685	6	4	4	1	0	653	1	4	0	160	15	0	0	100
fixed	5	2	4	907011	2	1	1	1	0	701	1	4	0	136	16	0	0	100
fixed	5	2	5	908732	5	3	3	1	0	908	1	4	0	152	17	0	0	100
fixed	5	2	6	910337	6	4	4	1	0	680	1	4	0	160	18	0	0	100
fixed	5	2	7	911874	3	1	1	1	0	687	1	4	0	136	19	0	0	100
fixed	5	2	8	912994	2	3	3	1	0	839	1	4	0	152	20	0	0	100
fixed	5	2	9	914381	3	2	2	1	0	653	1	4	0	144	21	0	0	100
fixed	5	2	10	915645	1	4	4	1	0	728	1	4	0	160	22	0	0	100
fixed	5	2	11	916946	5	2	2	1	0	960	1	4	0	144	23	0	0	100
fixed	5	2	12	918263	4	3	3	1	0	1073	1	4	0	152	24	0	0	100
fixed	5	3	1	920177	4	1	1	1	0	687	1	4	0	136	25	0	0	100
fixed	5	3	2	921676	1	2	2	1	0	680	1	4	0	144	26	0	0	100
fixed	5	3	3	922752	6	4	4	1	0	762	1	4	0	160	27	0	0	100
fixed	5	3	4	924170	2	1	1	1	0	822	1	4	0	136	28	0	0	100
fixed	5	3	5	925529	5	3	3	1	0	805	1	4	0	152	29	0	0	100
fixed	5	3	6	926830	6	4	4	1	0	686	1	4	0	160	30	0	0	100
fixed	5	3	7	928131	3	1	1	1	0	646	1	4	0	136	31	0	0	100
fixed	5	3	8	929311	2	3	3	1	0	941	1	4	0	152	32	0	0	100
fixed	5	3	9	930830	3	2	2	1	0	532	1	4	0	144	33	0	0	100
fixed	5	3	10	931787	1	4	4	1	0	667	1	4	0	160	34	0	0	100
fixed	5	3	11	933257	5	2	2	1	0	741	1	4	0	144	35	0	0	100
fixed	5	3	12	934490	4	3	3	1	0	889	1	4	0	152	36	0	0	100
fixed	5	4	1	936333	4	1	1	1	0	691	1	4	0	136	37	0	0	100
fixed	5	4	2	937538	1	2	2	1	0	760	1	4	0	144	38	0	0	100
fixed	5	4	3	938810	6	4	4	1	0	658	1	4	0	160	39	0	0	100
fixed	5	4	4	940303	2	1	1	1	0	739	1	4	0	136	40	0	0	100
fixed	5	4	5	941470	5	3	3	1	0	866	1	4	0	152	41	0	0	100
fixed	5	4	6	943094	6	4	4	1	0	733	1	4	0	160	42	0	0	100
fixed	5	4	7	944829	3	1	1	1	0	771	1	4	0	136	43	0	0	100
fixed	5	4	8	946228	2	3	3	1	0	840	1	4	0	152	44	0	0	100
fixed	5	4	9	948052	3	2	2	1	0	683	1	4	0	144	45	0	0	100
fixed	5	4	10	949143	1	4	4	1	0	621	1	4	0	160	46	0	0	100
fixed	5	4	11	950100	5	2	2	1	0	1028	1	4	0	144	47	0	0	100
fixed	5	4	12	951747	4	3	3	1	0	839	1	4	0	152	48	0	0	100
fixed	5	5	1	953676	4	1	1	1	0	836	1	4	0	136	49	0	0	100
fixed	5	5	2	955333	1	2	2	1	0	894	1	4	0	144	50	0	0	100
fixed	5	5	3	956966	6	4	4	1	0	641	1	4	0	160	51	0	0	100
fixed	5	5	4	958085	2	1	1	1	0	690	1	4	0	136	52	0	0	100
fixed	5	5	5	959329	5	3	3	1	0	797	1	4	0	152	53	0	0	100
fixed	5	5	6	960767	6	4	4	1	0	688	1	4	0	160	54	0	0	100
fixed	5	5	7	962330	3	1	1	1	0	742	1	4	0	136	55	0	0	100
fixed	5	5	8	963656	2	3	3	1	0	886	1	4	0	152	56	0	0	100
fixed	5	5	9	965477	3	2	2	1	0	393	1	4	0	144	57	0	0	100
fixed	5	5	10	966509	1	4	4	1	0	661	1	4	0	160	58	0	0	100
fixed	5	5	11	968210	5	2	2	1	0	765	1	4	0	144	59	0	0	100
fixed	5	5	12	969358	4	3	3	1	0	757	1	4	0	152	60	0	0	100
fixed	5	6	1	971119	4	1	1	1	0	722	1	4	0	136	61	0	0	100
fixed	5	6	2	972796	1	2	2	1	0	787	1	4	0	144	62	0	0	100
fixed	5	6	3	974466	6	4	4	1	0	700	1	4	0	160	63	0	0	100
fixed	5	6	4	975576	2	1	1	1	0	1245	1	4	0	136	64	0	0	100
fixed	5	6	5	977751	5	3	3	1	0	809	1	4	0	152	65	0	0	100
fixed	5	6	6	979175	6	4	4	1	0	684	1	4	0	160	66	0	0	100
fixed	5	6	7	980819	3	1	1	1	0	655	1	4	0	136	67	0	0	100
fixed	5	6	8	982465	2	3	3	1	0	817	1	4	0	152	68	0	0	100
fixed	5	6	9	983915	3	2	2	1	0	571	1	4	0	144	69	0	0	100
fixed	5	6	10	984917	1	4	4	1	0	705	1	4	0	160	70	0	0	100
fixed	5	6	11	986555	5	2	2	1	0	724	1	4	0	144	71	0	0	100
fixed	5	6	12	987755	4	3	3	1	0	873	1	4	0	152	72	0	0	100
fixed	5	7	1	989497	4	1	1	1	0	679	1	4	0	136	73	0	0	100
fixed	5	7	2	990668	1	2	2	1	0	822	1	4	0	144	74	0	0	100
fixed	5	7	3	992086	6	4	4	1	0	666	1	4	0	160	75	0	0	100
fixed	5	7	4	993243	2	1	1	1	0	681	1	4	0	136	76	0	0	100
fixed	5	7	5	994880	5	3	3	1	0	931	1	4	0	152	77	0	0	100
fixed	5	7	6	996355	6	4	4	1	0	709	1	4	0	160	78	0	0	100
fixed	5	7	7	997976	3	1	1	1	0	760	1	4	0	136	79	0	0	100
fixed	5	7	8	999322	2	3	3	1	0	855	1	4	0	152	80	0	0	100
fixed	5	7	9	1000888	3	2	2	1	0	709	1	4	0	144	81	0	0	100
fixed	5	7	10	1002314	1	4	4	1	0	624	1	4	0	160	82	0	0	100
fixed	5	7	11	1003787	5	2	2	1	0	858	1	4	0	144	83	0	0	100
fixed	5	7	12	1005093	4	3	3	1	0	875	1	4	0	152	84	0	0	100
fixed	5	8	1	1006840	4	1	1	1	0	697	1	4	0	136	85	0	0	100
fixed	5	8	2	1007850	1	2	2	1	0	1190	1	4	0	144	86	0	0	100
fixed	5	8	3	1009525	6	4	4	1	0	639	1	4	0	160	87	0	0	100
fixed	5	8	4	1010902	2	1	1	1	0	749	1	4	0	136	88	0	0	100
fixed	5	8	5	1012667	5	3	3	1	0	1034	1	4	0	152	89	0	0	100
fixed	5	8	6	1014098	6	4	4	1	0	661	1	4	0	160	90	0	0	100
fixed	5	8	7	1015546	3	1	1	1	0	720	1	4	0	136	91	0	0	100
fixed	5	8	8	1017279	2	3	3	1	0	927	1	4	0	152	92	0	0	100
fixed	5	8	9	1019203	3	2	2	1	0	501	1	4	0	144	93	0	0	100
fixed	5	8	10	1020222	1	4	4	1	0	626	1	4	0	160	94	0	0	100
fixed	5	8	11	1021301	5	2	2	1	0	932	1	4	0	144	95	0	0	100
fixed	5	8	12	1022844	4	3	3	1	0	1203	1	4	0	152	96	0	0	100
fixed	5	9	1	1025352	4	1	1	1	0	752	1	4	0	136	97	0	0	100
fixed	5	9	2	1026724	1	2	2	1	0	806	1	4	0	144	98	0	0	100
fixed	5	9	3	1028564	6	4	4	1	0	665	1	4	0	160	99	0	0	100
fixed	5	9	4	1030193	2	1	1	1	0	1028	1	4	0	136	100	0	0	100
fixed	5	9	5	1031864	5	3	3	1	0	821	1	4	0	152	101	0	0	100
fixed	5	9	6	1033248	6	4	4	1	0	674	1	4	0	160	102	0	0	100
fixed	5	9	7	1034591	3	1	1	1	0	729	1	4	0	136	103	0	0	100
fixed	5	9	8	1035837	2	3	3	1	0	1037	1	4	0	152	104	0	0	100
fixed	5	9	9	1037811	3	2	2	1	0	745	1	4	0	144	105	0	0	100
fixed	5	9	10	1039365	1	4	4	1	0	671	1	4	0	160	106	0	0	100
fixed	5	9	11	1040471	5	2	2	1	0	976	1	4	0	144	107	0	0	100
fixed	5	9	12	1041950	4	3	3	1	0	794	1	4	0	152	108	0	0	100
fixed	5	10	1	1043346	4	1	1	1	0	662	1	4	0	136	109	0	0	100
fixed	5	10	2	1044639	1	2	2	1	0	912	1	4	0	144	110	0	0	100
fixed	5	10	3	1045980	6	4	4	1	0	719	1	4	0	160	111	0	0	100
fixed	5	10	4	1047157	2	1	1	1	0	893	1	4	0	136	112	0	0	100
fixed	5	10	5	1048595	5	3	3	1	0	1024	1	4	0	152	113	0	0	100
fixed	5	10	6	1050314	6	4	4	1	0	671	1	4	0	160	114	0	0	100
fixed	5	10	7	1052014	3	1	0	1	2	0	3	4	0	136	114	0	1	99
fixed	5	10	8	1055316	2	3	3	1	0	1156	1	4	0	152	115	0	1	99
fixed	5	10	9	1056946	3	2	2	1	0	1006	1	4	0	144	116	0	1	99
fixed	5	10	10	1058524	1	4	4	1	0	1172	1	4	0	160	117	0	1	99
fixed	5	10	11	1060293	5	2	2	1	0	857	1	4	0	144	118	0	1	99
fixed	5	10	12	1061456	4	3	3	1	0	919	1	4	0	152	119	0	1	99
random	6	1	1	1141568	6	1	1	1	0	1278	1	4	0	168	1	0	0	100
random	6	1	2	1143417	4	4	4	1	0	904	1	4	0	192	2	0	0	100
random	6	1	3	1145049	2	2	2	1	0	875	1	4	0	176	3	0	0	100
random	6	1	4	1146800	3	3	3	1	0	617	1	4	0	184	4	0	0	100
random	6	1	5	1148301	5	2	2	1	0	857	1	4	0	176	5	0	0	100
random	6	1	6	1149734	1	4	4	1	0	709	1	4	0	192	6	0	0	100
random	6	1	7	1150842	6	1	1	1	0	829	1	4	0	168	7	0	0	100
random	6	1	8	1152324	2	3	3	1	0	895	1	4	0	184	8	0	0	100
random	6	1	9	1153787	4	2	2	1	0	529	1	4	0	176	9	0	0	100
random	6	1	10	1154962	1	1	1	1	0	775	1	4	0	168	10	0	0	100
random	6	1	11	1156410	5	4	4	1	0	658	1	4	0	192	11	0	0	100
random	6	1	12	1157834	3	3	3	1	0	725	1	4	0	184	12	0	0	100
random	6	1	13	1159531	5	2	2	1	0	789	1	4	0	176	13	0	0	100
random	6	1	14	1160688	1	4	4	1	0	684	1	4	0	192	14	0	0	100
random	6	1	15	1162120	3	1	1	1	0	784	1	4	0	168	15	0	0	100
random	6	1	16	1163455	4	3	3	1	0	863	1	4	0	184	16	0	0	100
random	6	1	17	1164763	6	4	4	1	0	720	1	4	0	192	17	0	0	100
random	6	1	18	1166236	2	1	1	1	0	650	1	4	0	168	18	0	0	100
random	6	1	19	1167580	5	3	3	1	0	913	1	4	0	184	19	0	0	100
random	6	1	20	1169265	2	2	2	1	0	545	1	4	0	176	20	0	0	100
random	6	1	21	1170261	3	3	3	1	0	903	1	4	0	184	21	0	0	100
random	6	1	22	1172043	6	1	1	1	0	819	1	4	0	168	22	0	0	100
random	6	1	23	1173358	4	2	2	1	0	1012	1	4	0	176	23	0	0	100
random	6	1	24	1175275	1	4	4	1	0	651	1	4	0	192	24	0	0	100
random	6	1	25	1176623	4	3	3	1	0	825	1	4	0	184	25	0	0	100
random	6	1	26	1177787	2	1	1	1	0	697	1	4	0	168	26	0	0	100
random	6	1	27	1179407	5	2	2	1	0	892	1	4	0	176	27	0	0	100
random	6	1	28	1181099	6	4	4	1	0	684	1	4	0	192	28	0	0	100
random	6	1	29	1182787	1	3	3	1	0	892	1	4	0	184	29	0	0	100
random	6	1	30	1184543	5	2	2	1	0	770	1	4	0	176	30	0	0	100
random	6	1	31	1186215	2	1	1	1	0	683	1	4	0	168	31	0	0	100
random	6	1	32	1187516	3	3	3	1	0	940	1	4	0	184	32	0	0	100
random	6	1	33	1189110	6	4	4	1	0	641	1	4	0	192	33	0	0	100
random	6	1	34	1190298	4	2	2	1	0	687	1	4	0	176	34	0	0	100
random	6	1	35	1191966	3	4	4	1	0	704	1	4	0	192	35	0	0	100
random	6	1	36	1193603	1	1	1	1	0	722	1	4	0	168	36	0	0	100
random	6	1	37	1195469	3	4	4	1	0	731	1	4	0	192	37	0	0	100
random	6	1	38	1196689	5	3	3	1	0	871	1	4	0	184	38	0	0	100
random	6	1	39	1198546	6	1	1	1	0	785	1	4	0	168	39	0	0	100
random	6	1	40	1199715	1	2	2	1	0	943	1	4	0	176	40	0	0	100
random	6	1	41	1201414	2	3	3	1	0	847	1	4	0	184	41	0	0	100
random	6	1	42	1203169	4	4	4	1	0	773	1	4	0	192	42	0	0	100
random	6	1	43	1204331	1	2	2	1	0	868	1	4	0	176	43	0	0	100
random	6	1	44	1205857	6	3	3	1	0	844	1	4	0	184	44	0	0	100
random	6	1	45	1207531	3	1	1	1	0	708	1	4	0	168	45	0	0	100
random	6	1	46	1209138	4	4	4	1	0	848	1	4	0	192	46	0	0	100
random	6	1	47	1210476	2	2	2	1	0	800	1	4	0	176	47	0	0	100
random	6	1	48	1211765	5	1	1	1	0	793	1	4	0	168	48	0	0	100
random	6	1	49	1213196	2	3	3	1	0	876	1	4	0	184	49	0	0	100
random	6	1	50	1215017	3	1	1	1	0	735	1	4	0	168	50	0	0	100
random	6	1	51	1216167	1	4	4	1	0	742	1	4	0	192	51	0	0	100
random	6	1	52	1217543	5	3	3	1	0	1148	1	4	0	184	52	0	0	100
random	6	1	53	1219620	3	2	2	1	0	965	1	4	0	176	53	0	0	100
random	6	1	54	1221610	6	4	4	1	0	656	1	4	0	192	54	0	0	100
random	6	1	55	1222695	4	2	2	1	0	954	1	4	0	176	55	0	0	100
random	6	1	56	1224216	1	1	1	1	0	738	1	4	0	168	56	0	0	100
random	6	1	57	1225375	5	4	4	1	0	704	1	4	0	192	57	0	0	100
random	6	1	58	1226810	2	1	1	1	0	772	1	4	0	168	58	0	0	100
random	6	1	59	1227961	6	2	2	1	0	1107	1	4	0	176	59	0	0	100
random	6	1	60	1229640	4	3	3	1	0	756	1	4	0	184	60	0	0	100
random	6	1	61	1231691	1	2	2	1	0	909	1	4	0	176	61	0	0	100
random	6	1	62	1233054	6	4	4	1	0	660	1	4	0	192	62	0	0	100
random	6	1	63	1234691	4	1	1	1	0	758	1	4	0	168	63	0	0	100
random	6	1	64	1236058	2	2	2	1	0	964	1	4	0	176	64	0	0	100
random	6	1	65	1237450	4	3	3	1	0	809	1	4	0	184	65	0	0	100
random	6	1	66	1238885	3	1	1	1	0	813	1	4	0	168	66	0	0	100
random	6	1	67	1240411	1	3	3	1	0	892	1	4	0	184	67	0	0	100
random	6	1	68	1241616	5	4	4	1	0	793	1	4	0	192	68	0	0	100
random	6	1	69	1243371	2	2	2	1	0	678	1	4	0	176	69	0	0	100
random	6	1	70	1244897	3	1	1	1	0	798	1	4	0	168	70	0	0	100
random	6	1	71	1246033	5	4	4	1	0	702	1	4	0	192	71	0	0	100
random	6	1	72	1247339	6	3	3	1	0	943	1	4	0	184	72	0	0	100
random	6	1	73	1248917	2	1	1	1	0	763	1	4	0	168	73	0	0	100
random	6	1	74	1250440	5	3	3	1	0	931	1	4	0	184	74	0	0	100
random	6	1	75	1251749	1	4	4	1	0	740	1	4	0	192	75	0	0	100
random	6	1	76	1253172	6	2	2	1	0	640	1	4	0	176	76	0	0	100
random	6	1	77	1254389	2	1	1	1	0	532	1	4	0	168	77	0	0	100
random	6	1	78	1255629	4	4	4	1	0	856	1	4	0	192	78	0	0	100
random	6	1	79	1257351	3	2	2	1	0	799	1	4	0	176	79	0	0	100
random	6	1	80	1259026	4	3	3	1	0	871	1	4	0	184	80	0	0	100
random	6	1	81	1260772	1	4	4	1	0	774	1	4	0	192	81	0	0	100
random	6	1	82	1262346	5	1	1	1	0	787	1	4	0	168	82	0	0	100
random	6	1	83	1263917	3	2	2	1	0	833	1	4	0	176	83	0	0	100
random	6	1	84	1265727	6	3	3	1	0	843	1	4	0	184	84	0	0	100
random	6	1	85	1267396	3	2	2	1	0	805	1	4	0	176	85	0	0	100
random	6	1	86	1268945	1	3	3	1	0	844	1	4	0	184	86	0	0	100
random	6	1	87	1270381	4	4	4	1	0	679	1	4	0	192	87	0	0	100
random	6	1	88	1271648	2	1	1	1	0	769	1	4	0	168	88	0	0	100
random	6	1	89	1273334	6	4	4	1	0	826	1	4	0	192	89	0	0	100
random	6	1	90	1274661	3	3	3	1	0	913	1	4	0	184	90	0	0	100
random	6	1	91	1276022	5	4	4	1	0	848	1	4	0	192	91	0	0	100
random	6	1	92	1277356	1	2	2	1	0	799	1	4	0	176	92	0	0	100
random	6	1	93	1278868	5	1	1	1	0	1015	1	4	0	168	93	0	0	100
random	6	1	94	1280690	4	3	3	1	0	898	1	4	0	184	94	0	0	100
random	6	1	95	1282504	6	1	1	1	0	757	1	4	0	168	95	0	0	100
random	6	1	96	1283559	2	2	2	1	0	808	1	4	0	176	96	0	0	100
random	6	1	97	1285189	4	3	3	1	0	939	1	4	0	184	97	0	0	100
random	6	1	98	1286882	3	2	2	1	0	780	1	4	0	176	98	0	0	100
random	6	1	99	1288010	6	3	3	1	0	843	1	4	0	184	99	0	0	100
random	6	1	100	1289196	1	4	4	1	0	786	1	4	0	192	100	0	0	100
random	6	1	101	1290839	4	1	1	1	0	396	1	4	0	168	101	0	0	100
random	6	1	102	1291949	5	2	2	1	0	1005	1	4	0	176	102	0	0	100
random	6	1	103	1293644	2	4	4	1	0	621	1	4	0	192	103	0	0	100
random	6	1	104	1295188	3	1	1	1	0	764	1	4	0	168	104	0	0	100
random	6	1	105	1296499	1	3	3	1	0	820	1	4	0	184	105	0	0	100
random	6	1	106	1298308	2	2	2	1	0	672	1	4	0	176	106	0	0	100
random	6	1	107	1299905	5	4	4	1	0	668	1	4	0	192	107	0	0	100
random	6	1	108	1301594	6	1	1	1	0	676	1	4	0	168	108	0	0	100
random	6	1	109	1302849	5	4	4	1	0	775	1	4	0	192	109	0	0	100
random	6	1	110	1303956	6	3	3	1	0	1056	1	4	0	184	110	0	0	100
random	6	1	111	1305539	2	2	2	1	0	949	1	4	0	176	111	0	0	100
random	6	1	112	1307295	3	1	1	1	0	747	1	4	0	168	112	0	0	100
random	6	1	113	1308754	1	2	2	1	0	805	1	4	0	176	113	0	0	100
random	6	1	114	1310551	2	3	3	1	0	721	1	4	0	184	114	0	0	100
random	6	1	115	1312054	3	1	1	1	0	689	1	4	0	168	115	0	0	100
random	6	1	116	1313315	4	4	4	1	0	860	1	4	0	192	116	0	0	100
random	6	1	117	1314729	6	1	1	1	0	640	1	4	0	168	117	0	0	100
random	6	1	118	1316089	5	3	3	1	0	775	1	4	0	184	118	0	0	100
random	6	1	119	1317311	1	4	4	1	0	771	1	4	0	192	119	0	0	100
random	6	1	120	1318713	4	2	2	1	0	776	1	4	0	176	120	0	0	100
fixed	7	1	1	1320908	4	1	1	1	0	866	1	4	0	200	1	0	0	100
fixed	7	1	2	1322761	1	2	2	1	0	1060	1	4	0	208	2	0	0	100
fixed	7	1	3	1324469	6	4	4	1	0	747	1	4	0	224	3	0	0	100
fixed	7	1	4	1325987	2	1	1	1	0	659	1	4	0	200	4	0	0	100
fixed	7	1	5	1327619	5	3	3	1	0	870	1	4	0	216	5	0	0	100
fixed	7	1	6	1328948	6	4	4	1	0	718	1	4	0	224	6	0	0	100
fixed	7	1	7	1330087	3	1	1	1	0	1254	1	4	0	200	7	0	0	100
fixed	7	1	8	1332193	2	3	3	1	0	844	1	4	0	216	8	0	0	100
fixed	7	1	9	1333828	3	2	2	1	0	775	1	4	0	208	9	0	0	100
fixed	7	1	10	1335541	1	4	4	1	0	711	1	4	0	224	10	0	0	100
fixed	7	1	11	1336854	5	2	2	1	0	1151	1	4	0	208	11	0	0	100
fixed	7	1	12	1339021	4	3	3	2	0	1563	2	4	0	216	12	0	0	100
fixed	7	2	1	1341494	4	1	1	1	0	834	1	4	0	200	1	0	0	8
fixed	7	2	2	1342995	1	2	2	1	0	1155	1	4	0	208	2	0	0	14
fixed	7	2	3	1344888	6	4	4	1	0	635	1	4	0	224	3	0	0	20
fixed	7	2	4	1346113	2	1	1	1	0	1047	1	4	0	200	4	0	0	25
fixed	7	2	5	1347900	5	3	3	1	0	827	1	4	0	216	5	0	0	29
fixed	7	2	6	1349110	6	4	4	1	0	712	1	4	0	224	6	0	0	33
fixed	7	2	7	1350325	3	1	1	1	0	869	1	4	0	200	7	0	0	37
fixed	7	2	8	1351880	2	3	3	1	0	811	1	4	0	216	8	0	0	40
fixed	7	2	9	1353035	3	2	2	1	0	746	1	4	0	208	9	0	0	43
fixed	7	2	10	1354293	1	4	4	1	0	716	1	4	0	224	10	0	0	45
fixed	7	2	11	1355487	5	2	2	1	0	914	1	4	0	208	11	0	0	48
fixed	7	2	12	1357159	4	3	3	1	0	787	1	4	0	216	12	0	0	50
fixed	7	3	1	1359171	4	1	1	1	0	742	1	4	0	200	1	0	0	4
fixed	7	3	2	1360256	1	2	2	1	0	856	1	4	0	208	2	0	0	8
fixed	7	3	3	1361594	6	4	4	1	0	647	1	4	0	224	3	0	0	11
fixed	7	3	4	1363124	2	1	1	1	0	758	1	4	0	200	4	0	0	14
fixed	7	3	5	1364470	5	3	3	1	0	1085	1	4	0	216	5	0	0	17
fixed	7	3	6	1366352	6	4	4	1	0	733	1	4	0	224	6	0	0	20
fixed	7	3	7	1367978	3	1	1	1	0	705	1	4	0	200	7	0	0	23
fixed	7	3	8	1369360	2	3	3	1	0	1366	1	4	0	216	8	0	0	25
fixed	7	3	9	1371067	3	2	2	1	0	910	1	4	0	208	9	0	0	27
fixed	7	3	10	1372287	1	4	4	1	0	658	1	4	0	224	10	0	0	29
fixed	7	3	11	1373575	5	2	2	1	0	836	1	4	0	208	11	0	0	31
fixed	7	3	12	1375441	4	3	3	1	0	829	1	4	0	216	12	0	0	33
fixed	7	4	1	1377098	4	1	1	1	0	814	1	4	0	200	1	0	0	3
fixed	7	4	2	1378921	1	2	2	1	0	801	1	4	0	208	2	0	0	5
fixed	7	4	3	1380709	6	4	0	0	2	0	3	4	0	224	2	0	1	5
fixed	7	4	4	1383606	2	1	1	1	0	643	1	4	0	200	3	0	1	8
fixed	7	4	5	1385044	5	3	3	1	0	910	1	4	0	216	4	0	1	10
fixed	7	4	6	1386362	6	4	4	1	0	782	1	4	0	224	5	0	1	12
fixed	7	4	7	1388096	3	1	1	1	0	789	1	4	0	200	6	0	1	14
fixed	7	4	8	1389865	2	3	3	1	0	810	1	4	0	216	7	0	1	16
fixed	7	4	9	1391540	3	2	2	1	0	675	1	4	0	208	8	0	1	18
fixed	7	4	10	1392672	1	4	4	1	0	763	1	4	0	224	9	0	1	20
fixed	7	4	11	1394299	5	2	2	1	0	766	1	4	0	208	10	0	1	21
fixed	7	4	12	1395875	4	3	3	1	0	987	1	4	0	216	11	0	1	23
fixed	7	5	1	1397532	4	1	1	1	0	757	1	4	0	200	1	0	0	2
fixed	7	5	2	1399289	1	2	2	1	0	795	1	4	0	208	2	0	0	4
fixed	7	5	3	1400813	6	4	4	1	0	730	1	4	0	224	3	0	0	6
fixed	7	5	4	1402222	2	1	1	1	0	1239	1	4	0	200	4	0	0	8
fixed	7	5	5	1404387	5	3	3	1	0	827	1	4	0	216	5	0	0	9
fixed	7	5	6	1406032	6	4	4	1	0	733	1	4	0	224	6	0	0	11
fixed	7	5	7	1407549	3	1	1	1	0	693	1	4	0	200	7	0	0	13
fixed	7	5	8	1408601	2	3	3	1	0	856	1	4	0	216	8	0	0	14
fixed	7	5	9	1409867	3	2	2	1	0	650	1	4	0	208	9	0	0	16
fixed	7	5	10	1410839	1	4	4	1	0	786	1	4	0	224	10	0	0	17
fixed	7	5	11	1412130	5	2	2	1	0	843	1	4	0	208	11	0	0	19
fixed	7	5	12	1413460	4	3	3	1	0	802	1	4	0	216	12	0	0	20
fixed	7	6	1	1415275	4	1	1	1	0	717	1	4	0	200	1	0	0	2
fixed	7	6	2	1416825	1	2	2	1	0	780	1	4	0	208	2	0	0	3
fixed	7	6	3	1418503	6	4	4	1	0	709	1	4	0	224	3	0	0	5
fixed	7	6	4	1420136	2	1	1	1	0	727	1	4	0	200	4	0	0	6
fixed	7	6	5	1421533	5	3	3	1	0	973	1	4	0	216	5	0	0	8
fixed	7	6	6	1423280	6	4	4	1	0	730	1	4	0	224	6	0	0	9
fixed	7	6	7	1424858	3	1	1	1	0	728	1	4	0	200	7	0	0	10
fixed	7	6	8	1426593	2	3	3	1	0	886	1	4	0	216	8	0	0	12
fixed	7	6	9	1427814	3	2	2	1	0	651	1	4	0	208	9	0	0	13
fixed	7	6	10	1429081	1	4	4	1	0	845	1	4	0	224	10	0	0	14
fixed	7	6	11	1430680	5	2	2	1	0	737	1	4	0	208	11	0	0	15
fixed	7	6	12	1431730	4	3	3	1	0	1132	1	4	0	216	12	0	0	17
fixed	7	7	1	1434004	4	1	1	1	0	852	1	4	0	200	1	0	0	1
fixed	7	7	2	1435520	1	2	2	1	0	1084	1	4	0	208	2	0	0	3
fixed	7	7	3	1437366	6	4	4	1	0	702	1	4	0	224	3	0	0	4
fixed	7	7	4	1438909	2	1	1	1	0	797	1	4	0	200	4	0	0	5
fixed	7	7	5	1440055	5	3	3	1	0	892	1	4	0	216	5	0	0	6
fixed	7	7	6	1441534	6	4	4	1	0	758	1	4	0	224	6	0	0	8
fixed	7	7	7	1442994	3	1	1	1	0	887	1	4	0	200	7	0	0	9
fixed	7	7	8	1444385	2	3	3	1	0	845	1	4	0	216	8	0	0	10
fixed	7	7	9	1446047	3	2	2	1	0	782	1	4	0	208	9	0	0	11
fixed	7	7	10	1447107	1	4	4	1	0	809	1	4	0	224	10	0	0	12
fixed	7	7	11	1448759	5	2	2	1	0	915	1	4	0	208	11	0	0	13
fixed	7	7	12	1450277	4	3	3	1	0	787	1	4	0	216	12	0	0	14
fixed	7	8	1	1452249	4	1	1	1	0	735	1	4	0	200	1	0	0	1
fixed	7	8	2	1453631	1	2	2	1	0	933	1	4	0	208	2	0	0	2
fixed	7	8	3	1455226	6	4	4	1	0	697	1	4	0	224	3	0	0	3
fixed	7	8	4	1456398	2	1	1	1	0	800	1	4	0	200	4	0	0	5
fixed	7	8	5	1458123	5	3	3	1	0	1207	1	4	0	216	5	0	0	6
fixed	7	8	6	1459924	6	4	4	1	0	666	1	4	0	224	6	0	0	7
fixed	7	8	7	1461410	3	1	1	1	0	635	1	4	0	200	7	0	0	8
fixed	7	8	8	1462567	2	3	3	1	0	963	1	4	0	216	8	0	0	9
fixed	7	8	9	1464341	3	2	2	1	0	920	1	4	0	208	9	0	0	10
fixed	7	8	10	1466184	1	4	4	1	0	681	1	4	0	224	10	0	0	11
fixed	7	8	11	1467900	5	2	2	1	0	729	1	4	0	208	11	0	0	12
fixed	7	8	12	1468992	4	3	3	1	0	1034	1	4	0	216	12	0	0	13
fixed	7	9	1	1470862	4	1	1	1	0	843	1	4	0	200	1	0	0	1
fixed	7	9	2	1472336	1	2	2	1	0	781	1	4	0	208	2	0	0	2
fixed	7	9	3	1473828	6	4	4	1	0	654	1	4	0	224	3	0	0	3
fixed	7	9	4	1474771	2	1	1	1	0	933	1	4	0	200	4	0	0	4
fixed	7	9	5	1476251	5	3	3	1	0	895	1	4	0	216	5	0	0	5
fixed	7	9	6	1478178	6	4	4	1	0	709	1	4	0	224	6	0	0	6
fixed	7	9	7	1479461	3	1	1	1	0	1079	1	4	0	200	7	0	0	7
fixed	7	9	8	1481088	2	3	3	1	0	1010	1	4	0	216	8	0	0	8
fixed	7	9	9	1482746	3	2	2	1	0	756	1	4	0	208	9	0	0	9
fixed	7	9	10	1484326	1	4	4	1	0	689	1	4	0	224	10	0	0	9
fixed	7	9	11	1485867	5	2	2	1	0	1231	1	4	0	208	11	0	0	10
fixed	7	9	12	1487458	4	3	3	1	0	756	1	4	0	216	12	0	0	11
fixed	7	10	1	1489207	4	1	1	1	0	698	1	4	0	200	1	0	0	1
fixed	7	10	2	1490696	1	2	2	1	0	891	1	4	0	208	2	0	0	2
fixed	7	10	3	1492198	6	4	4	1	0	619	1	4	0	224	3	0	0	3
fixed	7	10	4	1493434	2	1	1	1	0	663	1	4	0	200	4	0	0	4
fixed	7	10	5	1494959	5	3	3	1	0	830	1	4	0	216	5	0	0	4
fixed	7	10	6	1496169	6	4	4	1	0	740	1	4	0	224	6	0	0	5
fixed	7	10	7	1497856	3	1	1	1	0	1036	1	4	0	200	7	0	0	6
fixed	7	10	8	1499393	2	3	3	1	0	867	1	4	0	216	8	0	0	7
fixed	7	10	9	1501258	3	2	2	1	0	628	1	4	0	208	9	0	0	8
fixed	7	10	10	1502458	1	4	4	1	0	505	1	4	0	224	10	0	0	8
fixed	7	10	11	1503920	5	2	2	1	0	1315	1	4	0	208	11	0	0	9
fixed	7	10	12	1506142	4	3	3	1	0	781	1	4	0	216	12	0	0	10
