type	block	sequ.	trial	time	Pos.	Color	Button	NumRsp	Resp_1	RT_1	R_Code	Resp_2	RT_2	Trigg.	n_hit	n_inc	n_miss	score_%

random	1	1	1	31708	6	1	1	1	0	1394	1	4	0	8	1	0	0	100
random	1	1	2	33863	4	4	4	1	0	1407	1	4	0	32	2	0	0	100
random	1	1	3	35626	2	2	2	1	0	1429	1	4	0	16	3	0	0	100
random	1	1	4	37677	3	3	0	1	2	0	3	4	0	24	3	0	1	75
random	1	1	5	40500	5	2	2	1	0	1782	1	4	0	16	4	0	1	80
random	1	1	6	43034	1	4	4	1	0	1499	1	4	0	32	5	0	1	83
random	1	1	7	45513	6	1	1	1	0	1202	1	4	0	8	6	0	1	86
random	1	1	8	47666	2	3	0	1	2	0	3	4	0	24	6	0	2	75
random	1	1	9	51164	4	2	2	1	0	1531	1	4	0	16	7	0	2	78
random	1	1	10	53560	1	1	1	1	0	1309	1	4	0	8	8	0	2	80
random	1	1	11	55382	5	4	4	1	0	2376	1	4	0	32	9	0	2	82
random	1	1	12	58450	3	3	0	1	2	0	3	4	0	24	9	0	3	75
random	1	1	13	61916	5	2	2	1	0	1435	1	4	0	16	10	0	3	77
random	1	1	14	64295	1	4	4	1	0	1086	1	4	0	32	11	0	3	79
random	1	1	15	66076	3	1	1	1	0	899	1	4	0	8	12	0	3	80
random	1	1	16	67964	4	3	0	1	2	0	3	4	0	24	12	0	4	75
random	1	1	17	71132	6	4	4	1	0	2149	1	4	0	32	13	0	4	76
random	1	1	18	74024	2	1	1	1	0	1027	1	4	0	8	14	0	4	78
random	1	1	19	75415	5	3	0	0	2	0	3	4	0	24	14	0	5	74
random	1	1	20	78763	2	2	2	1	0	954	1	4	0	16	15	0	5	75
random	1	1	21	80694	3	3	3	1	0	1640	1	4	0	24	16	0	5	76
random	1	1	22	83022	6	1	1	1	0	1101	1	4	0	8	17	0	5	77
random	1	1	23	85039	4	2	2	1	0	848	1	4	0	16	18	0	5	78
random	1	1	24	86362	1	4	4	1	0	1472	1	4	0	32	19	0	5	79
random	1	1	25	88967	4	3	3	1	0	1641	1	4	0	24	20	0	5	80
random	1	1	26	91524	2	1	1	1	0	893	1	4	0	8	21	0	5	81
random	1	1	27	93408	5	2	2	1	0	958	1	4	0	16	22	0	5	81
random	1	1	28	95045	6	4	4	1	0	904	1	4	0	32	23	0	5	82
random	1	1	29	96451	1	3	3	1	0	876	1	4	0	24	24	0	5	83
random	1	1	30	98259	5	2	2	1	0	896	1	4	0	16	25	0	5	83
random	1	1	31	99543	2	1	1	1	0	921	1	4	0	8	26	0	5	84
random	1	1	32	101423	3	3	3	1	0	1458	1	4	0	24	27	0	5	84
random	1	1	33	103836	6	4	4	1	0	939	1	4	0	32	28	0	5	85
random	1	1	34	105645	4	2	2	2	0	2159	2	4	0	16	29	0	5	85
random	1	1	35	108762	3	4	4	1	0	907	1	4	0	32	30	0	5	86
random	1	1	36	110692	1	1	1	1	0	889	1	4	0	8	31	0	5	86
random	1	1	37	112659	3	4	4	1	0	854	1	4	0	32	32	0	5	86
random	1	1	38	113884	5	3	3	1	0	1922	1	4	0	24	33	0	5	87
random	1	1	39	116810	6	1	1	1	0	750	1	4	0	8	34	0	5	87
random	1	1	40	118460	1	2	2	1	0	640	1	4	0	16	35	0	5	88
random	1	1	41	119669	2	3	3	1	0	1501	1	4	0	24	36	0	5	88
random	1	1	42	121910	4	4	4	1	0	886	1	4	0	32	37	0	5	88
random	1	1	43	123359	1	2	2	1	0	929	1	4	0	16	38	0	5	88
random	1	1	44	124975	6	3	3	1	0	1412	1	4	0	24	39	0	5	89
random	1	1	45	127372	3	1	1	1	0	799	1	4	0	8	40	0	5	89
random	1	1	46	129045	4	4	4	1	0	784	1	4	0	32	41	0	5	89
random	1	1	47	130448	2	2	2	1	0	1245	1	4	0	16	42	0	5	89
random	1	1	48	132699	5	1	1	1	0	877	1	4	0	8	43	0	5	90
random	1	1	49	134813	2	3	3	1	0	1091	1	4	0	24	44	0	5	90
random	1	1	50	136304	3	1	1	1	0	1028	1	4	0	8	45	0	5	90
random	1	1	51	138310	1	4	4	1	0	687	1	4	0	32	46	0	5	90
random	1	1	52	139798	5	3	3	1	0	1361	1	4	0	24	47	0	5	90
random	1	1	53	141489	3	2	2	1	0	785	1	4	0	16	48	0	5	91
random	1	1	54	142762	6	4	4	1	0	715	1	4	0	32	49	0	5	91
random	1	1	55	143921	4	2	2	1	0	1234	1	4	0	16	50	0	5	91
random	1	1	56	145908	1	1	1	1	0	750	1	4	0	8	51	0	5	91
random	1	1	57	147666	5	4	4	1	0	747	1	4	0	32	52	0	5	91
random	1	1	58	149348	2	1	1	1	0	900	1	4	0	8	53	0	5	91
random	1	1	59	150818	6	2	2	1	0	901	1	4	0	16	54	0	5	92
random	1	1	60	152580	4	3	3	1	0	1219	1	4	0	24	55	0	5	92
random	1	1	61	154745	1	2	2	1	0	1135	1	4	0	16	56	0	5	92
random	1	1	62	156812	6	4	4	1	0	624	1	4	0	32	57	0	5	92
random	1	1	63	158275	4	1	1	1	0	650	1	4	0	8	58	0	5	92
random	1	1	64	159410	2	2	2	1	0	1066	1	4	0	16	59	0	5	92
random	1	1	65	161452	4	3	3	1	0	1115	1	4	0	24	60	0	5	92
random	1	1	66	163116	3	1	1	1	0	965	1	4	0	8	61	0	5	92
random	1	1	67	164433	1	3	3	1	0	1661	1	4	0	24	62	0	5	93
random	1	1	68	166963	5	4	4	1	0	762	1	4	0	32	63	0	5	93
random	1	1	69	168179	2	2	2	1	0	1526	1	4	0	16	64	0	5	93
random	1	1	70	170105	3	1	1	1	0	821	1	4	0	8	65	0	5	93
random	1	1	71	171541	5	4	4	1	0	768	1	4	0	32	66	0	5	93
random	1	1	72	172812	6	3	3	1	0	1226	1	4	0	24	67	0	5	93
random	1	1	73	174878	2	1	1	1	0	922	1	4	0	8	68	0	5	93
random	1	1	74	176319	5	3	3	1	0	1270	1	4	0	24	69	0	5	93
random	1	1	75	178226	1	4	4	1	0	781	1	4	0	32	70	0	5	93
random	1	1	76	179990	6	2	2	1	0	858	1	4	0	16	71	0	5	93
random	1	1	77	181812	2	1	1	1	0	709	1	4	0	8	72	0	5	94
random	1	1	78	183528	4	4	4	1	0	725	1	4	0	32	73	0	5	94
random	1	1	79	185071	3	2	2	1	0	979	1	4	0	16	74	0	5	94
random	1	1	80	187017	4	3	3	1	0	1425	1	4	0	24	75	0	5	94
random	1	1	81	189421	1	4	4	1	0	723	1	4	0	32	76	0	5	94
random	1	1	82	190530	5	1	1	1	0	948	1	4	0	8	77	0	5	94
random	1	1	83	191970	3	2	2	1	0	855	1	4	0	16	78	0	5	94
random	1	1	84	193255	6	3	3	1	0	736	1	4	0	24	79	0	5	94
random	1	1	85	194710	3	2	2	1	0	1154	1	4	0	16	80	0	5	94
random	1	1	86	196873	1	3	3	1	0	1063	1	4	0	24	81	0	5	94
random	1	1	87	198506	4	4	4	1	0	650	1	4	0	32	82	0	5	94
random	1	1	88	199789	2	1	1	1	0	883	1	4	0	8	83	0	5	94
random	1	1	89	201001	6	4	4	1	0	1088	1	4	0	32	84	0	5	94
random	1	1	90	202668	3	3	3	1	0	1330	1	4	0	24	85	0	5	94
random	1	1	91	204991	5	4	4	1	0	959	1	4	0	32	86	0	5	95
random	1	1	92	206315	1	2	2	1	0	815	1	4	0	16	87	0	5	95
random	1	1	93	207807	5	1	1	1	0	616	1	4	0	8	88	0	5	95
random	1	1	94	209352	4	3	3	1	0	1239	1	4	0	24	89	0	5	95
random	1	1	95	211166	6	1	1	1	0	825	1	4	0	8	90	0	5	95
random	1	1	96	212526	2	2	2	1	0	1208	1	4	0	16	91	0	5	95
random	1	1	97	214542	4	3	3	1	0	1178	1	4	0	24	92	0	5	95
random	1	1	98	216350	3	2	2	1	0	782	1	4	0	16	93	0	5	95
random	1	1	99	218114	6	3	3	1	0	1204	1	4	0	24	94	0	5	95
random	1	1	100	219885	1	4	4	1	0	712	1	4	0	32	95	0	5	95
random	1	1	101	221208	4	1	1	1	0	512	1	4	0	8	96	0	5	95
random	1	1	102	222586	5	2	2	1	0	966	1	4	0	16	97	0	5	95
random	1	1	103	224126	2	4	4	1	0	661	1	4	0	32	98	0	5	95
random	1	1	104	225652	3	1	1	1	0	804	1	4	0	8	99	0	5	95
random	1	1	105	226826	1	3	3	1	0	1186	1	4	0	24	100	0	5	95
random	1	1	106	229024	2	2	2	1	0	766	1	4	0	16	101	0	5	95
random	1	1	107	230297	5	4	4	1	0	935	1	4	0	32	102	0	5	95
random	1	1	108	232179	6	1	1	1	0	648	1	4	0	8	103	0	5	95
random	1	1	109	234107	5	4	4	1	0	694	1	4	0	32	104	0	5	95
random	1	1	110	235545	6	3	3	2	0	1825	2	4	0	24	105	0	5	95
random	1	1	111	238284	2	2	2	1	0	1069	1	4	0	16	106	0	5	95
random	1	1	112	239970	3	1	1	1	0	789	1	4	0	8	107	0	5	96
random	1	1	113	241071	1	2	2	1	0	1175	1	4	0	16	108	0	5	96
random	1	1	114	243049	2	3	3	1	0	1619	1	4	0	24	109	0	5	96
random	1	1	115	244998	3	1	1	1	0	800	1	4	0	8	110	0	5	96
random	1	1	116	246440	4	4	4	1	0	796	1	4	0	32	111	0	5	96
random	1	1	117	247652	6	1	1	1	0	945	1	4	0	8	112	0	5	96
random	1	1	118	249516	5	3	3	1	0	1177	1	4	0	24	113	0	5	96
random	1	1	119	251622	1	4	4	1	0	800	1	4	0	32	114	0	5	96
random	1	1	120	253307	4	2	2	1	0	769	1	4	0	16	115	0	5	96
fixed	2	1	1	255123	4	1	1	1	0	780	1	4	0	40	1	0	0	100
fixed	2	1	2	256323	1	2	2	1	0	969	1	4	0	48	2	0	0	100
fixed	2	1	3	258292	6	4	4	1	0	846	1	4	0	64	3	0	0	100
fixed	2	1	4	259674	2	1	1	1	0	891	1	4	0	40	4	0	0	100
fixed	2	1	5	260996	5	3	3	2	0	2019	2	4	0	56	5	0	0	100
fixed	2	1	6	263606	6	4	4	1	0	957	1	4	0	64	6	0	0	100
fixed	2	1	7	265089	3	1	1	1	0	958	1	4	0	40	7	0	0	100
fixed	2	1	8	266406	2	3	3	1	0	1486	1	4	0	56	8	0	0	100
fixed	2	1	9	268343	3	2	2	1	0	740	1	4	0	48	9	0	0	100
fixed	2	1	10	269964	1	4	4	1	0	767	1	4	0	64	10	0	0	100
fixed	2	1	11	271593	5	2	2	1	0	1107	1	4	0	48	11	0	0	100
fixed	2	1	12	273586	4	3	3	1	0	1286	1	4	0	56	12	0	0	100
fixed	2	2	1	275675	4	1	1	1	0	805	1	4	0	40	13	0	0	100
fixed	2	2	2	276787	1	2	2	1	0	1030	1	4	0	48	14	0	0	100
fixed	2	2	3	278774	6	4	4	1	0	722	1	4	0	64	15	0	0	100
fixed	2	2	4	280416	2	1	1	1	0	749	1	4	0	40	16	0	0	100
fixed	2	2	5	281795	5	3	3	1	0	1138	1	4	0	56	17	0	0	100
fixed	2	2	6	283259	6	4	4	1	0	1028	1	4	0	64	18	0	0	100
fixed	2	2	7	284920	3	1	1	1	0	902	1	4	0	40	19	0	0	100
fixed	2	2	8	286550	2	3	3	1	0	1393	1	4	0	56	20	0	0	100
fixed	2	2	9	288933	3	2	2	1	0	612	1	4	0	48	21	0	0	100
fixed	2	2	10	290123	1	4	4	1	0	1026	1	4	0	64	22	0	0	100
fixed	2	2	11	291507	5	2	2	1	0	1103	1	4	0	48	23	0	0	100
fixed	2	2	12	293432	4	3	3	1	0	1270	1	4	0	56	24	0	0	100
fixed	2	3	1	295323	4	1	1	1	0	701	1	4	0	40	25	0	0	100
fixed	2	3	2	296487	1	2	2	1	0	1044	1	4	0	48	26	0	0	100
fixed	2	3	3	298488	6	4	4	1	0	783	1	4	0	64	27	0	0	100
fixed	2	3	4	299648	2	1	1	1	0	878	1	4	0	40	28	0	0	100
fixed	2	3	5	300886	5	3	3	1	0	1273	1	4	0	56	29	0	0	100
fixed	2	3	6	302676	6	4	4	1	0	966	1	4	0	64	30	0	0	100
fixed	2	3	7	304311	3	1	1	1	0	680	1	4	0	40	31	0	0	100
fixed	2	3	8	305468	2	3	3	1	0	1255	1	4	0	56	32	0	0	100
fixed	2	3	9	307699	3	2	2	1	0	553	1	4	0	48	33	0	0	100
fixed	2	3	10	308579	1	4	4	1	0	860	1	4	0	64	34	0	0	100
fixed	2	3	11	310081	5	2	2	1	0	1308	1	4	0	48	35	0	0	100
fixed	2	3	12	312264	4	3	3	1	0	1183	1	4	0	56	36	0	0	100
fixed	2	4	1	314220	4	1	1	1	0	805	1	4	0	40	37	0	0	100
fixed	2	4	2	316066	1	2	2	1	0	1367	1	4	0	48	38	0	0	100
fixed	2	4	3	318350	6	4	4	1	0	686	1	4	0	64	39	0	0	100
fixed	2	4	4	319499	2	1	1	1	0	661	1	4	0	40	40	0	0	100
fixed	2	4	5	320777	5	3	3	1	0	1111	1	4	0	56	41	0	0	100
fixed	2	4	6	322518	6	4	4	1	0	782	1	4	0	64	42	0	0	100
fixed	2	4	7	324121	3	1	1	1	0	498	1	4	0	40	43	0	0	100
fixed	2	4	8	325031	2	3	3	1	0	1267	1	4	0	56	44	0	0	100
fixed	2	4	9	326719	3	2	2	1	0	635	1	4	0	48	45	0	0	100
fixed	2	4	10	328254	1	4	4	1	0	674	1	4	0	64	46	0	0	100
fixed	2	4	11	329262	5	2	2	1	0	992	1	4	0	48	47	0	0	100
fixed	2	4	12	331275	4	3	3	1	0	971	1	4	0	56	48	0	0	100
fixed	2	5	1	333383	4	1	1	1	0	745	1	4	0	40	49	0	0	100
fixed	2	5	2	334587	1	2	2	1	0	1070	1	4	0	48	50	0	0	100
fixed	2	5	3	336651	6	4	4	1	0	727	1	4	0	64	51	0	0	100
fixed	2	5	4	338016	2	1	1	1	0	997	1	4	0	40	52	0	0	100
fixed	2	5	5	339385	5	3	3	1	0	1131	1	4	0	56	53	0	0	100
fixed	2	5	6	340984	6	4	4	1	0	711	1	4	0	64	54	0	0	100
fixed	2	5	7	342205	3	1	1	1	0	1019	1	4	0	40	55	0	0	100
fixed	2	5	8	343897	2	3	3	1	0	1140	1	4	0	56	56	0	0	100
fixed	2	5	9	345694	3	2	2	1	0	615	1	4	0	48	57	0	0	100
fixed	2	5	10	346785	1	4	4	1	0	609	1	4	0	64	58	0	0	100
fixed	2	5	11	348383	5	2	2	1	0	1038	1	4	0	48	59	0	0	100
fixed	2	5	12	350301	4	3	3	1	0	997	1	4	0	56	60	0	0	100
fixed	2	6	1	352013	4	1	1	1	0	740	1	4	0	40	61	0	0	100
fixed	2	6	2	353529	1	2	2	1	0	996	1	4	0	48	62	0	0	100
fixed	2	6	3	355111	6	4	4	1	0	1017	1	4	0	64	63	0	0	100
fixed	2	6	4	357039	2	1	1	1	0	783	1	4	0	40	64	0	0	100
fixed	2	6	5	358590	5	3	3	1	0	1070	1	4	0	56	65	0	0	100
fixed	2	6	6	360237	6	4	4	1	0	784	1	4	0	64	66	0	0	100
fixed	2	6	7	361429	3	1	1	1	0	869	1	4	0	40	67	0	0	100
fixed	2	6	8	363055	2	3	3	1	0	1360	1	4	0	56	68	0	0	100
fixed	2	6	9	364725	3	2	2	1	0	737	1	4	0	48	69	0	0	100
fixed	2	6	10	366144	1	4	4	1	0	654	1	4	0	64	70	0	0	100
fixed	2	6	11	367586	5	2	2	1	0	1008	1	4	0	48	71	0	0	100
fixed	2	6	12	368892	4	3	3	1	0	1121	1	4	0	56	72	0	0	100
fixed	2	7	1	371059	4	1	1	1	0	717	1	4	0	40	73	0	0	100
fixed	2	7	2	372611	1	2	2	1	0	1323	1	4	0	48	74	0	0	100
fixed	2	7	3	374576	6	4	4	1	0	681	1	4	0	64	75	0	0	100
fixed	2	7	4	375773	2	1	1	1	0	806	1	4	0	40	76	0	0	100
fixed	2	7	5	377178	5	3	3	1	0	1498	1	4	0	56	77	0	0	100
fixed	2	7	6	379578	6	4	4	1	0	916	1	4	0	64	78	0	0	100
fixed	2	7	7	381497	3	1	1	1	0	644	1	4	0	40	79	0	0	100
fixed	2	7	8	382967	2	3	3	1	0	1125	1	4	0	56	80	0	0	100
fixed	2	7	9	384708	3	2	2	1	0	539	1	4	0	48	81	0	0	100
fixed	2	7	10	385702	1	4	4	1	0	665	1	4	0	64	82	0	0	100
fixed	2	7	11	386861	5	2	2	1	0	1097	1	4	0	48	83	0	0	100
fixed	2	7	12	388691	4	3	3	1	0	995	1	4	0	56	84	0	0	100
fixed	2	8	1	390557	4	1	1	1	0	547	1	4	0	40	85	0	0	100
fixed	2	8	2	392102	1	2	2	1	0	1130	1	4	0	48	86	0	0	100
fixed	2	8	3	393610	6	4	4	1	0	762	1	4	0	64	87	0	0	100
fixed	2	8	4	394997	2	1	1	1	0	816	1	4	0	40	88	0	0	100
fixed	2	8	5	396378	5	3	3	1	0	1581	1	4	0	56	89	0	0	100
fixed	2	8	6	398947	6	4	4	1	0	664	1	4	0	64	90	0	0	100
fixed	2	8	7	400334	3	1	1	1	0	653	1	4	0	40	91	0	0	100
fixed	2	8	8	401514	2	3	0	1	2	0	3	4	0	56	91	0	1	99
fixed	2	8	9	404925	3	2	2	1	0	803	1	4	0	48	92	0	1	99
fixed	2	8	10	406638	1	4	4	1	0	995	1	4	0	64	93	0	1	99
fixed	2	8	11	408247	5	2	2	1	0	1103	1	4	0	48	94	0	1	99
fixed	2	8	12	409779	4	3	3	1	0	1174	1	4	0	56	95	0	1	99
fixed	2	9	1	411960	4	1	1	1	0	681	1	4	0	40	96	0	1	99
fixed	2	9	2	412979	1	2	2	1	0	982	1	4	0	48	97	0	1	99
fixed	2	9	3	414578	6	4	4	1	0	778	1	4	0	64	98	0	1	99
fixed	2	9	4	415977	2	1	1	1	0	671	1	4	0	40	99	0	1	99
fixed	2	9	5	417202	5	3	3	1	0	1195	1	4	0	56	100	0	1	99
fixed	2	9	6	418686	6	4	4	1	0	884	1	4	0	64	101	0	1	99
fixed	2	9	7	420455	3	1	1	1	0	753	1	4	0	40	102	0	1	99
fixed	2	9	8	421798	2	3	3	1	0	1080	1	4	0	56	103	0	1	99
fixed	2	9	9	423234	3	2	2	1	0	915	1	4	0	48	104	0	1	99
fixed	2	9	10	425040	1	4	4	1	0	727	1	4	0	64	105	0	1	99
fixed	2	9	11	426659	5	2	2	1	0	1195	1	4	0	48	106	0	1	99
fixed	2	9	12	428607	4	3	3	1	0	1040	1	4	0	56	107	0	1	99
fixed	2	10	1	430539	4	1	1	1	0	638	1	4	0	40	108	0	1	99
fixed	2	10	2	431752	1	2	2	1	0	1003	1	4	0	48	109	0	1	99
fixed	2	10	3	433442	6	4	4	1	0	756	1	4	0	64	110	0	1	99
fixed	2	10	4	434548	2	1	1	1	0	940	1	4	0	40	111	0	1	99
fixed	2	10	5	436344	5	3	3	2	0	1304	2	4	0	56	112	0	1	99
fixed	2	10	6	438332	6	4	4	1	0	1108	1	4	0	64	113	0	1	99
fixed	2	10	7	440247	3	1	1	1	0	651	1	4	0	40	114	0	1	99
fixed	2	10	8	441930	2	3	3	1	0	1403	1	4	0	56	115	0	1	99
fixed	2	10	9	443650	3	2	2	1	0	739	1	4	0	48	116	0	1	99
fixed	2	10	10	445389	1	4	4	1	0	785	1	4	0	64	117	0	1	99
fixed	2	10	11	446485	5	2	2	1	0	1091	1	4	0	48	118	0	1	99
fixed	2	10	12	447870	4	3	3	1	0	1072	1	4	0	56	119	0	1	99
fixed	3	1	1	449884	4	1	1	1	0	531	1	4	0	72	1	0	0	100
fixed	3	1	2	450917	1	2	2	1	0	1063	1	4	0	80	2	0	0	100
fixed	3	1	3	453007	6	4	4	1	0	670	1	4	0	96	3	0	0	100
fixed	3	1	4	454064	2	1	1	1	0	930	1	4	0	72	4	0	0	100
fixed	3	1	5	455535	5	3	3	1	0	1171	1	4	0	88	5	0	0	100
fixed	3	1	6	457527	6	4	4	1	0	679	1	4	0	96	6	0	0	100
fixed	3	1	7	458582	3	1	1	1	0	787	1	4	0	72	7	0	0	100
fixed	3	1	8	459997	2	3	3	1	0	1038	1	4	0	88	8	0	0	100
fixed	3	1	9	461794	3	2	2	1	0	491	1	4	0	80	9	0	0	100
fixed	3	1	10	463047	1	4	4	1	0	838	1	4	0	96	10	0	0	100
fixed	3	1	11	464737	5	2	2	1	0	765	1	4	0	80	11	0	0	100
fixed	3	1	12	465984	4	3	3	1	0	1073	1	4	0	88	12	0	0	100
fixed	3	2	1	467680	4	1	1	1	0	793	1	4	0	72	13	0	0	100
fixed	3	2	2	468988	1	2	2	1	0	1114	1	4	0	80	14	0	0	100
fixed	3	2	3	470554	6	4	4	1	0	703	1	4	0	96	15	0	0	100
fixed	3	2	4	471704	2	1	1	1	0	766	1	4	0	72	16	0	0	100
fixed	3	2	5	473272	5	3	3	1	0	1548	1	4	0	88	17	0	0	100
fixed	3	2	6	475596	6	4	4	1	0	714	1	4	0	96	18	0	0	100
fixed	3	2	7	477216	3	1	1	1	0	1005	1	4	0	72	19	0	0	100
fixed	3	2	8	478829	2	3	3	1	0	1257	1	4	0	88	20	0	0	100
fixed	3	2	9	480479	3	2	2	1	0	795	1	4	0	80	21	0	0	100
fixed	3	2	10	481800	1	4	4	1	0	835	1	4	0	96	22	0	0	100
fixed	3	2	11	483279	5	2	2	1	0	1213	1	4	0	80	23	0	0	100
fixed	3	2	12	485185	4	3	3	1	0	1564	1	4	0	88	24	0	0	100
fixed	3	3	1	487762	4	1	1	1	0	646	1	4	0	72	25	0	0	100
fixed	3	3	2	489004	1	2	2	1	0	946	1	4	0	80	26	0	0	100
fixed	3	3	3	490710	6	4	4	1	0	770	1	4	0	96	27	0	0	100
fixed	3	3	4	492314	2	1	1	1	0	782	1	4	0	72	28	0	0	100
fixed	3	3	5	493470	5	3	3	1	0	1861	1	4	0	88	29	0	0	100
fixed	3	3	6	496249	6	4	4	1	0	791	1	4	0	96	30	0	0	100
fixed	3	3	7	498033	3	1	1	1	0	820	1	4	0	72	31	0	0	100
fixed	3	3	8	499362	2	3	3	1	0	2051	1	4	0	88	32	0	0	100
fixed	3	3	9	502394	3	2	2	1	0	779	1	4	0	80	33	0	0	100
fixed	3	3	10	503487	1	4	4	1	0	780	1	4	0	96	34	0	0	100
fixed	3	3	11	505197	5	2	2	1	0	1100	1	4	0	80	35	0	0	100
fixed	3	3	12	506754	4	3	3	1	0	986	1	4	0	88	36	0	0	100
fixed	3	4	1	508847	4	1	1	1	0	625	1	4	0	72	37	0	0	100
fixed	3	4	2	510436	1	2	2	2	0	1782	2	4	0	80	38	0	0	100
fixed	3	4	3	512646	6	4	4	1	0	1257	1	4	0	96	39	0	0	100
fixed	3	4	4	514854	2	1	1	1	0	795	1	4	0	72	40	0	0	100
fixed	3	4	5	516392	5	3	3	1	0	1226	1	4	0	88	41	0	0	100
fixed	3	4	6	518399	6	4	4	1	0	717	1	4	0	96	42	0	0	100
fixed	3	4	7	519662	3	1	1	1	0	799	1	4	0	72	43	0	0	100
fixed	3	4	8	520979	2	3	3	1	0	1223	1	4	0	88	44	0	0	100
fixed	3	4	9	523218	3	2	2	1	0	729	1	4	0	80	45	0	0	100
fixed	3	4	10	524369	1	4	4	1	0	696	1	4	0	96	46	0	0	100
fixed	3	4	11	525522	5	2	2	1	0	1079	1	4	0	80	47	0	0	100
fixed	3	4	12	527631	4	3	3	1	0	1918	1	4	0	88	48	0	0	100
fixed	3	5	1	530534	4	1	1	1	0	651	1	4	0	72	49	0	0	100
fixed	3	5	2	531793	1	2	2	1	0	966	1	4	0	80	50	0	0	100
fixed	3	5	3	533695	6	4	4	1	0	533	1	4	0	96	51	0	0	100
fixed	3	5	4	535180	2	1	1	1	0	814	1	4	0	72	52	0	0	100
fixed	3	5	5	536802	5	3	3	1	0	1121	1	4	0	88	53	0	0	100
fixed	3	5	6	538713	6	4	4	1	0	801	1	4	0	96	54	0	0	100
fixed	3	5	7	540526	3	1	1	1	0	843	1	4	0	72	55	0	0	100
fixed	3	5	8	542189	2	3	3	2	0	2101	2	4	0	88	56	0	0	100
fixed	3	5	9	545274	3	2	2	1	0	771	1	4	0	80	57	0	0	100
fixed	3	5	10	546784	1	4	4	1	0	827	1	4	0	96	58	0	0	100
fixed	3	5	11	547950	5	2	2	1	0	1369	1	4	0	80	59	0	0	100
fixed	3	5	12	549624	4	3	3	1	0	1258	1	4	0	88	60	0	0	100
fixed	3	6	1	551586	4	1	1	1	0	647	1	4	0	72	61	0	0	100
fixed	3	6	2	552854	1	2	2	1	0	737	1	4	0	80	62	0	0	100
fixed	3	6	3	554033	6	4	4	1	0	904	1	4	0	96	63	0	0	100
fixed	3	6	4	555961	2	1	1	1	0	742	1	4	0	72	64	0	0	100
fixed	3	6	5	557058	5	3	3	1	0	1912	1	4	0	88	65	0	0	100
fixed	3	6	6	559603	6	4	4	1	0	811	1	4	0	96	66	0	0	100
fixed	3	6	7	561433	3	1	1	1	0	934	1	4	0	72	67	0	0	100
fixed	3	6	8	563070	2	3	3	1	0	1809	1	4	0	88	68	0	0	100
fixed	3	6	9	565397	3	2	2	1	0	710	1	4	0	80	69	0	0	100
fixed	3	6	10	566604	1	4	4	1	0	747	1	4	0	96	70	0	0	100
fixed	3	6	11	568181	5	2	2	1	0	1040	1	4	0	80	71	0	0	100
fixed	3	6	12	569541	4	3	3	1	0	1095	1	4	0	88	72	0	0	100
fixed	3	7	1	571184	4	1	1	1	0	721	1	4	0	72	73	0	0	100
fixed	3	7	2	572398	1	2	2	1	0	1110	1	4	0	80	74	0	0	100
fixed	3	7	3	574077	6	4	4	1	0	670	1	4	0	96	75	0	0	100
fixed	3	7	4	575724	2	1	1	1	0	721	1	4	0	72	76	0	0	100
fixed	3	7	5	576902	5	3	3	2	0	2111	2	4	0	88	77	0	0	100
fixed	3	7	6	579312	6	4	4	1	0	1041	1	4	0	96	78	0	0	100
fixed	3	7	7	581360	3	1	1	1	0	882	1	4	0	72	79	0	0	100
fixed	3	7	8	582906	2	3	3	1	0	1385	1	4	0	88	80	0	0	100
fixed	3	7	9	584718	3	2	2	1	0	1108	1	4	0	80	81	0	0	100
fixed	3	7	10	586386	1	4	4	1	0	717	1	4	0	96	82	0	0	100
fixed	3	7	11	587885	5	2	2	1	0	1054	1	4	0	80	83	0	0	100
fixed	3	7	12	589305	4	3	3	1	0	850	1	4	0	88	84	0	0	100
fixed	3	8	1	590732	4	1	1	1	0	669	1	4	0	72	85	0	0	100
fixed	3	8	2	592354	1	2	2	1	0	928	1	4	0	80	86	0	0	100
fixed	3	8	3	593983	6	4	4	1	0	708	1	4	0	96	87	0	0	100
fixed	3	8	4	595633	2	1	1	1	0	798	1	4	0	72	88	0	0	100
fixed	3	8	5	597413	5	3	3	1	0	1602	1	4	0	88	89	0	0	100
fixed	3	8	6	599566	6	4	4	1	0	975	1	4	0	96	90	0	0	100
fixed	3	8	7	600922	3	1	1	1	0	765	1	4	0	72	91	0	0	100
fixed	3	8	8	602711	2	3	3	1	0	1962	1	4	0	88	92	0	0	100
fixed	3	8	9	605124	3	2	2	1	0	676	1	4	0	80	93	0	0	100
fixed	3	8	10	606814	1	4	4	1	0	748	1	4	0	96	94	0	0	100
fixed	3	8	11	608082	5	2	2	1	0	814	1	4	0	80	95	0	0	100
fixed	3	8	12	609290	4	3	3	1	0	1267	1	4	0	88	96	0	0	100
fixed	3	9	1	611499	4	1	1	1	0	669	1	4	0	72	97	0	0	100
fixed	3	9	2	613190	1	2	2	1	0	782	1	4	0	80	98	0	0	100
fixed	3	9	3	614518	6	4	4	1	0	702	1	4	0	96	99	0	0	100
fixed	3	9	4	616026	2	1	1	1	0	742	1	4	0	72	100	0	0	100
fixed	3	9	5	617275	5	3	3	1	0	1673	1	4	0	88	101	0	0	100
fixed	3	9	6	619307	6	4	4	1	0	1227	1	4	0	96	102	0	0	100
fixed	3	9	7	620952	3	1	1	1	0	653	1	4	0	72	103	0	0	100
fixed	3	9	8	622424	2	3	3	1	0	1431	1	4	0	88	104	0	0	100
fixed	3	9	9	624769	3	2	2	1	0	691	1	4	0	80	105	0	0	100
fixed	3	9	10	626445	1	4	4	1	0	717	1	4	0	96	106	0	0	100
fixed	3	9	11	627688	5	2	2	1	0	1256	1	4	0	80	107	0	0	100
fixed	3	9	12	629923	4	3	3	1	0	1250	1	4	0	88	108	0	0	100
fixed	3	10	1	632217	4	1	1	1	0	592	1	4	0	72	109	0	0	100
fixed	3	10	2	633564	1	2	2	1	0	959	1	4	0	80	110	0	0	100
fixed	3	10	3	635077	6	4	4	1	0	959	1	4	0	96	111	0	0	100
fixed	3	10	4	636483	2	1	1	1	0	987	1	4	0	72	112	0	0	100
fixed	3	10	5	638023	5	3	3	1	0	2034	1	4	0	88	113	0	0	100
fixed	3	10	6	640427	6	4	4	1	0	916	1	4	0	96	114	0	0	100
fixed	3	10	7	641695	3	1	1	1	0	743	1	4	0	72	115	0	0	100
fixed	3	10	8	642891	2	3	3	1	0	2020	1	4	0	88	116	0	0	100
fixed	3	10	9	645545	3	2	2	1	0	980	1	4	0	80	117	0	0	100
fixed	3	10	10	647012	1	4	4	1	0	782	1	4	0	96	118	0	0	100
fixed	3	10	11	648697	5	2	0	1	2	0	3	4	0	80	118	0	1	99
fixed	3	10	12	652139	4	3	0	1	2	0	3	4	0	88	118	0	2	98
fixed	4	1	1	817101	4	1	1	1	0	1137	1	4	0	104	1	0	0	100
fixed	4	1	2	818849	1	2	2	1	0	1319	1	4	0	112	2	0	0	100
fixed	4	1	3	820480	6	4	4	1	0	850	1	4	0	128	3	0	0	100
fixed	4	1	4	822362	2	1	1	1	0	699	1	4	0	104	4	0	0	100
fixed	4	1	5	823689	5	3	3	1	0	1586	1	4	0	120	5	0	0	100
fixed	4	1	6	825958	6	4	4	1	0	667	1	4	0	128	6	0	0	100
fixed	4	1	7	827170	3	1	1	1	0	727	1	4	0	104	7	0	0	100
fixed	4	1	8	828531	2	3	3	2	0	1141	2	4	0	120	8	0	0	100
fixed	4	1	9	830231	3	2	2	1	0	829	1	4	0	112	9	0	0	100
fixed	4	1	10	832018	1	4	4	1	0	698	1	4	0	128	10	0	0	100
fixed	4	1	11	833448	5	2	2	1	0	997	1	4	0	112	11	0	0	100
fixed	4	1	12	834831	4	3	3	1	0	962	1	4	0	120	12	0	0	100
fixed	4	2	1	836602	4	1	1	1	0	615	1	4	0	104	13	0	0	100
fixed	4	2	2	838180	1	2	2	1	0	1037	1	4	0	112	14	0	0	100
fixed	4	2	3	840143	6	4	4	1	0	649	1	4	0	128	15	0	0	100
fixed	4	2	4	841554	2	1	1	1	0	726	1	4	0	104	16	0	0	100
fixed	4	2	5	843054	5	3	3	1	0	1326	1	4	0	120	17	0	0	100
fixed	4	2	6	845376	6	4	4	1	0	868	1	4	0	128	18	0	0	100
fixed	4	2	7	847088	3	1	1	1	0	691	1	4	0	104	19	0	0	100
fixed	4	2	8	848508	2	3	3	1	0	1343	1	4	0	120	20	0	0	100
fixed	4	2	9	850522	3	2	2	1	0	674	1	4	0	112	21	0	0	100
fixed	4	2	10	852010	1	4	4	1	0	611	1	4	0	128	22	0	0	100
fixed	4	2	11	853322	5	2	2	1	0	1059	1	4	0	112	23	0	0	100
fixed	4	2	12	855398	4	3	3	1	0	1099	1	4	0	120	24	0	0	100
fixed	4	3	1	857670	4	1	1	1	0	547	1	4	0	104	25	0	0	100
fixed	4	3	2	858699	1	2	2	1	0	1200	1	4	0	112	26	0	0	100
fixed	4	3	3	860605	6	4	4	1	0	575	1	4	0	128	27	0	0	100
fixed	4	3	4	861870	2	1	1	1	0	753	1	4	0	104	28	0	0	100
fixed	4	3	5	863516	5	3	3	1	0	1171	1	4	0	120	29	0	0	100
fixed	4	3	6	865602	6	4	4	1	0	731	1	4	0	128	30	0	0	100
fixed	4	3	7	866988	3	1	1	1	0	729	1	4	0	104	31	0	0	100
fixed	4	3	8	868024	2	3	3	1	0	1405	1	4	0	120	32	0	0	100
fixed	4	3	9	870375	3	2	2	1	0	633	1	4	0	112	33	0	0	100
fixed	4	3	10	871329	1	4	4	1	0	849	1	4	0	128	34	0	0	100
fixed	4	3	11	872958	5	2	2	1	0	1003	1	4	0	112	35	0	0	100
fixed	4	3	12	874872	4	3	3	1	0	811	1	4	0	120	36	0	0	100
fixed	4	4	1	876600	4	1	1	1	0	569	1	4	0	104	37	0	0	100
fixed	4	4	2	877868	1	2	2	1	0	891	1	4	0	112	38	0	0	100
fixed	4	4	3	879706	6	4	4	1	0	645	1	4	0	128	39	0	0	100
fixed	4	4	4	881284	2	1	1	1	0	659	1	4	0	104	40	0	0	100
fixed	4	4	5	882501	5	3	3	1	0	1367	1	4	0	120	41	0	0	100
fixed	4	4	6	884499	6	4	4	1	0	691	1	4	0	128	42	0	0	100
fixed	4	4	7	885680	3	1	1	1	0	1001	1	4	0	104	43	0	0	100
fixed	4	4	8	887250	2	3	3	1	0	870	1	4	0	120	44	0	0	100
fixed	4	4	9	888631	3	2	2	1	0	627	1	4	0	112	45	0	0	100
fixed	4	4	10	890296	1	4	4	1	0	693	1	4	0	128	46	0	0	100
fixed	4	4	11	891827	5	2	2	1	0	884	1	4	0	112	47	0	0	100
fixed	4	4	12	893237	4	3	3	1	0	809	1	4	0	120	48	0	0	100
fixed	4	5	1	894811	4	1	1	1	0	622	1	4	0	104	49	0	0	100
fixed	4	5	2	896139	1	2	2	1	0	870	1	4	0	112	50	0	0	100
fixed	4	5	3	897663	6	4	4	1	0	717	1	4	0	128	51	0	0	100
fixed	4	5	4	899174	2	1	1	1	0	701	1	4	0	104	52	0	0	100
fixed	4	5	5	900255	5	3	3	1	0	1247	1	4	0	120	53	0	0	100
fixed	4	5	6	902204	6	4	4	1	0	709	1	4	0	128	54	0	0	100
fixed	4	5	7	903828	3	1	1	1	0	1096	1	4	0	104	55	0	0	100
fixed	4	5	8	905262	2	3	3	1	0	1083	1	4	0	120	56	0	0	100
fixed	4	5	9	907065	3	2	2	1	0	639	1	4	0	112	57	0	0	100
fixed	4	5	10	908527	1	4	4	1	0	689	1	4	0	128	58	0	0	100
fixed	4	5	11	909698	5	2	2	1	0	999	1	4	0	112	59	0	0	100
fixed	4	5	12	911260	4	3	3	1	0	1437	1	4	0	120	60	0	0	100
fixed	4	6	1	913256	4	1	1	1	0	704	1	4	0	104	61	0	0	100
fixed	4	6	2	914862	1	2	2	1	0	1068	1	4	0	112	62	0	0	100
fixed	4	6	3	916490	6	4	4	1	0	704	1	4	0	128	63	0	0	100
fixed	4	6	4	917788	2	1	1	1	0	705	1	4	0	104	64	0	0	100
fixed	4	6	5	919504	5	3	3	1	0	720	1	4	0	120	65	0	0	100
fixed	4	6	6	921199	6	4	4	1	0	648	1	4	0	128	66	0	0	100
fixed	4	6	7	922321	3	1	1	1	0	657	1	4	0	104	67	0	0	100
fixed	4	6	8	923836	2	3	3	2	0	2088	2	4	0	120	68	0	0	100
fixed	4	6	9	926339	3	2	2	1	0	726	1	4	0	112	69	0	0	100
fixed	4	6	10	927604	1	4	4	1	0	1001	1	4	0	128	70	0	0	100
fixed	4	6	11	929334	5	2	2	1	0	992	1	4	0	112	71	0	0	100
fixed	4	6	12	930798	4	3	3	1	0	873	1	4	0	120	72	0	0	100
fixed	4	7	1	932553	4	1	1	1	0	575	1	4	0	104	73	0	0	100
fixed	4	7	2	933440	1	2	2	1	0	1369	1	4	0	112	74	0	0	100
fixed	4	7	3	935666	6	4	4	1	0	771	1	4	0	128	75	0	0	100
fixed	4	7	4	936778	2	1	1	1	0	924	1	4	0	104	76	0	0	100
fixed	4	7	5	938140	5	3	3	1	0	1267	1	4	0	120	77	0	0	100
fixed	4	7	6	940290	6	4	4	1	0	1039	1	4	0	128	78	0	0	100
fixed	4	7	7	941913	3	1	1	1	0	595	1	4	0	104	79	0	0	100
fixed	4	7	8	943373	2	3	3	1	0	1061	1	4	0	120	80	0	0	100
fixed	4	7	9	944722	3	2	2	1	0	852	1	4	0	112	81	0	0	100
fixed	4	7	10	946378	1	4	4	1	0	678	1	4	0	128	82	0	0	100
fixed	4	7	11	947698	5	2	2	1	0	830	1	4	0	112	83	0	0	100
fixed	4	7	12	949105	4	3	3	1	0	802	1	4	0	120	84	0	0	100
fixed	4	8	1	950464	4	1	1	1	0	648	1	4	0	104	85	0	0	100
fixed	4	8	2	951621	1	2	2	1	0	896	1	4	0	112	86	0	0	100
fixed	4	8	3	952919	6	4	4	1	0	736	1	4	0	128	87	0	0	100
fixed	4	8	4	954066	2	1	1	1	0	776	1	4	0	104	88	0	0	100
fixed	4	8	5	955785	5	3	3	1	0	567	1	4	0	120	89	0	0	100
fixed	4	8	6	956806	6	4	4	1	0	708	1	4	0	128	90	0	0	100
fixed	4	8	7	958113	3	1	1	1	0	725	1	4	0	104	91	0	0	100
fixed	4	8	8	959331	2	3	3	1	0	1465	1	4	0	120	92	0	0	100
fixed	4	8	9	961725	3	2	2	1	0	611	1	4	0	112	93	0	0	100
fixed	4	8	10	963327	1	4	4	1	0	711	1	4	0	128	94	0	0	100
fixed	4	8	11	964667	5	2	2	1	0	1031	1	4	0	112	95	0	0	100
fixed	4	8	12	966355	4	3	3	1	0	887	1	4	0	120	96	0	0	100
fixed	4	9	1	968442	4	1	1	1	0	591	1	4	0	104	97	0	0	100
fixed	4	9	2	969883	1	2	2	1	0	930	1	4	0	112	98	0	0	100
fixed	4	9	3	971099	6	4	4	1	0	734	1	4	0	128	99	0	0	100
fixed	4	9	4	972605	2	1	1	1	0	831	1	4	0	104	100	0	0	100
fixed	4	9	5	973831	5	3	3	1	0	1235	1	4	0	120	101	0	0	100
fixed	4	9	6	975750	6	4	4	1	0	674	1	4	0	128	102	0	0	100
fixed	4	9	7	977262	3	1	1	1	0	745	1	4	0	104	103	0	0	100
fixed	4	9	8	978549	2	3	3	1	0	1163	1	4	0	120	104	0	0	100
fixed	4	9	9	980721	3	2	2	1	0	607	1	4	0	112	105	0	0	100
fixed	4	9	10	982273	1	4	4	1	0	693	1	4	0	128	106	0	0	100
fixed	4	9	11	983889	5	2	2	1	0	1121	1	4	0	112	107	0	0	100
fixed	4	9	12	985824	4	3	3	1	0	1031	1	4	0	120	108	0	0	100
fixed	4	10	1	988006	4	1	1	1	0	578	1	4	0	104	109	0	0	100
fixed	4	10	2	989214	1	2	2	1	0	775	1	4	0	112	110	0	0	100
fixed	4	10	3	990850	6	4	4	1	0	578	1	4	0	128	111	0	0	100
fixed	4	10	4	992178	2	1	1	1	0	778	1	4	0	104	112	0	0	100
fixed	4	10	5	993576	5	3	3	1	0	591	1	4	0	120	113	0	0	100
fixed	4	10	6	995142	6	4	4	1	0	660	1	4	0	128	114	0	0	100
fixed	4	10	7	996126	3	1	1	1	0	978	1	4	0	104	115	0	0	100
fixed	4	10	8	997474	2	3	3	1	0	1330	1	4	0	120	116	0	0	100
fixed	4	10	9	999715	3	2	2	1	0	906	1	4	0	112	117	0	0	100
fixed	4	10	10	1001152	1	4	4	1	0	717	1	4	0	128	118	0	0	100
fixed	4	10	11	1002813	5	2	2	1	0	1095	1	4	0	112	119	0	0	100
fixed	4	10	12	1004653	4	3	3	1	0	1121	1	4	0	120	120	0	0	100
fixed	5	1	1	1006800	4	1	1	1	0	582	1	4	0	136	1	0	0	100
fixed	5	1	2	1007832	1	2	2	1	0	891	1	4	0	144	2	0	0	100
fixed	5	1	3	1009405	6	4	4	1	0	856	1	4	0	160	3	0	0	100
fixed	5	1	4	1010720	2	1	1	1	0	817	1	4	0	136	4	0	0	100
fixed	5	1	5	1012201	5	3	3	1	0	1506	1	4	0	152	5	0	0	100
fixed	5	1	6	1014470	6	4	4	1	0	689	1	4	0	160	6	0	0	100
fixed	5	1	7	1016049	3	1	1	1	0	807	1	4	0	136	7	0	0	100
fixed	5	1	8	1017463	2	3	3	1	0	1283	1	4	0	152	8	0	0	100
fixed	5	1	9	1019609	3	2	2	1	0	960	1	4	0	144	9	0	0	100
fixed	5	1	10	1021408	1	4	4	1	0	860	1	4	0	160	10	0	0	100
fixed	5	1	11	1023020	5	2	2	1	0	1064	1	4	0	144	11	0	0	100
fixed	5	1	12	1024506	4	3	3	1	0	921	1	4	0	152	12	0	0	100
fixed	5	2	1	1026701	4	1	1	1	0	531	1	4	0	136	13	0	0	100
fixed	5	2	2	1027821	1	2	2	1	0	1012	1	4	0	144	14	0	0	100
fixed	5	2	3	1029300	6	4	4	1	0	830	1	4	0	160	15	0	0	100
fixed	5	2	4	1030792	2	1	1	1	0	942	1	4	0	136	16	0	0	100
fixed	5	2	5	1032400	5	3	3	1	0	1066	1	4	0	152	17	0	0	100
fixed	5	2	6	1033889	6	4	4	1	0	787	1	4	0	160	18	0	0	100
fixed	5	2	7	1035490	3	1	1	1	0	927	1	4	0	136	19	0	0	100
fixed	5	2	8	1037029	2	3	3	1	0	1174	1	4	0	152	20	0	0	100
fixed	5	2	9	1039150	3	2	2	1	0	668	1	4	0	144	21	0	0	100
fixed	5	2	10	1040845	1	4	4	1	0	1181	1	4	0	160	22	0	0	100
fixed	5	2	11	1042425	5	2	2	1	0	913	1	4	0	144	23	0	0	100
fixed	5	2	12	1044262	4	3	3	1	0	1188	1	4	0	152	24	0	0	100
fixed	5	3	1	1046583	4	1	1	1	0	497	1	4	0	136	25	0	0	100
fixed	5	3	2	1047636	1	2	2	1	0	741	1	4	0	144	26	0	0	100
fixed	5	3	3	1049006	6	4	4	1	0	707	1	4	0	160	27	0	0	100
fixed	5	3	4	1050572	2	1	1	1	0	937	1	4	0	136	28	0	0	100
fixed	5	3	5	1052378	5	3	3	1	0	980	1	4	0	152	29	0	0	100
fixed	5	3	6	1054348	6	4	4	1	0	673	1	4	0	160	30	0	0	100
fixed	5	3	7	1055390	3	1	1	1	0	836	1	4	0	136	31	0	0	100
fixed	5	3	8	1056993	2	3	3	1	0	1104	1	4	0	152	32	0	0	100
fixed	5	3	9	1059115	3	2	2	1	0	830	1	4	0	144	33	0	0	100
fixed	5	3	10	1060949	1	4	4	1	0	745	1	4	0	160	34	0	0	100
fixed	5	3	11	1062236	5	2	2	1	0	698	1	4	0	144	35	0	0	100
fixed	5	3	12	1063707	4	3	3	1	0	1116	1	4	0	152	36	0	0	100
fixed	5	4	1	1065914	4	1	1	1	0	558	1	4	0	136	37	0	0	100
fixed	5	4	2	1067250	1	2	2	1	0	854	1	4	0	144	38	0	0	100
fixed	5	4	3	1068684	6	4	4	1	0	778	1	4	0	160	39	0	0	100
fixed	5	4	4	1070188	2	1	1	1	0	834	1	4	0	136	40	0	0	100
fixed	5	4	5	1071518	5	3	3	1	0	1321	1	4	0	152	41	0	0	100
fixed	5	4	6	1073349	6	4	4	1	0	764	1	4	0	160	42	0	0	100
fixed	5	4	7	1074624	3	1	1	1	0	622	1	4	0	136	43	0	0	100
fixed	5	4	8	1075965	2	3	3	1	0	1109	1	4	0	152	44	0	0	100
fixed	5	4	9	1078090	3	2	2	1	0	651	1	4	0	144	45	0	0	100
fixed	5	4	10	1079445	1	4	4	1	0	569	1	4	0	160	46	0	0	100
fixed	5	4	11	1081023	5	2	2	1	0	727	1	4	0	144	47	0	0	100
fixed	5	4	12	1082340	4	3	3	1	0	719	1	4	0	152	48	0	0	100
fixed	5	5	1	1083891	4	1	1	1	0	565	1	4	0	136	49	0	0	100
fixed	5	5	2	1084772	1	2	2	2	0	944	2	4	0	144	50	0	0	100
fixed	5	5	3	1086391	6	4	4	1	0	788	1	4	0	160	51	0	0	100
fixed	5	5	4	1088065	2	1	1	1	0	805	1	4	0	136	52	0	0	100
fixed	5	5	5	1089231	5	3	3	1	0	947	1	4	0	152	53	0	0	100
fixed	5	5	6	1090759	6	4	4	1	0	738	1	4	0	160	54	0	0	100
fixed	5	5	7	1092212	3	1	1	1	0	901	1	4	0	136	55	0	0	100
fixed	5	5	8	1093828	2	3	3	1	0	913	1	4	0	152	56	0	0	100
fixed	5	5	9	1095198	3	2	2	1	0	815	1	4	0	144	57	0	0	100
fixed	5	5	10	1096302	1	4	4	1	0	768	1	4	0	160	58	0	0	100
fixed	5	5	11	1097753	5	2	2	1	0	706	1	4	0	144	59	0	0	100
fixed	5	5	12	1099051	4	3	3	1	0	1451	1	4	0	152	60	0	0	100
fixed	5	6	1	1101084	4	1	1	1	0	685	1	4	0	136	61	0	0	100
fixed	5	6	2	1102333	1	2	2	1	0	1120	1	4	0	144	62	0	0	100
fixed	5	6	3	1104073	6	4	4	1	0	638	1	4	0	160	63	0	0	100
fixed	5	6	4	1105389	2	1	1	1	0	743	1	4	0	136	64	0	0	100
fixed	5	6	5	1106793	5	3	3	1	0	692	1	4	0	152	65	0	0	100
fixed	5	6	6	1108147	6	4	4	1	0	1306	1	4	0	160	66	0	0	100
fixed	5	6	7	1109747	3	1	1	1	0	742	1	4	0	136	67	0	0	100
fixed	5	6	8	1111350	2	3	3	1	0	1154	1	4	0	152	68	0	0	100
fixed	5	6	9	1112929	3	2	2	1	0	767	1	4	0	144	69	0	0	100
fixed	5	6	10	1114705	1	4	4	1	0	676	1	4	0	160	70	0	0	100
fixed	5	6	11	1116218	5	2	2	1	0	876	1	4	0	144	71	0	0	100
fixed	5	6	12	1117889	4	3	3	1	0	1997	1	4	0	152	72	0	0	100
fixed	5	7	1	1120448	4	1	1	1	0	665	1	4	0	136	73	0	0	100
fixed	5	7	2	1121967	1	2	2	1	0	984	1	4	0	144	74	0	0	100
fixed	5	7	3	1123868	6	4	4	1	0	808	1	4	0	160	75	0	0	100
fixed	5	7	4	1125183	2	1	1	1	0	753	1	4	0	136	76	0	0	100
fixed	5	7	5	1126978	5	3	3	1	0	660	1	4	0	152	77	0	0	100
fixed	5	7	6	1128238	6	4	4	1	0	679	1	4	0	160	78	0	0	100
fixed	5	7	7	1129749	3	1	1	1	0	735	1	4	0	136	79	0	0	100
fixed	5	7	8	1131310	2	3	3	1	0	1037	1	4	0	152	80	0	0	100
fixed	5	7	9	1132951	3	2	2	1	0	591	1	4	0	144	81	0	0	100
fixed	5	7	10	1134502	1	4	4	1	0	606	1	4	0	160	82	0	0	100
fixed	5	7	11	1135483	5	2	2	1	0	788	1	4	0	144	83	0	0	100
fixed	5	7	12	1136987	4	3	3	2	0	1756	2	4	0	152	84	0	0	100
fixed	5	8	1	1139495	4	1	1	1	0	738	1	4	0	136	85	0	0	100
fixed	5	8	2	1140797	1	2	0	1	2	0	3	4	0	144	85	0	1	99
fixed	5	8	3	1143920	6	4	4	1	0	1127	1	4	0	160	86	0	1	99
fixed	5	8	4	1145546	2	1	1	1	0	586	1	4	0	136	87	0	1	99
fixed	5	8	5	1146888	5	3	3	1	0	2057	1	4	0	152	88	0	1	99
fixed	5	8	6	1149402	6	4	4	1	0	894	1	4	0	160	89	0	1	99
fixed	5	8	7	1151336	3	1	1	1	0	669	1	4	0	136	90	0	1	99
fixed	5	8	8	1152838	2	3	3	1	0	1389	1	4	0	152	91	0	1	99
fixed	5	8	9	1154650	3	2	2	1	0	712	1	4	0	144	92	0	1	99
fixed	5	8	10	1156004	1	4	4	1	0	727	1	4	0	160	93	0	1	99
fixed	5	8	11	1157380	5	2	2	1	0	989	1	4	0	144	94	0	1	99
fixed	5	8	12	1158846	4	3	3	1	0	799	1	4	0	152	95	0	1	99
fixed	5	9	1	1160413	4	1	1	1	0	612	1	4	0	136	96	0	1	99
fixed	5	9	2	1161356	1	2	2	1	0	924	1	4	0	144	97	0	1	99
fixed	5	9	3	1162814	6	4	4	1	0	695	1	4	0	160	98	0	1	99
fixed	5	9	4	1164259	2	1	1	1	0	1153	1	4	0	136	99	0	1	99
fixed	5	9	5	1165774	5	3	3	1	0	1121	1	4	0	152	100	0	1	99
fixed	5	9	6	1167461	6	4	4	1	0	961	1	4	0	160	101	0	1	99
fixed	5	9	7	1169346	3	1	1	1	0	626	1	4	0	136	102	0	1	99
fixed	5	9	8	1170389	2	3	3	1	0	1894	1	4	0	152	103	0	1	99
fixed	5	9	9	1173203	3	2	2	1	0	991	1	4	0	144	104	0	1	99
fixed	5	9	10	1174704	1	4	4	1	0	1343	1	4	0	160	105	0	1	99
fixed	5	9	11	1177061	5	2	2	1	0	715	1	4	0	144	106	0	1	99
fixed	5	9	12	1178405	4	3	3	1	0	1226	1	4	0	152	107	0	1	99
fixed	5	10	1	1180913	4	1	1	1	0	808	1	4	0	136	108	0	1	99
fixed	5	10	2	1182456	1	2	2	1	0	1007	1	4	0	144	109	0	1	99
fixed	5	10	3	1183772	6	4	4	1	0	719	1	4	0	160	110	0	1	99
fixed	5	10	4	1184983	2	1	1	1	0	748	1	4	0	136	111	0	1	99
fixed	5	10	5	1186243	5	3	3	1	0	1206	1	4	0	152	112	0	1	99
fixed	5	10	6	1188371	6	4	4	1	0	940	1	4	0	160	113	0	1	99
fixed	5	10	7	1190293	3	1	1	1	0	755	1	4	0	136	114	0	1	99
fixed	5	10	8	1191575	2	3	3	1	0	1252	1	4	0	152	115	0	1	99
fixed	5	10	9	1193138	3	2	2	1	0	826	1	4	0	144	116	0	1	99
fixed	5	10	10	1194880	1	4	4	1	0	664	1	4	0	160	117	0	1	99
fixed	5	10	11	1196506	5	2	2	1	0	924	1	4	0	144	118	0	1	99
fixed	5	10	12	1197972	4	3	3	1	0	1077	1	4	0	152	119	0	1	99
random	6	1	1	1306001	6	1	1	1	0	1062	1	4	0	168	1	0	0	100
random	6	1	2	1307981	4	4	4	1	0	970	1	4	0	192	2	0	0	100
random	6	1	3	1309534	2	2	2	1	0	696	1	4	0	176	3	0	0	100
random	6	1	4	1310969	3	3	3	1	0	651	1	4	0	184	4	0	0	100
random	6	1	5	1312012	5	2	2	1	0	815	1	4	0	176	5	0	0	100
random	6	1	6	1313555	1	4	4	1	0	750	1	4	0	192	6	0	0	100
random	6	1	7	1314782	6	1	1	1	0	586	1	4	0	168	7	0	0	100
random	6	1	8	1316403	2	3	3	1	0	445	1	4	0	184	8	0	0	100
random	6	1	9	1317850	4	2	2	1	0	784	1	4	0	176	9	0	0	100
random	6	1	10	1319485	1	1	1	1	0	898	1	4	0	168	10	0	0	100
random	6	1	11	1320934	5	4	4	1	0	726	1	4	0	192	11	0	0	100
random	6	1	12	1322348	3	3	3	1	0	609	1	4	0	184	12	0	0	100
random	6	1	13	1323730	5	2	2	1	0	663	1	4	0	176	13	0	0	100
random	6	1	14	1325351	1	4	4	1	0	746	1	4	0	192	14	0	0	100
random	6	1	15	1326598	3	1	1	1	0	750	1	4	0	168	15	0	0	100
random	6	1	16	1328054	4	3	3	1	0	1008	1	4	0	184	16	0	0	100
random	6	1	17	1329599	6	4	4	1	0	662	1	4	0	192	17	0	0	100
random	6	1	18	1330912	2	1	1	1	0	894	1	4	0	168	18	0	0	100
random	6	1	19	1332467	5	3	3	1	0	1333	1	4	0	184	19	0	0	100
random	6	1	20	1334204	2	2	0	0	2	0	3	4	0	176	19	0	1	95
random	6	1	21	1337515	3	3	3	1	0	1335	1	4	0	184	20	0	1	95
random	6	1	22	1339301	6	1	1	1	0	811	1	4	0	168	21	0	1	95
random	6	1	23	1341091	4	2	2	1	0	559	1	4	0	176	22	0	1	96
random	6	1	24	1342395	1	4	4	1	0	624	1	4	0	192	23	0	1	96
random	6	1	25	1343762	4	3	3	1	0	734	1	4	0	184	24	0	1	96
random	6	1	26	1344874	2	1	1	1	0	888	1	4	0	168	25	0	1	96
random	6	1	27	1346721	5	2	2	1	0	721	1	4	0	176	26	0	1	96
random	6	1	28	1348222	6	4	4	1	0	681	1	4	0	192	27	0	1	96
random	6	1	29	1349663	1	3	3	1	0	588	1	4	0	184	28	0	1	97
random	6	1	30	1350679	5	2	2	1	0	881	1	4	0	176	29	0	1	97
random	6	1	31	1352239	2	1	1	1	0	735	1	4	0	168	30	0	1	97
random	6	1	32	1353987	3	3	3	1	0	1709	1	4	0	184	31	0	1	97
random	6	1	33	1356141	6	4	4	1	0	930	1	4	0	192	32	0	1	97
random	6	1	34	1357535	4	2	2	1	0	711	1	4	0	176	33	0	1	97
random	6	1	35	1358740	3	4	4	1	0	892	1	4	0	192	34	0	1	97
random	6	1	36	1360578	1	1	1	1	0	606	1	4	0	168	35	0	1	97
random	6	1	37	1361790	3	4	4	1	0	1115	1	4	0	192	36	0	1	97
random	6	1	38	1363894	5	3	3	1	0	993	1	4	0	184	37	0	1	97
random	6	1	39	1365814	6	1	1	1	0	792	1	4	0	168	38	0	1	97
random	6	1	40	1367445	1	2	2	1	0	707	1	4	0	176	39	0	1	98
random	6	1	41	1369056	2	3	3	1	0	871	1	4	0	184	40	0	1	98
random	6	1	42	1370458	4	4	4	1	0	915	1	4	0	192	41	0	1	98
random	6	1	43	1371681	1	2	2	1	0	1008	1	4	0	176	42	0	1	98
random	6	1	44	1373461	6	3	3	2	0	1869	2	4	0	184	43	0	1	98
random	6	1	45	1376176	3	1	1	1	0	809	1	4	0	168	44	0	1	98
random	6	1	46	1377888	4	4	4	1	0	897	1	4	0	192	45	0	1	98
random	6	1	47	1379532	2	2	2	1	0	995	1	4	0	176	46	0	1	98
random	6	1	48	1381407	5	1	1	1	0	780	1	4	0	168	47	0	1	98
random	6	1	49	1382808	2	3	3	1	0	824	1	4	0	184	48	0	1	98
random	6	1	50	1384183	3	1	1	1	0	814	1	4	0	168	49	0	1	98
random	6	1	51	1385627	1	4	4	1	0	890	1	4	0	192	50	0	1	98
random	6	1	52	1387172	5	3	3	1	0	1536	1	4	0	184	51	0	1	98
random	6	1	53	1389649	3	2	2	1	0	527	1	4	0	176	52	0	1	98
random	6	1	54	1390908	6	4	4	1	0	945	1	4	0	192	53	0	1	98
random	6	1	55	1392833	4	2	2	1	0	912	1	4	0	176	54	0	1	98
random	6	1	56	1394052	1	1	1	1	0	1036	1	4	0	168	55	0	1	98
random	6	1	57	1395691	5	4	4	1	0	943	1	4	0	192	56	0	1	98
random	6	1	58	1397495	2	1	1	1	0	890	1	4	0	168	57	0	1	98
random	6	1	59	1398698	6	2	2	1	0	1071	1	4	0	176	58	0	1	98
random	6	1	60	1400116	4	3	3	1	0	1131	1	4	0	184	59	0	1	98
random	6	1	61	1401938	1	2	2	1	0	1142	1	4	0	176	60	0	1	98
random	6	1	62	1403654	6	4	4	1	0	798	1	4	0	192	61	0	1	98
random	6	1	63	1404763	4	1	1	1	0	975	1	4	0	168	62	0	1	98
random	6	1	64	1406279	2	2	2	1	0	1199	1	4	0	176	63	0	1	98
random	6	1	65	1407818	4	3	3	1	0	1029	1	4	0	184	64	0	1	98
random	6	1	66	1409464	3	1	1	1	0	1224	1	4	0	168	65	0	1	98
random	6	1	67	1411095	1	3	3	1	0	1386	1	4	0	184	66	0	1	99
random	6	1	68	1413206	5	4	4	1	0	1041	1	4	0	192	67	0	1	99
random	6	1	69	1414576	2	2	2	1	0	1231	1	4	0	176	68	0	1	99
random	6	1	70	1416720	3	1	1	1	0	661	1	4	0	168	69	0	1	99
random	6	1	71	1418251	5	4	4	1	0	1011	1	4	0	192	70	0	1	99
random	6	1	72	1419826	6	3	3	1	0	1233	1	4	0	184	71	0	1	99
random	6	1	73	1421754	2	1	1	1	0	727	1	4	0	168	72	0	1	99
random	6	1	74	1423364	5	3	3	1	0	1195	1	4	0	184	73	0	1	99
random	6	1	75	1425529	1	4	4	1	0	703	1	4	0	192	74	0	1	99
random	6	1	76	1427035	6	2	2	1	0	679	1	4	0	176	75	0	1	99
random	6	1	77	1428136	2	1	1	1	0	849	1	4	0	168	76	0	1	99
random	6	1	78	1429831	4	4	4	1	0	793	1	4	0	192	77	0	1	99
random	6	1	79	1431174	3	2	2	1	0	848	1	4	0	176	78	0	1	99
random	6	1	80	1432352	4	3	3	1	0	934	1	4	0	184	79	0	1	99
random	6	1	81	1434218	1	4	0	0	2	0	3	4	0	192	79	0	2	98
random	6	1	82	1437039	5	1	1	1	0	2103	1	4	0	168	80	0	2	98
random	6	1	83	1439703	3	2	2	1	0	903	1	4	0	176	81	0	2	98
random	6	1	84	1441565	6	3	3	1	0	832	1	4	0	184	82	0	2	98
random	6	1	85	1443390	3	2	2	1	0	882	1	4	0	176	83	0	2	98
random	6	1	86	1444701	1	3	3	1	0	1195	1	4	0	184	84	0	2	98
random	6	1	87	1446446	4	4	4	1	0	993	1	4	0	192	85	0	2	98
random	6	1	88	1448366	2	1	1	1	0	936	1	4	0	168	86	0	2	98
random	6	1	89	1449801	6	4	4	1	0	1571	1	4	0	192	87	0	2	98
random	6	1	90	1452269	3	3	3	1	0	1187	1	4	0	184	88	0	2	98
random	6	1	91	1454442	5	4	4	1	0	975	1	4	0	192	89	0	2	98
random	6	1	92	1455915	1	2	2	1	0	832	1	4	0	176	90	0	2	98
random	6	1	93	1457612	5	1	1	1	0	1168	1	4	0	168	91	0	2	98
random	6	1	94	1459679	4	3	3	1	0	1208	1	4	0	184	92	0	2	98
random	6	1	95	1461670	6	1	1	1	0	924	1	4	0	168	93	0	2	98
random	6	1	96	1462901	2	2	2	1	0	865	1	4	0	176	94	0	2	98
random	6	1	97	1464743	4	3	3	1	0	1074	1	4	0	184	95	0	2	98
random	6	1	98	1466612	3	2	2	1	0	843	1	4	0	176	96	0	2	98
random	6	1	99	1468099	6	3	3	1	0	1108	1	4	0	184	97	0	2	98
random	6	1	100	1470055	1	4	4	1	0	609	1	4	0	192	98	0	2	98
random	6	1	101	1471254	4	1	1	1	0	727	1	4	0	168	99	0	2	98
random	6	1	102	1472823	5	2	2	1	0	916	1	4	0	176	100	0	2	98
random	6	1	103	1474717	2	4	4	1	0	596	1	4	0	192	101	0	2	98
random	6	1	104	1475989	3	1	1	1	0	662	1	4	0	168	102	0	2	98
random	6	1	105	1477406	1	3	3	1	0	578	1	4	0	184	103	0	2	98
random	6	1	106	1478450	2	2	2	1	0	606	1	4	0	176	104	0	2	98
random	6	1	107	1480018	5	4	4	1	0	835	1	4	0	192	105	0	2	98
random	6	1	108	1481192	6	1	1	1	0	690	1	4	0	168	106	0	2	98
random	6	1	109	1483154	5	4	4	1	0	926	1	4	0	192	107	0	2	98
random	6	1	110	1484734	6	3	3	1	0	1092	1	4	0	184	108	0	2	98
random	6	1	111	1486592	2	2	2	1	0	573	1	4	0	176	109	0	2	98
random	6	1	112	1487514	3	1	1	1	0	766	1	4	0	168	110	0	2	98
random	6	1	113	1488755	1	2	2	1	0	881	1	4	0	176	111	0	2	98
random	6	1	114	1490593	2	3	3	1	0	883	1	4	0	184	112	0	2	98
random	6	1	115	1491832	3	1	1	1	0	727	1	4	0	168	113	0	2	98
random	6	1	116	1493152	4	4	4	1	0	639	1	4	0	192	114	0	2	98
random	6	1	117	1494309	6	1	1	1	0	806	1	4	0	168	115	0	2	98
random	6	1	118	1495797	5	3	3	1	0	1143	1	4	0	184	116	0	2	98
random	6	1	119	1497966	1	4	4	1	0	699	1	4	0	192	117	0	2	98
random	6	1	120	1499210	4	2	2	1	0	782	1	4	0	176	118	0	2	98
fixed	7	1	1	1501464	4	1	1	1	0	751	1	4	0	200	1	0	0	100
fixed	7	1	2	1502679	1	2	2	1	0	836	1	4	0	208	2	0	0	100
fixed	7	1	3	1504368	6	4	4	1	0	620	1	4	0	224	3	0	0	100
fixed	7	1	4	1505481	2	1	1	1	0	733	1	4	0	200	4	0	0	100
fixed	7	1	5	1506721	5	3	3	1	0	544	1	4	0	216	5	0	0	100
fixed	7	1	6	1507903	6	4	4	1	0	646	1	4	0	224	6	0	0	100
fixed	7	1	7	1509432	3	1	1	1	0	798	1	4	0	200	7	0	0	100
fixed	7	1	8	1510939	2	3	3	1	0	1301	1	4	0	216	8	0	0	100
fixed	7	1	9	1512656	3	2	2	2	0	1261	2	4	0	208	9	0	0	100
fixed	7	1	10	1514699	1	4	4	1	0	694	1	4	0	224	10	0	0	100
fixed	7	1	11	1516245	5	2	2	1	0	725	1	4	0	208	11	0	0	100
fixed	7	1	12	1517747	4	3	3	1	0	1077	1	4	0	216	12	0	0	100
fixed	7	2	1	1519744	4	1	1	1	0	624	1	4	0	200	1	0	0	8
fixed	7	2	2	1520976	1	2	2	1	0	1349	1	4	0	208	2	0	0	14
fixed	7	2	3	1523080	6	4	4	1	0	652	1	4	0	224	3	0	0	20
fixed	7	2	4	1524310	2	1	1	1	0	751	1	4	0	200	4	0	0	25
fixed	7	2	5	1525790	5	3	3	1	0	1200	1	4	0	216	5	0	0	29
fixed	7	2	6	1527737	6	4	4	1	0	710	1	4	0	224	6	0	0	33
fixed	7	2	7	1529200	3	1	1	1	0	648	1	4	0	200	7	0	0	37
fixed	7	2	8	1530707	2	3	3	1	0	808	1	4	0	216	8	0	0	40
fixed	7	2	9	1532454	3	2	2	1	0	535	1	4	0	208	9	0	0	43
fixed	7	2	10	1533674	1	4	4	1	0	667	1	4	0	224	10	0	0	45
fixed	7	2	11	1534998	5	2	2	1	0	954	1	4	0	208	11	0	0	48
fixed	7	2	12	1536287	4	3	3	1	0	1164	1	4	0	216	12	0	0	50
fixed	7	3	1	1538657	4	1	1	1	0	935	1	4	0	200	1	0	0	4
fixed	7	3	2	1540048	1	2	2	1	0	877	1	4	0	208	2	0	0	8
fixed	7	3	3	1541805	6	4	4	1	0	746	1	4	0	224	3	0	0	11
fixed	7	3	4	1543527	2	1	1	1	0	689	1	4	0	200	4	0	0	14
fixed	7	3	5	1545233	5	3	3	1	0	1089	1	4	0	216	5	0	0	17
fixed	7	3	6	1547260	6	4	4	1	0	947	1	4	0	224	6	0	0	20
fixed	7	3	7	1548842	3	1	1	1	0	608	1	4	0	200	7	0	0	23
fixed	7	3	8	1550403	2	3	3	1	0	1246	1	4	0	216	8	0	0	25
fixed	7	3	9	1552420	3	2	2	1	0	553	1	4	0	208	9	0	0	27
fixed	7	3	10	1553595	1	4	4	1	0	1735	1	4	0	224	10	0	0	29
fixed	7	3	11	1556000	5	2	2	1	0	769	1	4	0	208	11	0	0	31
fixed	7	3	12	1557170	4	3	3	1	0	1095	1	4	0	216	12	0	0	33
fixed	7	4	1	1558924	4	1	1	1	0	685	1	4	0	200	1	0	0	3
fixed	7	4	2	1560545	1	2	2	1	0	960	1	4	0	208	2	0	0	5
fixed	7	4	3	1562075	6	4	4	1	0	728	1	4	0	224	3	0	0	8
fixed	7	4	4	1563400	2	1	1	1	0	783	1	4	0	200	4	0	0	10
fixed	7	4	5	1565180	5	3	3	1	0	1348	1	4	0	216	5	0	0	12
fixed	7	4	6	1567289	6	4	4	1	0	643	1	4	0	224	6	0	0	14
fixed	7	4	7	1568706	3	1	1	1	0	831	1	4	0	200	7	0	0	16
fixed	7	4	8	1570111	2	3	3	1	0	852	1	4	0	216	8	0	0	18
fixed	7	4	9	1571581	3	2	2	1	0	653	1	4	0	208	9	0	0	20
fixed	7	4	10	1572701	1	4	4	1	0	710	1	4	0	224	10	0	0	22
fixed	7	4	11	1574356	5	2	2	1	0	1184	1	4	0	208	11	0	0	23
fixed	7	4	12	1576422	4	3	3	1	0	1192	1	4	0	216	12	0	0	25
fixed	7	5	1	1578822	4	1	1	1	0	762	1	4	0	200	1	0	0	2
fixed	7	5	2	1580429	1	2	2	1	0	950	1	4	0	208	2	0	0	4
fixed	7	5	3	1581767	6	4	4	1	0	750	1	4	0	224	3	0	0	6
fixed	7	5	4	1583453	2	1	1	1	0	638	1	4	0	200	4	0	0	8
fixed	7	5	5	1584667	5	3	3	1	0	987	1	4	0	216	5	0	0	9
fixed	7	5	6	1585985	6	4	4	1	0	867	1	4	0	224	6	0	0	11
fixed	7	5	7	1587673	3	1	1	1	0	764	1	4	0	200	7	0	0	13
fixed	7	5	8	1588842	2	3	3	1	0	1178	1	4	0	216	8	0	0	14
fixed	7	5	9	1590596	3	2	2	1	0	704	1	4	0	208	9	0	0	16
fixed	7	5	10	1591763	1	4	4	1	0	686	1	4	0	224	10	0	0	17
fixed	7	5	11	1593125	5	2	2	1	0	716	1	4	0	208	11	0	0	19
fixed	7	5	12	1594573	4	3	3	1	0	1072	1	4	0	216	12	0	0	20
fixed	7	6	1	1596265	4	1	1	1	0	639	1	4	0	200	1	0	0	2
fixed	7	6	2	1597285	1	2	2	1	0	756	1	4	0	208	2	0	0	3
fixed	7	6	3	1598475	6	4	4	1	0	858	1	4	0	224	3	0	0	5
fixed	7	6	4	1600299	2	1	1	1	0	789	1	4	0	200	4	0	0	6
fixed	7	6	5	1601883	5	3	3	1	0	930	1	4	0	216	5	0	0	8
fixed	7	6	6	1603232	6	4	4	1	0	808	1	4	0	224	6	0	0	9
fixed	7	6	7	1605057	3	1	1	1	0	643	1	4	0	200	7	0	0	10
fixed	7	6	8	1606596	2	3	3	2	0	1138	2	4	0	216	8	0	0	12
fixed	7	6	9	1608520	3	2	2	1	0	745	1	4	0	208	9	0	0	13
fixed	7	6	10	1610172	1	4	4	1	0	1003	1	4	0	224	10	0	0	14
fixed	7	6	11	1612104	5	2	2	1	0	849	1	4	0	208	11	0	0	15
fixed	7	6	12	1613318	4	3	3	1	0	1166	1	4	0	216	12	0	0	17
fixed	7	7	1	1615245	4	1	1	1	0	611	1	4	0	200	1	0	0	1
fixed	7	7	2	1616530	1	2	2	1	0	1013	1	4	0	208	2	0	0	3
fixed	7	7	3	1618027	6	4	4	1	0	742	1	4	0	224	3	0	0	4
fixed	7	7	4	1619618	2	1	1	1	0	683	1	4	0	200	4	0	0	5
fixed	7	7	5	1620690	5	3	3	1	0	1029	1	4	0	216	5	0	0	6
fixed	7	7	6	1622568	6	4	4	1	0	766	1	4	0	224	6	0	0	8
fixed	7	7	7	1623880	3	1	1	1	0	862	1	4	0	200	7	0	0	9
fixed	7	7	8	1625105	2	3	3	1	0	1122	1	4	0	216	8	0	0	10
fixed	7	7	9	1627030	3	2	2	1	0	681	1	4	0	208	9	0	0	11
fixed	7	7	10	1628354	1	4	4	1	0	785	1	4	0	224	10	0	0	12
fixed	7	7	11	1629573	5	2	2	1	0	797	1	4	0	208	11	0	0	13
fixed	7	7	12	1631077	4	3	3	1	0	1285	1	4	0	216	12	0	0	14
fixed	7	8	1	1633490	4	1	1	1	0	591	1	4	0	200	1	0	0	1
fixed	7	8	2	1634889	1	2	2	1	0	844	1	4	0	208	2	0	0	2
fixed	7	8	3	1636603	6	4	4	1	0	723	1	4	0	224	3	0	0	3
fixed	7	8	4	1637801	2	1	1	1	0	824	1	4	0	200	4	0	0	5
fixed	7	8	5	1639490	5	3	3	1	0	697	1	4	0	216	5	0	0	6
fixed	7	8	6	1641098	6	4	4	1	0	885	1	4	0	224	6	0	0	7
fixed	7	8	7	1642311	3	1	1	1	0	889	1	4	0	200	7	0	0	8
fixed	7	8	8	1643838	2	3	3	1	0	1073	1	4	0	216	8	0	0	9
fixed	7	8	9	1645794	3	2	2	1	0	718	1	4	0	208	9	0	0	10
fixed	7	8	10	1646976	1	4	4	1	0	1060	1	4	0	224	10	0	0	11
fixed	7	8	11	1648651	5	2	2	1	0	981	1	4	0	208	11	0	0	12
fixed	7	8	12	1650051	4	3	3	1	0	825	1	4	0	216	12	0	0	13
fixed	7	9	1	1652102	4	1	1	1	0	626	1	4	0	200	1	0	0	1
fixed	7	9	2	1653101	1	2	2	1	0	929	1	4	0	208	2	0	0	2
fixed	7	9	3	1654955	6	4	4	1	0	666	1	4	0	224	3	0	0	3
fixed	7	9	4	1656033	2	1	1	1	0	948	1	4	0	200	4	0	0	4
fixed	7	9	5	1657330	5	3	3	1	0	965	1	4	0	216	5	0	0	5
fixed	7	9	6	1659194	6	4	4	1	0	886	1	4	0	224	6	0	0	6
fixed	7	9	7	1660506	3	1	1	1	0	710	1	4	0	200	7	0	0	7
fixed	7	9	8	1662223	2	3	3	1	0	1198	1	4	0	216	8	0	0	8
fixed	7	9	9	1664122	3	2	2	1	0	710	1	4	0	208	9	0	0	9
fixed	7	9	10	1665740	1	4	4	1	0	801	1	4	0	224	10	0	0	9
fixed	7	9	11	1667374	5	2	2	1	0	836	1	4	0	208	11	0	0	10
fixed	7	9	12	1668840	4	3	3	1	0	990	1	4	0	216	12	0	0	11
fixed	7	10	1	1670865	4	1	1	1	0	560	1	4	0	200	1	0	0	1
fixed	7	10	2	1672105	1	2	2	1	0	1083	1	4	0	208	2	0	0	2
fixed	7	10	3	1673586	6	4	4	1	0	852	1	4	0	224	3	0	0	3
fixed	7	10	4	1675199	2	1	1	1	0	888	1	4	0	200	4	0	0	4
fixed	7	10	5	1676611	5	3	3	2	0	1988	2	4	0	216	5	0	0	4
fixed	7	10	6	1679550	6	4	4	1	0	864	1	4	0	224	6	0	0	5
fixed	7	10	7	1680724	3	1	1	1	0	942	1	4	0	200	7	0	0	6
fixed	7	10	8	1682662	2	3	3	1	0	900	1	4	0	216	8	0	0	7
fixed	7	10	9	1684476	3	2	2	1	0	512	1	4	0	208	9	0	0	8
fixed	7	10	10	1685782	1	4	4	1	0	752	1	4	0	224	10	0	0	8
fixed	7	10	11	1687070	5	2	2	1	0	1169	1	4	0	208	11	0	0	9
fixed	7	10	12	1689110	4	3	3	1	0	1675	1	4	0	216	12	0	0	10
