type	block	sequ.	trial	time	Pos.	Color	Button	NumRsp	Resp_1	RT_1	R_Code	Resp_2	RT_2	Trigg.	n_hit	n_inc	n_miss	score_%

random	1	1	1	1290	6	1	1	1	0	876	1	4	0	8	1	0	0	100
random	1	1	2	3172	4	4	4	1	0	861	1	4	0	32	2	0	0	100
random	1	1	3	4549	2	2	2	1	0	994	1	4	0	16	3	0	0	100
random	1	1	4	6068	3	3	3	1	0	641	1	4	0	24	4	0	0	100
random	1	1	5	7378	5	2	2	1	0	858	1	4	0	16	5	0	0	100
random	1	1	6	9166	1	4	4	1	0	671	1	4	0	32	6	0	0	100
random	1	1	7	10653	6	1	1	1	0	808	1	4	0	8	7	0	0	100
random	1	1	8	12243	2	3	3	1	0	1164	1	4	0	24	8	0	0	100
random	1	1	9	13984	4	2	2	1	0	539	1	4	0	16	9	0	0	100
random	1	1	10	15020	1	1	1	1	0	807	1	4	0	8	10	0	0	100
random	1	1	11	16738	5	4	4	1	0	614	1	4	0	32	11	0	0	100
random	1	1	12	17853	3	3	3	1	0	1007	1	4	0	24	12	0	0	100
random	1	1	13	19753	5	2	2	1	0	646	1	4	0	16	13	0	0	100
random	1	1	14	21221	1	4	4	1	0	848	1	4	0	32	14	0	0	100
random	1	1	15	22525	3	1	1	1	0	720	1	4	0	8	15	0	0	100
random	1	1	16	23577	4	3	3	1	0	949	1	4	0	24	16	0	0	100
random	1	1	17	25454	6	4	4	1	0	925	1	4	0	32	17	0	0	100
random	1	1	18	26708	2	1	1	1	0	855	1	4	0	8	18	0	0	100
random	1	1	19	28153	5	3	3	1	0	811	1	4	0	24	19	0	0	100
random	1	1	20	29941	2	2	2	1	0	679	1	4	0	16	20	0	0	100
random	1	1	21	31301	3	3	3	1	0	1125	1	4	0	24	21	0	0	100
random	1	1	22	33297	6	1	1	1	0	721	1	4	0	8	22	0	0	100
random	1	1	23	34336	4	2	2	1	0	781	1	4	0	16	23	0	0	100
random	1	1	24	35577	1	4	4	1	0	736	1	4	0	32	24	0	0	100
random	1	1	25	37030	4	3	3	1	0	1082	1	4	0	24	25	0	0	100
random	1	1	26	38533	2	1	1	1	0	898	1	4	0	8	26	0	0	100
random	1	1	27	40273	5	2	2	1	0	665	1	4	0	16	27	0	0	100
random	1	1	28	41313	6	4	4	1	0	1245	1	4	0	32	28	0	0	100
random	1	1	29	42884	1	3	3	1	0	1002	1	4	0	24	29	0	0	100
random	1	1	30	44549	5	2	2	1	0	708	1	4	0	16	30	0	0	100
random	1	1	31	45849	2	1	1	1	0	925	1	4	0	8	31	0	0	100
random	1	1	32	47740	3	3	3	1	0	1029	1	4	0	24	32	0	0	100
random	1	1	33	49785	6	4	4	1	0	710	1	4	0	32	33	0	0	100
random	1	1	34	51252	4	2	2	1	0	1000	1	4	0	16	34	0	0	100
random	1	1	35	52818	3	4	4	1	0	805	1	4	0	32	35	0	0	100
random	1	1	36	54438	1	1	1	1	0	1041	1	4	0	8	36	0	0	100
random	1	1	37	56361	3	4	4	1	0	767	1	4	0	32	37	0	0	100
random	1	1	38	57512	5	3	3	1	0	943	1	4	0	24	38	0	0	100
random	1	1	39	58822	6	1	1	1	0	839	1	4	0	8	39	0	0	100
random	1	1	40	60635	1	2	2	1	0	578	1	4	0	16	40	0	0	100
random	1	1	41	61917	2	3	3	1	0	908	1	4	0	24	41	0	0	100
random	1	1	42	63608	4	4	4	1	0	757	1	4	0	32	42	0	0	100
random	1	1	43	65153	1	2	2	1	0	1067	1	4	0	16	43	0	0	100
random	1	1	44	66520	6	3	3	1	0	857	1	4	0	24	44	0	0	100
random	1	1	45	68025	3	1	1	1	0	625	1	4	0	8	45	0	0	100
random	1	1	46	69517	4	4	4	1	0	810	1	4	0	32	46	0	0	100
random	1	1	47	70830	2	2	2	1	0	891	1	4	0	16	47	0	0	100
random	1	1	48	72478	5	1	1	1	0	797	1	4	0	8	48	0	0	100
random	1	1	49	74372	2	3	3	1	0	613	1	4	0	24	49	0	0	100
random	1	1	50	75745	3	1	1	1	0	763	1	4	0	8	50	0	0	100
random	1	1	51	77414	1	4	4	1	0	636	1	4	0	32	51	0	0	100
random	1	1	52	78539	5	3	3	1	0	1148	1	4	0	24	52	0	0	100
random	1	1	53	80395	3	2	2	1	0	510	1	4	0	16	53	0	0	100
random	1	1	54	81556	6	4	4	1	0	708	1	4	0	32	54	0	0	100
random	1	1	55	82994	4	2	0	1	2	0	3	4	0	16	54	0	1	98
random	1	1	56	85838	1	1	1	1	0	935	1	4	0	8	55	0	1	98
random	1	1	57	87417	5	4	4	1	0	1092	1	4	0	32	56	0	1	98
random	1	1	58	89071	2	1	1	1	0	839	1	4	0	8	57	0	1	98
random	1	1	59	90557	6	2	2	1	0	1080	1	4	0	16	58	0	1	98
random	1	1	60	92490	4	3	3	1	0	541	1	4	0	24	59	0	1	98
random	1	1	61	93819	1	2	2	1	0	1037	1	4	0	16	60	0	1	98
random	1	1	62	95874	6	4	4	1	0	718	1	4	0	32	61	0	1	98
random	1	1	63	97413	4	1	1	1	0	901	1	4	0	8	62	0	1	98
random	1	1	64	98643	2	2	2	1	0	1913	1	4	0	16	63	0	1	98
random	1	1	65	101363	4	3	3	1	0	646	1	4	0	24	64	0	1	98
random	1	1	66	102969	3	1	1	1	0	770	1	4	0	8	65	0	1	98
random	1	1	67	104348	1	3	3	1	0	1311	1	4	0	24	66	0	1	99
random	1	1	68	106058	5	4	4	1	0	1191	1	4	0	32	67	0	1	99
random	1	1	69	107703	2	2	2	1	0	1057	1	4	0	16	68	0	1	99
random	1	1	70	109710	3	1	1	1	0	684	1	4	0	8	69	0	1	99
random	1	1	71	111285	5	4	4	1	0	777	1	4	0	32	70	0	1	99
random	1	1	72	112588	6	3	3	1	0	1074	1	4	0	24	71	0	1	99
random	1	1	73	114520	2	1	1	1	0	808	1	4	0	8	72	0	1	99
random	1	1	74	115970	5	3	3	1	0	1123	1	4	0	24	73	0	1	99
random	1	1	75	117696	1	4	4	1	0	874	1	4	0	32	74	0	1	99
random	1	1	76	119058	6	2	2	1	0	728	1	4	0	16	75	0	1	99
random	1	1	77	120514	2	1	1	1	0	819	1	4	0	8	76	0	1	99
random	1	1	78	122264	4	4	4	1	0	1032	1	4	0	32	77	0	1	99
random	1	1	79	123598	3	2	2	1	0	912	1	4	0	16	78	0	1	99
random	1	1	80	125312	4	3	3	1	0	1039	1	4	0	24	79	0	1	99
random	1	1	81	126864	1	4	4	1	0	742	1	4	0	32	80	0	1	99
random	1	1	82	128116	5	1	1	1	0	593	1	4	0	8	81	0	1	99
random	1	1	83	129283	3	2	2	1	0	799	1	4	0	16	82	0	1	99
random	1	1	84	130737	6	3	3	1	0	634	1	4	0	24	83	0	1	99
random	1	1	85	132614	3	2	2	1	0	874	1	4	0	16	84	0	1	99
random	1	1	86	134010	1	3	3	1	0	1015	1	4	0	24	85	0	1	99
random	1	1	87	135799	4	4	4	1	0	723	1	4	0	32	86	0	1	99
random	1	1	88	136835	2	1	1	1	0	583	1	4	0	8	87	0	1	99
random	1	1	89	137879	6	4	4	1	0	963	1	4	0	32	88	0	1	99
random	1	1	90	139472	3	3	3	1	0	1231	1	4	0	24	89	0	1	99
random	1	1	91	141166	5	4	4	1	0	967	1	4	0	32	90	0	1	99
random	1	1	92	142888	1	2	2	1	0	935	1	4	0	16	91	0	1	99
random	1	1	93	144538	5	1	1	1	0	713	1	4	0	8	92	0	1	99
random	1	1	94	145803	4	3	3	1	0	1331	1	4	0	24	93	0	1	99
random	1	1	95	147882	6	1	1	1	0	875	1	4	0	8	94	0	1	99
random	1	1	96	149286	2	2	2	1	0	807	1	4	0	16	95	0	1	99
random	1	1	97	151260	4	3	3	1	0	1212	1	4	0	24	96	0	1	99
random	1	1	98	153181	3	2	2	1	0	818	1	4	0	16	97	0	1	99
random	1	1	99	155020	6	3	3	1	0	1141	1	4	0	24	98	0	1	99
random	1	1	100	156462	1	4	4	1	0	816	1	4	0	32	99	0	1	99
random	1	1	101	157774	4	1	1	1	0	624	1	4	0	8	100	0	1	99
random	1	1	102	158819	5	2	2	1	0	748	1	4	0	16	101	0	1	99
random	1	1	103	159950	2	4	4	1	0	716	1	4	0	32	102	0	1	99
random	1	1	104	161344	3	1	1	1	0	817	1	4	0	8	103	0	1	99
random	1	1	105	163173	1	3	3	1	0	851	1	4	0	24	104	0	1	99
random	1	1	106	165024	2	2	2	1	0	638	1	4	0	16	105	0	1	99
random	1	1	107	166689	5	4	4	1	0	751	1	4	0	32	106	0	1	99
random	1	1	108	167926	6	1	1	1	0	834	1	4	0	8	107	0	1	99
random	1	1	109	169989	5	4	4	1	0	859	1	4	0	32	108	0	1	99
random	1	1	110	171775	6	3	3	1	0	1047	1	4	0	24	109	0	1	99
random	1	1	111	173846	2	2	2	1	0	455	1	4	0	16	110	0	1	99
random	1	1	112	175035	3	1	1	1	0	477	1	4	0	8	111	0	1	99
random	1	1	113	176526	1	2	2	1	0	1270	1	4	0	16	112	0	1	99
random	1	1	114	178397	2	3	3	1	0	1039	1	4	0	24	113	0	1	99
random	1	1	115	180043	3	1	1	1	0	689	1	4	0	8	114	0	1	99
random	1	1	116	181745	4	4	4	1	0	801	1	4	0	32	115	0	1	99
random	1	1	117	183366	6	1	1	1	0	661	1	4	0	8	116	0	1	99
random	1	1	118	184612	5	3	3	1	0	1167	1	4	0	24	117	0	1	99
random	1	1	119	186371	1	4	4	1	0	661	1	4	0	32	118	0	1	99
random	1	1	120	188053	4	2	2	1	0	654	1	4	0	16	119	0	1	99
fixed	2	1	1	190053	4	1	1	1	0	745	1	4	0	40	1	0	0	100
fixed	2	1	2	191655	1	2	2	1	0	1006	1	4	0	48	2	0	0	100
fixed	2	1	3	193531	6	4	4	1	0	781	1	4	0	64	3	0	0	100
fixed	2	1	4	194791	2	1	1	1	0	777	1	4	0	40	4	0	0	100
fixed	2	1	5	196600	5	3	3	1	0	1140	1	4	0	56	5	0	0	100
fixed	2	1	6	198570	6	4	4	1	0	793	1	4	0	64	6	0	0	100
fixed	2	1	7	200041	3	1	1	1	0	914	1	4	0	40	7	0	0	100
fixed	2	1	8	201737	2	3	3	1	0	1522	1	4	0	56	8	0	0	100
fixed	2	1	9	203718	3	2	2	1	0	607	1	4	0	48	9	0	0	100
fixed	2	1	10	204988	1	4	4	1	0	881	1	4	0	64	10	0	0	100
fixed	2	1	11	206681	5	2	2	1	0	1129	1	4	0	48	11	0	0	100
fixed	2	1	12	208848	4	3	3	1	0	1053	1	4	0	56	12	0	0	100
fixed	2	2	1	211023	4	1	1	1	0	529	1	4	0	40	13	0	0	100
fixed	2	2	2	212217	1	2	2	1	0	950	1	4	0	48	14	0	0	100
fixed	2	2	3	213557	6	4	4	1	0	742	1	4	0	64	15	0	0	100
fixed	2	2	4	215170	2	1	1	1	0	801	1	4	0	40	16	0	0	100
fixed	2	2	5	216599	5	3	3	1	0	749	1	4	0	56	17	0	0	100
fixed	2	2	6	217888	6	4	4	1	0	734	1	4	0	64	18	0	0	100
fixed	2	2	7	218994	3	1	1	1	0	799	1	4	0	40	19	0	0	100
fixed	2	2	8	220250	2	3	3	1	0	1154	1	4	0	56	20	0	0	100
fixed	2	2	9	222434	3	2	2	1	0	453	1	4	0	48	21	0	0	100
fixed	2	2	10	223730	1	4	4	1	0	1007	1	4	0	64	22	0	0	100
fixed	2	2	11	225374	5	2	2	1	0	1137	1	4	0	48	23	0	0	100
fixed	2	2	12	227218	4	3	3	1	0	1427	1	4	0	56	24	0	0	100
fixed	2	3	1	229368	4	1	1	1	0	592	1	4	0	40	25	0	0	100
fixed	2	3	2	230385	1	2	2	1	0	1012	1	4	0	48	26	0	0	100
fixed	2	3	3	231703	6	4	4	1	0	1005	1	4	0	64	27	0	0	100
fixed	2	3	4	233551	2	1	1	1	0	759	1	4	0	40	28	0	0	100
fixed	2	3	5	234774	5	3	3	1	0	1187	1	4	0	56	29	0	0	100
fixed	2	3	6	236435	6	4	4	1	0	924	1	4	0	64	30	0	0	100
fixed	2	3	7	238126	3	1	1	1	0	525	1	4	0	40	31	0	0	100
fixed	2	3	8	239548	2	3	3	1	0	1073	1	4	0	56	32	0	0	100
fixed	2	3	9	240937	3	2	2	1	0	638	1	4	0	48	33	0	0	100
fixed	2	3	10	242498	1	4	4	1	0	795	1	4	0	64	34	0	0	100
fixed	2	3	11	244312	5	2	2	1	0	775	1	4	0	48	35	0	0	100
fixed	2	3	12	245924	4	3	3	1	0	1098	1	4	0	56	36	0	0	100
fixed	2	4	1	247797	4	1	1	1	0	555	1	4	0	40	37	0	0	100
fixed	2	4	2	249315	1	2	2	1	0	1755	1	4	0	48	38	0	0	100
fixed	2	4	3	251619	6	4	4	1	0	1450	1	4	0	64	39	0	0	100
fixed	2	4	4	253867	2	1	1	1	0	746	1	4	0	40	40	0	0	100
fixed	2	4	5	255027	5	3	3	1	0	1081	1	4	0	56	41	0	0	100
fixed	2	4	6	256934	6	4	4	1	0	816	1	4	0	64	42	0	0	100
fixed	2	4	7	258589	3	1	1	1	0	762	1	4	0	40	43	0	0	100
fixed	2	4	8	259669	2	3	3	1	0	1069	1	4	0	56	44	0	0	100
fixed	2	4	9	261665	3	2	2	1	0	568	1	4	0	48	45	0	0	100
fixed	2	4	10	262891	1	4	4	1	0	844	1	4	0	64	46	0	0	100
fixed	2	4	11	264690	5	2	2	1	0	896	1	4	0	48	47	0	0	100
fixed	2	4	12	265924	4	3	3	1	0	979	1	4	0	56	48	0	0	100
fixed	2	5	1	268063	4	1	1	1	0	577	1	4	0	40	49	0	0	100
fixed	2	5	2	269574	1	2	2	1	0	1257	1	4	0	48	50	0	0	100
fixed	2	5	3	271189	6	4	4	1	0	868	1	4	0	64	51	0	0	100
fixed	2	5	4	272463	2	1	1	1	0	1095	1	4	0	40	52	0	0	100
fixed	2	5	5	274420	5	3	3	1	0	1012	1	4	0	56	53	0	0	100
fixed	2	5	6	276465	6	4	4	1	0	861	1	4	0	64	54	0	0	100
fixed	2	5	7	277919	3	1	1	1	0	655	1	4	0	40	55	0	0	100
fixed	2	5	8	279599	2	3	3	1	0	1040	1	4	0	56	56	0	0	100
fixed	2	5	9	281195	3	2	2	1	0	541	1	4	0	48	57	0	0	100
fixed	2	5	10	282034	1	4	4	1	0	865	1	4	0	64	58	0	0	100
fixed	2	5	11	283592	5	2	2	1	0	951	1	4	0	48	59	0	0	100
fixed	2	5	12	285300	4	3	3	1	0	983	1	4	0	56	60	0	0	100
fixed	2	6	1	287327	4	1	1	1	0	633	1	4	0	40	61	0	0	100
fixed	2	6	2	288511	1	2	2	1	0	911	1	4	0	48	62	0	0	100
fixed	2	6	3	290014	6	4	4	1	0	799	1	4	0	64	63	0	0	100
fixed	2	6	4	291418	2	1	1	1	0	811	1	4	0	40	64	0	0	100
fixed	2	6	5	292543	5	3	3	1	0	1260	1	4	0	56	65	0	0	100
fixed	2	6	6	294583	6	4	4	1	0	918	1	4	0	64	66	0	0	100
fixed	2	6	7	295898	3	1	1	1	0	654	1	4	0	40	67	0	0	100
fixed	2	6	8	297079	2	3	3	1	0	1132	1	4	0	56	68	0	0	100
fixed	2	6	9	298674	3	2	2	1	0	560	1	4	0	48	69	0	0	100
fixed	2	6	10	299788	1	4	4	1	0	1442	1	4	0	64	70	0	0	100
fixed	2	6	11	301583	5	2	2	1	0	877	1	4	0	48	71	0	0	100
fixed	2	6	12	303220	4	3	3	1	0	848	1	4	0	56	72	0	0	100
fixed	2	7	1	305188	4	1	1	1	0	596	1	4	0	40	73	0	0	100
fixed	2	7	2	306777	1	2	2	1	0	785	1	4	0	48	74	0	0	100
fixed	2	7	3	308465	6	4	4	1	0	778	1	4	0	64	75	0	0	100
fixed	2	7	4	309569	2	1	1	1	0	899	1	4	0	40	76	0	0	100
fixed	2	7	5	311239	5	3	3	1	0	1060	1	4	0	56	77	0	0	100
fixed	2	7	6	312967	6	4	4	1	0	683	1	4	0	64	78	0	0	100
fixed	2	7	7	313961	3	1	1	1	0	729	1	4	0	40	79	0	0	100
fixed	2	7	8	315527	2	3	3	1	0	1174	1	4	0	56	80	0	0	100
fixed	2	7	9	317539	3	2	2	1	0	497	1	4	0	48	81	0	0	100
fixed	2	7	10	318952	1	4	4	1	0	645	1	4	0	64	82	0	0	100
fixed	2	7	11	320601	5	2	2	1	0	1024	1	4	0	48	83	0	0	100
fixed	2	7	12	322074	4	3	3	1	0	954	1	4	0	56	84	0	0	100
fixed	2	8	1	324101	4	1	1	1	0	523	1	4	0	40	85	0	0	100
fixed	2	8	2	324946	1	2	2	1	0	912	1	4	0	48	86	0	0	100
fixed	2	8	3	326506	6	4	4	1	0	477	1	4	0	64	87	0	0	100
fixed	2	8	4	327562	2	1	1	1	0	841	1	4	0	40	88	0	0	100
fixed	2	8	5	328876	5	3	3	1	0	818	1	4	0	56	89	0	0	100
fixed	2	8	6	330527	6	4	4	1	0	699	1	4	0	64	90	0	0	100
fixed	2	8	7	331528	3	1	1	1	0	977	1	4	0	40	91	0	0	100
fixed	2	8	8	332833	2	3	3	1	0	1226	1	4	0	56	92	0	0	100
fixed	2	8	9	334886	3	2	2	1	0	475	1	4	0	48	93	0	0	100
fixed	2	8	10	336195	1	4	4	1	0	699	1	4	0	64	94	0	0	100
fixed	2	8	11	337752	5	2	2	1	0	865	1	4	0	48	95	0	0	100
fixed	2	8	12	339567	4	3	3	1	0	1005	1	4	0	56	96	0	0	100
fixed	2	9	1	341644	4	1	1	1	0	492	1	4	0	40	97	0	0	100
fixed	2	9	2	342533	1	2	2	1	0	1271	1	4	0	48	98	0	0	100
fixed	2	9	3	344243	6	4	4	1	0	639	1	4	0	64	99	0	0	100
fixed	2	9	4	345700	2	1	1	1	0	857	1	4	0	40	100	0	0	100
fixed	2	9	5	346879	5	3	3	1	0	1039	1	4	0	56	101	0	0	100
fixed	2	9	6	348407	6	4	4	1	0	838	1	4	0	64	102	0	0	100
fixed	2	9	7	350269	3	1	1	1	0	743	1	4	0	40	103	0	0	100
fixed	2	9	8	351838	2	3	3	1	0	1085	1	4	0	56	104	0	0	100
fixed	2	9	9	353385	3	2	2	1	0	579	1	4	0	48	105	0	0	100
fixed	2	9	10	354243	1	4	4	1	0	1071	1	4	0	64	106	0	0	100
fixed	2	9	11	355790	5	2	2	1	0	862	1	4	0	48	107	0	0	100
fixed	2	9	12	357303	4	3	3	1	0	1093	1	4	0	56	108	0	0	100
fixed	2	10	1	359154	4	1	1	1	0	663	1	4	0	40	109	0	0	100
fixed	2	10	2	360595	1	2	2	1	0	1066	1	4	0	48	110	0	0	100
fixed	2	10	3	362438	6	4	4	1	0	756	1	4	0	64	111	0	0	100
fixed	2	10	4	363954	2	1	1	1	0	691	1	4	0	40	112	0	0	100
fixed	2	10	5	365149	5	3	3	1	0	1033	1	4	0	56	113	0	0	100
fixed	2	10	6	366592	6	4	4	1	0	876	1	4	0	64	114	0	0	100
fixed	2	10	7	367941	3	1	1	1	0	794	1	4	0	40	115	0	0	100
fixed	2	10	8	369438	2	3	3	2	0	1403	2	4	0	56	116	0	0	100
fixed	2	10	9	371291	3	2	2	1	0	861	1	4	0	48	117	0	0	100
fixed	2	10	10	373026	1	4	4	1	0	1003	1	4	0	64	118	0	0	100
fixed	2	10	11	374890	5	2	2	1	0	948	1	4	0	48	119	0	0	100
fixed	2	10	12	376757	4	3	3	1	0	861	1	4	0	56	120	0	0	100
fixed	3	1	1	378883	4	1	1	1	0	587	1	4	0	72	1	0	0	100
fixed	3	1	2	380274	1	2	2	1	0	840	1	4	0	80	2	0	0	100
fixed	3	1	3	381716	6	4	4	1	0	499	1	4	0	96	3	0	0	100
fixed	3	1	4	382570	2	1	1	1	0	1023	1	4	0	72	4	0	0	100
fixed	3	1	5	384505	5	3	3	1	0	661	1	4	0	88	5	0	0	100
fixed	3	1	6	385645	6	4	4	1	0	885	1	4	0	96	6	0	0	100
fixed	3	1	7	386919	3	1	1	1	0	662	1	4	0	72	7	0	0	100
fixed	3	1	8	388361	2	3	3	1	0	954	1	4	0	88	8	0	0	100
fixed	3	1	9	389827	3	2	2	1	0	699	1	4	0	80	9	0	0	100
fixed	3	1	10	390847	1	4	4	1	0	832	1	4	0	96	10	0	0	100
fixed	3	1	11	392277	5	2	2	1	0	1100	1	4	0	80	11	0	0	100
fixed	3	1	12	394245	4	3	3	1	0	1152	1	4	0	88	12	0	0	100
fixed	3	2	1	396228	4	1	1	1	0	556	1	4	0	72	13	0	0	100
fixed	3	2	2	397799	1	2	2	1	0	1026	1	4	0	80	14	0	0	100
fixed	3	2	3	399231	6	4	4	1	0	702	1	4	0	96	15	0	0	100
fixed	3	2	4	400636	2	1	1	1	0	649	1	4	0	72	16	0	0	100
fixed	3	2	5	402294	5	3	3	1	0	707	1	4	0	88	17	0	0	100
fixed	3	2	6	403926	6	4	4	1	0	807	1	4	0	96	18	0	0	100
fixed	3	2	7	405436	3	1	1	1	0	590	1	4	0	72	19	0	0	100
fixed	3	2	8	406915	2	3	3	1	0	1088	1	4	0	88	20	0	0	100
fixed	3	2	9	408792	3	2	2	1	0	600	1	4	0	80	21	0	0	100
fixed	3	2	10	410291	1	4	4	1	0	745	1	4	0	96	22	0	0	100
fixed	3	2	11	411371	5	2	2	1	0	1179	1	4	0	80	23	0	0	100
fixed	3	2	12	413130	4	3	3	1	0	889	1	4	0	88	24	0	0	100
fixed	3	3	1	414573	4	1	1	1	0	555	1	4	0	72	25	0	0	100
fixed	3	3	2	415922	1	2	2	1	0	1067	1	4	0	80	26	0	0	100
fixed	3	3	3	417957	6	4	4	1	0	804	1	4	0	96	27	0	0	100
fixed	3	3	4	419681	2	1	1	1	0	819	1	4	0	72	28	0	0	100
fixed	3	3	5	420822	5	3	3	1	0	987	1	4	0	88	29	0	0	100
fixed	3	3	6	422266	6	4	4	1	0	1070	1	4	0	96	30	0	0	100
fixed	3	3	7	424089	3	1	1	1	0	793	1	4	0	72	31	0	0	100
fixed	3	3	8	425538	2	3	3	1	0	939	1	4	0	88	32	0	0	100
fixed	3	3	9	426828	3	2	2	1	0	709	1	4	0	80	33	0	0	100
fixed	3	3	10	428280	1	4	4	1	0	799	1	4	0	96	34	0	0	100
fixed	3	3	11	430054	5	2	2	1	0	876	1	4	0	80	35	0	0	100
fixed	3	3	12	431833	4	3	3	1	0	848	1	4	0	88	36	0	0	100
fixed	3	4	1	433753	4	1	1	1	0	551	1	4	0	72	37	0	0	100
fixed	3	4	2	434907	1	2	2	1	0	1126	1	4	0	80	38	0	0	100
fixed	3	4	3	436691	6	4	4	1	0	714	1	4	0	96	39	0	0	100
fixed	3	4	4	437922	2	1	1	1	0	735	1	4	0	72	40	0	0	100
fixed	3	4	5	439069	5	3	3	1	0	878	1	4	0	88	41	0	0	100
fixed	3	4	6	440763	6	4	4	1	0	750	1	4	0	96	42	0	0	100
fixed	3	4	7	442440	3	1	1	1	0	575	1	4	0	72	43	0	0	100
fixed	3	4	8	444031	2	3	3	1	0	1172	1	4	0	88	44	0	0	100
fixed	3	4	9	445615	3	2	2	1	0	592	1	4	0	80	45	0	0	100
fixed	3	4	10	446683	1	4	4	1	0	699	1	4	0	96	46	0	0	100
fixed	3	4	11	448243	5	2	2	1	0	913	1	4	0	80	47	0	0	100
fixed	3	4	12	449716	4	3	3	1	0	915	1	4	0	88	48	0	0	100
fixed	3	5	1	451714	4	1	1	1	0	726	1	4	0	72	49	0	0	100
fixed	3	5	2	453246	1	2	2	1	0	902	1	4	0	80	50	0	0	100
fixed	3	5	3	454606	6	4	4	1	0	708	1	4	0	96	51	0	0	100
fixed	3	5	4	455712	2	1	1	1	0	741	1	4	0	72	52	0	0	100
fixed	3	5	5	457198	5	3	3	1	0	550	1	4	0	88	53	0	0	100
fixed	3	5	6	458299	6	4	4	1	0	711	1	4	0	96	54	0	0	100
fixed	3	5	7	459582	3	1	1	1	0	777	1	4	0	72	55	0	0	100
fixed	3	5	8	461007	2	3	3	1	0	1141	1	4	0	88	56	0	0	100
fixed	3	5	9	462827	3	2	2	1	0	520	1	4	0	80	57	0	0	100
fixed	3	5	10	463782	1	4	4	1	0	767	1	4	0	96	58	0	0	100
fixed	3	5	11	464865	5	2	2	1	0	793	1	4	0	80	59	0	0	100
fixed	3	5	12	466694	4	3	3	1	0	1228	1	4	0	88	60	0	0	100
fixed	3	6	1	468489	4	1	1	1	0	672	1	4	0	72	61	0	0	100
fixed	3	6	2	470044	1	2	2	2	0	1630	2	4	0	80	62	0	0	100
fixed	3	6	3	472114	6	4	4	1	0	966	1	4	0	96	63	0	0	100
fixed	3	6	4	473376	2	1	1	1	0	769	1	4	0	72	64	0	0	100
fixed	3	6	5	475169	5	3	3	1	0	1093	1	4	0	88	65	0	0	100
fixed	3	6	6	476574	6	4	4	1	0	777	1	4	0	96	66	0	0	100
fixed	3	6	7	478207	3	1	1	1	0	916	1	4	0	72	67	0	0	100
fixed	3	6	8	479813	2	3	3	1	0	953	1	4	0	88	68	0	0	100
fixed	3	6	9	481094	3	2	2	1	0	690	1	4	0	80	69	0	0	100
fixed	3	6	10	482076	1	4	4	1	0	808	1	4	0	96	70	0	0	100
fixed	3	6	11	483399	5	2	2	1	0	936	1	4	0	80	71	0	0	100
fixed	3	6	12	484742	4	3	3	1	0	991	1	4	0	88	72	0	0	100
fixed	3	7	1	486850	4	1	1	1	0	654	1	4	0	72	73	0	0	100
fixed	3	7	2	488163	1	2	2	1	0	687	1	4	0	80	74	0	0	100
fixed	3	7	3	489683	6	4	4	1	0	678	1	4	0	96	75	0	0	100
fixed	3	7	4	491181	2	1	1	1	0	671	1	4	0	72	76	0	0	100
fixed	3	7	5	492380	5	3	3	1	0	692	1	4	0	88	77	0	0	100
fixed	3	7	6	493916	6	4	4	1	0	859	1	4	0	96	78	0	0	100
fixed	3	7	7	495665	3	1	1	1	0	1705	1	4	0	72	79	0	0	100
fixed	3	7	8	498084	2	3	3	1	0	1178	1	4	0	88	80	0	0	100
fixed	3	7	9	499563	3	2	2	1	0	563	1	4	0	80	81	0	0	100
fixed	3	7	10	501038	1	4	4	1	0	693	1	4	0	96	82	0	0	100
fixed	3	7	11	502192	5	2	2	1	0	876	1	4	0	80	83	0	0	100
fixed	3	7	12	503823	4	3	3	1	0	823	1	4	0	88	84	0	0	100
fixed	3	8	1	505730	4	1	1	1	0	734	1	4	0	72	85	0	0	100
fixed	3	8	2	506835	1	2	2	1	0	1064	1	4	0	80	86	0	0	100
fixed	3	8	3	508481	6	4	4	1	0	778	1	4	0	96	87	0	0	100
fixed	3	8	4	509617	2	1	1	1	0	986	1	4	0	72	88	0	0	100
fixed	3	8	5	511272	5	3	3	1	0	1324	1	4	0	88	89	0	0	100
fixed	3	8	6	513369	6	4	4	1	0	931	1	4	0	96	90	0	0	100
fixed	3	8	7	515195	3	1	1	1	0	582	1	4	0	72	91	0	0	100
fixed	3	8	8	516270	2	3	3	1	0	976	1	4	0	88	92	0	0	100
fixed	3	8	9	517634	3	2	2	1	0	758	1	4	0	80	93	0	0	100
fixed	3	8	10	518704	1	4	4	1	0	745	1	4	0	96	94	0	0	100
fixed	3	8	11	520138	5	2	2	1	0	868	1	4	0	80	95	0	0	100
fixed	3	8	12	521606	4	3	3	1	0	902	1	4	0	88	96	0	0	100
fixed	3	9	1	523123	4	1	1	1	0	502	1	4	0	72	97	0	0	100
fixed	3	9	2	524519	1	2	0	0	2	0	3	4	0	80	97	0	1	99
fixed	3	9	3	528032	6	4	4	1	0	806	1	4	0	96	98	0	1	99
fixed	3	9	4	529190	2	1	1	1	0	693	1	4	0	72	99	0	1	99
fixed	3	9	5	530566	5	3	3	1	0	595	1	4	0	88	100	0	1	99
fixed	3	9	6	532006	6	4	4	1	0	734	1	4	0	96	101	0	1	99
fixed	3	9	7	533362	3	1	1	1	0	676	1	4	0	72	102	0	1	99
fixed	3	9	8	534357	2	3	3	1	0	1010	1	4	0	88	103	0	1	99
fixed	3	9	9	535779	3	2	2	1	0	566	1	4	0	80	104	0	1	99
fixed	3	9	10	536756	1	4	4	1	0	924	1	4	0	96	105	0	1	99
fixed	3	9	11	538473	5	2	2	1	0	812	1	4	0	80	106	0	1	99
fixed	3	9	12	540164	4	3	3	1	0	932	1	4	0	88	107	0	1	99
fixed	3	10	1	541785	4	1	1	1	0	567	1	4	0	72	108	0	1	99
fixed	3	10	2	543108	1	2	2	1	0	855	1	4	0	80	109	0	1	99
fixed	3	10	3	545003	6	4	4	1	0	559	1	4	0	96	110	0	1	99
fixed	3	10	4	546103	2	1	1	1	0	865	1	4	0	72	111	0	1	99
fixed	3	10	5	547649	5	3	3	1	0	743	1	4	0	88	112	0	1	99
fixed	3	10	6	549027	6	4	4	1	0	821	1	4	0	96	113	0	1	99
fixed	3	10	7	550494	3	1	1	1	0	750	1	4	0	72	114	0	1	99
fixed	3	10	8	552161	2	3	3	1	0	912	1	4	0	88	115	0	1	99
fixed	3	10	9	554072	3	2	2	1	0	447	1	4	0	80	116	0	1	99
fixed	3	10	10	554873	1	4	4	1	0	749	1	4	0	96	117	0	1	99
fixed	3	10	11	556572	5	2	2	1	0	933	1	4	0	80	118	0	1	99
fixed	3	10	12	558430	4	3	3	1	0	1022	1	4	0	88	119	0	1	99
fixed	4	1	1	805162	4	1	1	1	0	1548	1	4	0	104	1	0	0	100
fixed	4	1	2	807152	1	2	2	1	0	919	1	4	0	112	2	0	0	100
fixed	4	1	3	808515	6	4	4	1	0	806	1	4	0	128	3	0	0	100
fixed	4	1	4	809796	2	1	1	1	0	784	1	4	0	104	4	0	0	100
fixed	4	1	5	810992	5	3	3	1	0	1109	1	4	0	120	5	0	0	100
fixed	4	1	6	812528	6	4	4	1	0	820	1	4	0	128	6	0	0	100
fixed	4	1	7	814029	3	1	1	1	0	709	1	4	0	104	7	0	0	100
fixed	4	1	8	815247	2	3	3	1	0	1129	1	4	0	120	8	0	0	100
fixed	4	1	9	816928	3	2	2	1	0	585	1	4	0	112	9	0	0	100
fixed	4	1	10	818399	1	4	4	1	0	667	1	4	0	128	10	0	0	100
fixed	4	1	11	820075	5	2	2	1	0	780	1	4	0	112	11	0	0	100
fixed	4	1	12	821599	4	3	3	1	0	852	1	4	0	120	12	0	0	100
fixed	4	2	1	823326	4	1	1	1	0	538	1	4	0	104	13	0	0	100
fixed	4	2	2	824514	1	2	2	1	0	896	1	4	0	112	14	0	0	100
fixed	4	2	3	825991	6	4	4	1	0	706	1	4	0	128	15	0	0	100
fixed	4	2	4	827357	2	1	1	1	0	704	1	4	0	104	16	0	0	100
fixed	4	2	5	828839	5	3	3	1	0	529	1	4	0	120	17	0	0	100
fixed	4	2	6	830267	6	4	4	2	0	1213	2	4	0	128	18	0	0	100
fixed	4	2	7	832271	3	1	1	1	0	704	1	4	0	104	19	0	0	100
fixed	4	2	8	833401	2	3	3	1	0	1184	1	4	0	120	20	0	0	100
fixed	4	2	9	835470	3	2	2	1	0	704	1	4	0	112	21	0	0	100
fixed	4	2	10	836549	1	4	4	1	0	763	1	4	0	128	22	0	0	100
fixed	4	2	11	838160	5	2	2	1	0	934	1	4	0	112	23	0	0	100
fixed	4	2	12	839877	4	3	3	1	0	886	1	4	0	120	24	0	0	100
fixed	4	3	1	841403	4	1	1	1	0	597	1	4	0	104	25	0	0	100
fixed	4	3	2	842386	1	2	2	1	0	876	1	4	0	112	26	0	0	100
fixed	4	3	3	843799	6	4	4	1	0	712	1	4	0	128	27	0	0	100
fixed	4	3	4	844804	2	1	1	1	0	877	1	4	0	104	28	0	0	100
fixed	4	3	5	846629	5	3	3	1	0	888	1	4	0	120	29	0	0	100
fixed	4	3	6	847884	6	4	4	1	0	834	1	4	0	128	30	0	0	100
fixed	4	3	7	849504	3	1	1	1	0	757	1	4	0	104	31	0	0	100
fixed	4	3	8	851207	2	3	3	1	0	934	1	4	0	120	32	0	0	100
fixed	4	3	9	852687	3	2	2	1	0	671	1	4	0	112	33	0	0	100
fixed	4	3	10	854152	1	4	4	1	0	657	1	4	0	128	34	0	0	100
fixed	4	3	11	855679	5	2	2	1	0	936	1	4	0	112	35	0	0	100
fixed	4	3	12	857612	4	3	3	1	0	1006	1	4	0	120	36	0	0	100
fixed	4	4	1	859665	4	1	1	1	0	663	1	4	0	104	37	0	0	100
fixed	4	4	2	860738	1	2	2	1	0	850	1	4	0	112	38	0	0	100
fixed	4	4	3	861973	6	4	4	1	0	758	1	4	0	128	39	0	0	100
fixed	4	4	4	863196	2	1	1	1	0	818	1	4	0	104	40	0	0	100
fixed	4	4	5	864812	5	3	3	1	0	989	1	4	0	120	41	0	0	100
fixed	4	4	6	866260	6	4	4	1	0	736	1	4	0	128	42	0	0	100
fixed	4	4	7	867620	3	1	1	1	0	758	1	4	0	104	43	0	0	100
fixed	4	4	8	868701	2	3	3	1	0	1056	1	4	0	120	44	0	0	100
fixed	4	4	9	870337	3	2	2	1	0	644	1	4	0	112	45	0	0	100
fixed	4	4	10	871423	1	4	4	1	0	902	1	4	0	128	46	0	0	100
fixed	4	4	11	872897	5	2	2	1	0	687	1	4	0	112	47	0	0	100
fixed	4	4	12	873948	4	3	3	1	0	1146	1	4	0	120	48	0	0	100
fixed	4	5	1	876055	4	1	1	1	0	761	1	4	0	104	49	0	0	100
fixed	4	5	2	877636	1	2	2	1	0	767	1	4	0	112	50	0	0	100
fixed	4	5	3	879104	6	4	4	1	0	752	1	4	0	128	51	0	0	100
fixed	4	5	4	880739	2	1	1	1	0	715	1	4	0	104	52	0	0	100
fixed	4	5	5	881831	5	3	3	1	0	1021	1	4	0	120	53	0	0	100
fixed	4	5	6	883706	6	4	4	1	0	757	1	4	0	128	54	0	0	100
fixed	4	5	7	885492	3	1	1	1	0	705	1	4	0	104	55	0	0	100
fixed	4	5	8	886839	2	3	3	1	0	1105	1	4	0	120	56	0	0	100
fixed	4	5	9	888949	3	2	2	1	0	655	1	4	0	112	57	0	0	100
fixed	4	5	10	890069	1	4	4	1	0	944	1	4	0	128	58	0	0	100
fixed	4	5	11	891937	5	2	2	1	0	777	1	4	0	112	59	0	0	100
fixed	4	5	12	893697	4	3	3	1	0	1054	1	4	0	120	60	0	0	100
fixed	4	6	1	895804	4	1	1	1	0	525	1	4	0	104	61	0	0	100
fixed	4	6	2	897113	1	2	2	1	0	1221	1	4	0	112	62	0	0	100
fixed	4	6	3	899132	6	4	4	1	0	640	1	4	0	128	63	0	0	100
fixed	4	6	4	900746	2	1	1	1	0	715	1	4	0	104	64	0	0	100
fixed	4	6	5	902404	5	3	3	1	0	789	1	4	0	120	65	0	0	100
fixed	4	6	6	903832	6	4	4	1	0	697	1	4	0	128	66	0	0	100
fixed	4	6	7	905433	3	1	1	1	0	749	1	4	0	104	67	0	0	100
fixed	4	6	8	906975	2	3	3	1	0	1636	1	4	0	120	68	0	0	100
fixed	4	6	9	909363	3	2	2	1	0	583	1	4	0	112	69	0	0	100
fixed	4	6	10	910582	1	4	4	1	0	1003	1	4	0	128	70	0	0	100
fixed	4	6	11	912107	5	2	2	1	0	1050	1	4	0	112	71	0	0	100
fixed	4	6	12	913910	4	3	3	1	0	1086	1	4	0	120	72	0	0	100
fixed	4	7	1	915986	4	1	1	1	0	646	1	4	0	104	73	0	0	100
fixed	4	7	2	917511	1	2	2	1	0	869	1	4	0	112	74	0	0	100
fixed	4	7	3	919310	6	4	4	1	0	1097	1	4	0	128	75	0	0	100
fixed	4	7	4	921082	2	1	1	1	0	766	1	4	0	104	76	0	0	100
fixed	4	7	5	922807	5	3	3	1	0	1029	1	4	0	120	77	0	0	100
fixed	4	7	6	924565	6	4	4	1	0	699	1	4	0	128	78	0	0	100
fixed	4	7	7	925579	3	1	1	1	0	928	1	4	0	104	79	0	0	100
fixed	4	7	8	926999	2	3	3	1	0	1107	1	4	0	120	80	0	0	100
fixed	4	7	9	928492	3	2	2	1	0	652	1	4	0	112	81	0	0	100
fixed	4	7	10	930112	1	4	4	1	0	848	1	4	0	128	82	0	0	100
fixed	4	7	11	931525	5	2	2	1	0	676	1	4	0	112	83	0	0	100
fixed	4	7	12	933195	4	3	3	1	0	1221	1	4	0	120	84	0	0	100
fixed	4	8	1	935050	4	1	1	1	0	886	1	4	0	104	85	0	0	100
fixed	4	8	2	936640	1	2	2	1	0	755	1	4	0	112	86	0	0	100
fixed	4	8	3	938332	6	4	4	1	0	724	1	4	0	128	87	0	0	100
fixed	4	8	4	939456	2	1	1	1	0	1108	1	4	0	104	88	0	0	100
fixed	4	8	5	941418	5	3	3	1	0	913	1	4	0	120	89	0	0	100
fixed	4	8	6	942655	6	4	4	1	0	1116	1	4	0	128	90	0	0	100
fixed	4	8	7	944238	3	1	1	1	0	761	1	4	0	104	91	0	0	100
fixed	4	8	8	945551	2	3	3	1	0	970	1	4	0	120	92	0	0	100
fixed	4	8	9	947137	3	2	2	1	0	631	1	4	0	112	93	0	0	100
fixed	4	8	10	948653	1	4	4	1	0	686	1	4	0	128	94	0	0	100
fixed	4	8	11	949654	5	2	2	1	0	860	1	4	0	112	95	0	0	100
fixed	4	8	12	951170	4	3	3	1	0	1003	1	4	0	120	96	0	0	100
fixed	4	9	1	953311	4	1	1	1	0	713	1	4	0	104	97	0	0	100
fixed	4	9	2	954652	1	2	2	1	0	760	1	4	0	112	98	0	0	100
fixed	4	9	3	956168	6	4	4	1	0	704	1	4	0	128	99	0	0	100
fixed	4	9	4	957659	2	1	1	1	0	873	1	4	0	104	100	0	0	100
fixed	4	9	5	959375	5	3	3	1	0	1176	1	4	0	120	101	0	0	100
fixed	4	9	6	961585	6	4	4	1	0	675	1	4	0	128	102	0	0	100
fixed	4	9	7	962849	3	1	1	1	0	741	1	4	0	104	103	0	0	100
fixed	4	9	8	964359	2	3	3	1	0	1005	1	4	0	120	104	0	0	100
fixed	4	9	9	966320	3	2	2	1	0	586	1	4	0	112	105	0	0	100
fixed	4	9	10	967344	1	4	4	1	0	718	1	4	0	128	106	0	0	100
fixed	4	9	11	968767	5	2	2	1	0	1034	1	4	0	112	107	0	0	100
fixed	4	9	12	970425	4	3	3	1	0	988	1	4	0	120	108	0	0	100
fixed	4	10	1	972024	4	1	1	1	0	688	1	4	0	104	109	0	0	100
fixed	4	10	2	973382	1	2	2	1	0	983	1	4	0	112	110	0	0	100
fixed	4	10	3	974789	6	4	4	1	0	652	1	4	0	128	111	0	0	100
fixed	4	10	4	976247	2	1	1	1	0	646	1	4	0	104	112	0	0	100
fixed	4	10	5	977342	5	3	3	1	0	767	1	4	0	120	113	0	0	100
fixed	4	10	6	978797	6	4	4	1	0	722	1	4	0	128	114	0	0	100
fixed	4	10	7	980015	3	1	1	1	0	830	1	4	0	104	115	0	0	100
fixed	4	10	8	981619	2	3	3	1	0	1042	1	4	0	120	116	0	0	100
fixed	4	10	9	983239	3	2	2	1	0	662	1	4	0	112	117	0	0	100
fixed	4	10	10	984667	1	4	4	1	0	673	1	4	0	128	118	0	0	100
fixed	4	10	11	985777	5	2	2	1	0	834	1	4	0	112	119	0	0	100
fixed	4	10	12	987142	4	3	3	1	0	1008	1	4	0	120	120	0	0	100
fixed	5	1	1	989548	4	1	1	1	0	562	1	4	0	136	1	0	0	100
fixed	5	1	2	990575	1	2	2	1	0	1255	1	4	0	144	2	0	0	100
fixed	5	1	3	992802	6	4	4	1	0	617	1	4	0	160	3	0	0	100
fixed	5	1	4	994043	2	1	1	1	0	780	1	4	0	136	4	0	0	100
fixed	5	1	5	995221	5	3	3	1	0	906	1	4	0	152	5	0	0	100
fixed	5	1	6	996961	6	4	4	1	0	697	1	4	0	160	6	0	0	100
fixed	5	1	7	998236	3	1	1	1	0	714	1	4	0	136	7	0	0	100
fixed	5	1	8	999525	2	3	3	1	0	1044	1	4	0	152	8	0	0	100
fixed	5	1	9	1001098	3	2	2	1	0	641	1	4	0	144	9	0	0	100
fixed	5	1	10	1002389	1	4	4	1	0	699	1	4	0	160	10	0	0	100
fixed	5	1	11	1003851	5	2	2	1	0	804	1	4	0	144	11	0	0	100
fixed	5	1	12	1005202	4	3	3	1	0	980	1	4	0	152	12	0	0	100
fixed	5	2	1	1006926	4	1	1	1	0	562	1	4	0	136	13	0	0	100
fixed	5	2	2	1007843	1	2	2	1	0	1075	1	4	0	144	14	0	0	100
fixed	5	2	3	1009717	6	4	4	1	0	692	1	4	0	160	15	0	0	100
fixed	5	2	4	1011404	2	1	1	2	0	1364	2	4	0	136	16	0	0	100
fixed	5	2	5	1013759	5	3	0	1	2	0	3	4	0	152	16	0	1	94
fixed	5	2	6	1016799	6	4	4	1	0	728	1	4	0	160	17	0	1	94
fixed	5	2	7	1018198	3	1	1	1	0	725	1	4	0	136	18	0	1	95
fixed	5	2	8	1019876	2	3	3	1	0	870	1	4	0	152	19	0	1	95
fixed	5	2	9	1021080	3	2	2	1	0	763	1	4	0	144	20	0	1	95
fixed	5	2	10	1022507	1	4	4	1	0	727	1	4	0	160	21	0	1	95
fixed	5	2	11	1023587	5	2	2	1	0	825	1	4	0	144	22	0	1	96
fixed	5	2	12	1025312	4	3	3	1	0	1008	1	4	0	152	23	0	1	96
fixed	5	3	1	1027076	4	1	1	1	0	589	1	4	0	136	24	0	1	96
fixed	5	3	2	1028012	1	2	2	1	0	797	1	4	0	144	25	0	1	96
fixed	5	3	3	1029218	6	4	4	1	0	794	1	4	0	160	26	0	1	96
fixed	5	3	4	1030902	2	1	1	1	0	778	1	4	0	136	27	0	1	96
fixed	5	3	5	1032408	5	3	3	1	0	1059	1	4	0	152	28	0	1	97
fixed	5	3	6	1034076	6	4	4	1	0	668	1	4	0	160	29	0	1	97
fixed	5	3	7	1035686	3	1	1	1	0	776	1	4	0	136	30	0	1	97
fixed	5	3	8	1037023	2	3	3	1	0	696	1	4	0	152	31	0	1	97
fixed	5	3	9	1038381	3	2	2	1	0	510	1	4	0	144	32	0	1	97
fixed	5	3	10	1039233	1	4	4	1	0	754	1	4	0	160	33	0	1	97
fixed	5	3	11	1040782	5	2	2	1	0	800	1	4	0	144	34	0	1	97
fixed	5	3	12	1042158	4	3	3	1	0	918	1	4	0	152	35	0	1	97
fixed	5	4	1	1043800	4	1	1	1	0	576	1	4	0	136	36	0	1	97
fixed	5	4	2	1044974	1	2	2	1	0	1679	1	4	0	144	37	0	1	97
fixed	5	4	3	1047683	6	4	4	1	0	676	1	4	0	160	38	0	1	97
fixed	5	4	4	1048802	2	1	1	1	0	717	1	4	0	136	39	0	1	98
fixed	5	4	5	1050400	5	3	3	1	0	881	1	4	0	152	40	0	1	98
fixed	5	4	6	1051895	6	4	4	1	0	706	1	4	0	160	41	0	1	98
fixed	5	4	7	1052966	3	1	1	1	0	780	1	4	0	136	42	0	1	98
fixed	5	4	8	1054437	2	3	3	1	0	1046	1	4	0	152	43	0	1	98
fixed	5	4	9	1056123	3	2	2	1	0	487	1	4	0	144	44	0	1	98
fixed	5	4	10	1057022	1	4	4	1	0	784	1	4	0	160	45	0	1	98
fixed	5	4	11	1058217	5	2	2	1	0	790	1	4	0	144	46	0	1	98
fixed	5	4	12	1059473	4	3	3	1	0	960	1	4	0	152	47	0	1	98
fixed	5	5	1	1061009	4	1	1	1	0	551	1	4	0	136	48	0	1	98
fixed	5	5	2	1062008	1	2	2	1	0	1118	1	4	0	144	49	0	1	98
fixed	5	5	3	1063710	6	4	4	1	0	789	1	4	0	160	50	0	1	98
fixed	5	5	4	1065531	2	1	1	1	0	696	1	4	0	136	51	0	1	98
fixed	5	5	5	1066596	5	3	3	1	0	955	1	4	0	152	52	0	1	98
fixed	5	5	6	1068119	6	4	4	1	0	619	1	4	0	160	53	0	1	98
fixed	5	5	7	1069071	3	1	1	1	0	794	1	4	0	136	54	0	1	98
fixed	5	5	8	1070793	2	3	3	1	0	897	1	4	0	152	55	0	1	98
fixed	5	5	9	1071994	3	2	2	1	0	654	1	4	0	144	56	0	1	98
fixed	5	5	10	1073406	1	4	4	1	0	666	1	4	0	160	57	0	1	98
fixed	5	5	11	1074367	5	2	2	1	0	762	1	4	0	144	58	0	1	98
fixed	5	5	12	1075892	4	3	3	1	0	1001	1	4	0	152	59	0	1	98
fixed	5	6	1	1077934	4	1	1	1	0	515	1	4	0	136	60	0	1	98
fixed	5	6	2	1079112	1	2	2	1	0	929	1	4	0	144	61	0	1	98
fixed	5	6	3	1080494	6	4	4	1	0	646	1	4	0	160	62	0	1	98
fixed	5	6	4	1081427	2	1	1	1	0	759	1	4	0	136	63	0	1	98
fixed	5	6	5	1082778	5	3	3	1	0	613	1	4	0	152	64	0	1	98
fixed	5	6	6	1084315	6	4	4	1	0	804	1	4	0	160	65	0	1	98
fixed	5	6	7	1086023	3	1	1	1	0	756	1	4	0	136	66	0	1	99
fixed	5	6	8	1087560	2	3	3	1	0	1051	1	4	0	152	67	0	1	99
fixed	5	6	9	1089565	3	2	2	1	0	726	1	4	0	144	68	0	1	99
fixed	5	6	10	1090977	1	4	4	1	0	771	1	4	0	160	69	0	1	99
fixed	5	6	11	1092572	5	2	2	1	0	1047	1	4	0	144	70	0	1	99
fixed	5	6	12	1093940	4	3	3	1	0	949	1	4	0	152	71	0	1	99
fixed	5	7	1	1095811	4	1	1	1	0	621	1	4	0	136	72	0	1	99
fixed	5	7	2	1097142	1	2	2	1	0	789	1	4	0	144	73	0	1	99
fixed	5	7	3	1098476	6	4	4	1	0	909	1	4	0	160	74	0	1	99
fixed	5	7	4	1100139	2	1	1	1	0	702	1	4	0	136	75	0	1	99
fixed	5	7	5	1101463	5	3	3	1	0	670	1	4	0	152	76	0	1	99
fixed	5	7	6	1103111	6	4	4	1	0	656	1	4	0	160	77	0	1	99
fixed	5	7	7	1104413	3	1	1	1	0	793	1	4	0	136	78	0	1	99
fixed	5	7	8	1105992	2	3	3	1	0	750	1	4	0	152	79	0	1	99
fixed	5	7	9	1107175	3	2	2	1	0	668	1	4	0	144	80	0	1	99
fixed	5	7	10	1108370	1	4	4	1	0	778	1	4	0	160	81	0	1	99
fixed	5	7	11	1109530	5	2	2	1	0	752	1	4	0	144	82	0	1	99
fixed	5	7	12	1110604	4	3	3	1	0	1003	1	4	0	152	83	0	1	99
fixed	5	8	1	1112719	4	1	1	1	0	705	1	4	0	136	84	0	1	99
fixed	5	8	2	1113752	1	2	2	1	0	797	1	4	0	144	85	0	1	99
fixed	5	8	3	1115302	6	4	4	1	0	700	1	4	0	160	86	0	1	99
fixed	5	8	4	1116563	2	1	1	1	0	734	1	4	0	136	87	0	1	99
fixed	5	8	5	1118174	5	3	3	1	0	842	1	4	0	152	88	0	1	99
fixed	5	8	6	1119628	6	4	4	1	0	685	1	4	0	160	89	0	1	99
fixed	5	8	7	1120652	3	1	1	1	0	945	1	4	0	136	90	0	1	99
fixed	5	8	8	1121911	2	3	3	1	0	1572	1	4	0	152	91	0	1	99
fixed	5	8	9	1124147	3	2	2	1	0	693	1	4	0	144	92	0	1	99
fixed	5	8	10	1125414	1	4	4	1	0	768	1	4	0	160	93	0	1	99
fixed	5	8	11	1127164	5	2	2	1	0	1174	1	4	0	144	94	0	1	99
fixed	5	8	12	1128681	4	3	3	1	0	925	1	4	0	152	95	0	1	99
fixed	5	9	1	1130229	4	1	1	1	0	524	1	4	0	136	96	0	1	99
fixed	5	9	2	1131339	1	2	2	1	0	1173	1	4	0	144	97	0	1	99
fixed	5	9	3	1133258	6	4	4	1	0	715	1	4	0	160	98	0	1	99
fixed	5	9	4	1134648	2	1	1	1	0	681	1	4	0	136	99	0	1	99
fixed	5	9	5	1136106	5	3	3	1	0	651	1	4	0	152	100	0	1	99
fixed	5	9	6	1137161	6	4	4	1	0	790	1	4	0	160	101	0	1	99
fixed	5	9	7	1138987	3	1	1	1	0	721	1	4	0	136	102	0	1	99
fixed	5	9	8	1140268	2	3	3	1	0	1018	1	4	0	152	103	0	1	99
fixed	5	9	9	1141745	3	2	2	1	0	692	1	4	0	144	104	0	1	99
fixed	5	9	10	1143053	1	4	4	1	0	717	1	4	0	160	105	0	1	99
fixed	5	9	11	1144504	5	2	2	1	0	783	1	4	0	144	106	0	1	99
fixed	5	9	12	1146125	4	3	3	1	0	987	1	4	0	152	107	0	1	99
fixed	5	10	1	1147989	4	1	1	1	0	587	1	4	0	136	108	0	1	99
fixed	5	10	2	1149142	1	2	2	1	0	898	1	4	0	144	109	0	1	99
fixed	5	10	3	1150339	6	4	4	1	0	632	1	4	0	160	110	0	1	99
fixed	5	10	4	1151744	2	1	1	1	0	725	1	4	0	136	111	0	1	99
fixed	5	10	5	1153406	5	3	3	1	0	846	1	4	0	152	112	0	1	99
fixed	5	10	6	1154788	6	4	4	1	0	723	1	4	0	160	113	0	1	99
fixed	5	10	7	1155844	3	1	1	1	0	815	1	4	0	136	114	0	1	99
fixed	5	10	8	1157674	2	3	3	1	0	890	1	4	0	152	115	0	1	99
fixed	5	10	9	1159440	3	2	2	1	0	863	1	4	0	144	116	0	1	99
fixed	5	10	10	1160644	1	4	4	1	0	772	1	4	0	160	117	0	1	99
fixed	5	10	11	1162212	5	2	2	1	0	689	1	4	0	144	118	0	1	99
fixed	5	10	12	1163774	4	3	3	1	0	911	1	4	0	152	119	0	1	99
random	6	1	1	1262066	6	1	1	1	0	851	1	4	0	168	1	0	0	100
random	6	1	2	1263358	4	4	4	1	0	981	1	4	0	192	2	0	0	100
random	6	1	3	1265208	2	2	2	1	0	734	1	4	0	176	3	0	0	100
random	6	1	4	1266407	3	3	3	1	0	716	1	4	0	184	4	0	0	100
random	6	1	5	1267433	5	2	2	1	0	824	1	4	0	176	5	0	0	100
random	6	1	6	1269135	1	4	4	1	0	656	1	4	0	192	6	0	0	100
random	6	1	7	1270758	6	1	1	1	0	667	1	4	0	168	7	0	0	100
random	6	1	8	1272087	2	3	3	1	0	1036	1	4	0	184	8	0	0	100
random	6	1	9	1274136	4	2	2	1	0	492	1	4	0	176	9	0	0	100
random	6	1	10	1275049	1	1	1	1	0	942	1	4	0	168	10	0	0	100
random	6	1	11	1276810	5	4	4	1	0	635	1	4	0	192	11	0	0	100
random	6	1	12	1278380	3	3	3	2	0	1217	2	4	0	184	12	0	0	100
random	6	1	13	1280146	5	2	2	1	0	766	1	4	0	176	13	0	0	100
random	6	1	14	1281623	1	4	4	1	0	847	1	4	0	192	14	0	0	100
random	6	1	15	1282886	3	1	1	1	0	698	1	4	0	168	15	0	0	100
random	6	1	16	1284380	4	3	3	1	0	931	1	4	0	184	16	0	0	100
random	6	1	17	1286148	6	4	4	1	0	768	1	4	0	192	17	0	0	100
random	6	1	18	1287564	2	1	1	1	0	668	1	4	0	168	18	0	0	100
random	6	1	19	1288768	5	3	3	1	0	1137	1	4	0	184	19	0	0	100
random	6	1	20	1290930	2	2	2	1	0	621	1	4	0	176	20	0	0	100
random	6	1	21	1291996	3	3	3	1	0	1112	1	4	0	184	21	0	0	100
random	6	1	22	1293584	6	1	1	1	0	797	1	4	0	168	22	0	0	100
random	6	1	23	1294814	4	2	2	1	0	824	1	4	0	176	23	0	0	100
random	6	1	24	1296520	1	4	4	1	0	632	1	4	0	192	24	0	0	100
random	6	1	25	1297823	4	3	3	1	0	761	1	4	0	184	25	0	0	100
random	6	1	26	1299049	2	1	1	1	0	781	1	4	0	168	26	0	0	100
random	6	1	27	1300770	5	2	2	1	0	676	1	4	0	176	27	0	0	100
random	6	1	28	1302351	6	4	4	1	0	833	1	4	0	192	28	0	0	100
random	6	1	29	1303689	1	3	3	1	0	897	1	4	0	184	29	0	0	100
random	6	1	30	1304910	5	2	2	1	0	949	1	4	0	176	30	0	0	100
random	6	1	31	1306783	2	1	1	1	0	574	1	4	0	168	31	0	0	100
random	6	1	32	1307656	3	3	3	1	0	929	1	4	0	184	32	0	0	100
random	6	1	33	1309441	6	4	4	1	0	669	1	4	0	192	33	0	0	100
random	6	1	34	1310994	4	2	2	1	0	675	1	4	0	176	34	0	0	100
random	6	1	35	1312634	3	4	4	1	0	598	1	4	0	192	35	0	0	100
random	6	1	36	1314188	1	1	1	1	0	876	1	4	0	168	36	0	0	100
random	6	1	37	1316252	3	4	4	1	0	1028	1	4	0	192	37	0	0	100
random	6	1	38	1317999	5	3	3	2	0	1947	2	4	0	184	38	0	0	100
random	6	1	39	1320652	6	1	1	1	0	938	1	4	0	168	39	0	0	100
random	6	1	40	1322584	1	2	2	1	0	728	1	4	0	176	40	0	0	100
random	6	1	41	1323918	2	3	3	1	0	896	1	4	0	184	41	0	0	100
random	6	1	42	1325126	4	4	4	1	0	933	1	4	0	192	42	0	0	100
random	6	1	43	1326763	1	2	2	1	0	751	1	4	0	176	43	0	0	100
random	6	1	44	1328360	6	3	3	1	0	1044	1	4	0	184	44	0	0	100
random	6	1	45	1330254	3	1	1	1	0	828	1	4	0	168	45	0	0	100
random	6	1	46	1331458	4	4	4	1	0	905	1	4	0	192	46	0	0	100
random	6	1	47	1333380	2	2	2	1	0	743	1	4	0	176	47	0	0	100
random	6	1	48	1334910	5	1	1	1	0	775	1	4	0	168	48	0	0	100
random	6	1	49	1336835	2	3	3	1	0	1077	1	4	0	184	49	0	0	100
random	6	1	50	1338323	3	1	1	1	0	702	1	4	0	168	50	0	0	100
random	6	1	51	1339930	1	4	4	1	0	778	1	4	0	192	51	0	0	100
random	6	1	52	1341053	5	3	3	1	0	1074	1	4	0	184	52	0	0	100
random	6	1	53	1342879	3	2	2	1	0	549	1	4	0	176	53	0	0	100
random	6	1	54	1344234	6	4	4	1	0	747	1	4	0	192	54	0	0	100
random	6	1	55	1345966	4	2	2	1	0	826	1	4	0	176	55	0	0	100
random	6	1	56	1347623	1	1	1	1	0	676	1	4	0	168	56	0	0	100
random	6	1	57	1349060	5	4	4	1	0	887	1	4	0	192	57	0	0	100
random	6	1	58	1350453	2	1	1	1	0	844	1	4	0	168	58	0	0	100
random	6	1	59	1351771	6	2	2	1	0	1132	1	4	0	176	59	0	0	100
random	6	1	60	1353556	4	3	3	1	0	825	1	4	0	184	60	0	0	100
random	6	1	61	1355080	1	2	2	1	0	1000	1	4	0	176	61	0	0	100
random	6	1	62	1356607	6	4	4	1	0	688	1	4	0	192	62	0	0	100
random	6	1	63	1357803	4	1	1	1	0	1117	1	4	0	168	63	0	0	100
random	6	1	64	1359231	2	2	2	1	0	952	1	4	0	176	64	0	0	100
random	6	1	65	1360958	4	3	3	1	0	1000	1	4	0	184	65	0	0	100
random	6	1	66	1362314	3	1	1	1	0	669	1	4	0	168	66	0	0	100
random	6	1	67	1363597	1	3	3	1	0	1376	1	4	0	184	67	0	0	100
random	6	1	68	1365838	5	4	4	1	0	658	1	4	0	192	68	0	0	100
random	6	1	69	1366873	2	2	2	1	0	684	1	4	0	176	69	0	0	100
random	6	1	70	1368185	3	1	1	1	0	909	1	4	0	168	70	0	0	100
random	6	1	71	1369865	5	4	4	1	0	718	1	4	0	192	71	0	0	100
random	6	1	72	1371042	6	3	3	2	0	1348	2	4	0	184	72	0	0	100
random	6	1	73	1373559	2	1	1	1	0	745	1	4	0	168	73	0	0	100
random	6	1	74	1374676	5	3	3	1	0	1074	1	4	0	184	74	0	0	100
random	6	1	75	1376416	1	4	4	1	0	752	1	4	0	192	75	0	0	100
random	6	1	76	1378130	6	2	2	1	0	1024	1	4	0	176	76	0	0	100
random	6	1	77	1379538	2	1	1	1	0	676	1	4	0	168	77	0	0	100
random	6	1	78	1380775	4	4	4	1	0	960	1	4	0	192	78	0	0	100
random	6	1	79	1382241	3	2	2	1	0	914	1	4	0	176	79	0	0	100
random	6	1	80	1383957	4	3	3	1	0	1089	1	4	0	184	80	0	0	100
random	6	1	81	1386013	1	4	4	1	0	1066	1	4	0	192	81	0	0	100
random	6	1	82	1387839	5	1	1	1	0	605	1	4	0	168	82	0	0	100
random	6	1	83	1389403	3	2	2	1	0	794	1	4	0	176	83	0	0	100
random	6	1	84	1391124	6	3	3	1	0	601	1	4	0	184	84	0	0	100
random	6	1	85	1392907	3	2	2	1	0	1134	1	4	0	176	85	0	0	100
random	6	1	86	1394684	1	3	3	1	0	971	1	4	0	184	86	0	0	100
random	6	1	87	1396547	4	4	4	1	0	939	1	4	0	192	87	0	0	100
random	6	1	88	1398107	2	1	1	1	0	674	1	4	0	168	88	0	0	100
random	6	1	89	1399682	6	4	4	1	0	767	1	4	0	192	89	0	0	100
random	6	1	90	1401041	3	3	3	1	0	941	1	4	0	184	90	0	0	100
random	6	1	91	1402986	5	4	4	1	0	827	1	4	0	192	91	0	0	100
random	6	1	92	1404127	1	2	2	1	0	835	1	4	0	176	92	0	0	100
random	6	1	93	1405831	5	1	1	1	0	627	1	4	0	168	93	0	0	100
random	6	1	94	1407134	4	3	3	1	0	900	1	4	0	184	94	0	0	100
random	6	1	95	1408508	6	1	1	1	0	842	1	4	0	168	95	0	0	100
random	6	1	96	1410198	2	2	2	1	0	769	1	4	0	176	96	0	0	100
random	6	1	97	1411619	4	3	3	1	0	885	1	4	0	184	97	0	0	100
random	6	1	98	1412945	3	2	2	1	0	869	1	4	0	176	98	0	0	100
random	6	1	99	1414131	6	3	3	1	0	1027	1	4	0	184	99	0	0	100
random	6	1	100	1415712	1	4	4	1	0	784	1	4	0	192	100	0	0	100
random	6	1	101	1417183	4	1	1	1	0	738	1	4	0	168	101	0	0	100
random	6	1	102	1418311	5	2	2	1	0	1130	1	4	0	176	102	0	0	100
random	6	1	103	1419859	2	4	4	1	0	720	1	4	0	192	103	0	0	100
random	6	1	104	1421065	3	1	1	1	0	757	1	4	0	168	104	0	0	100
random	6	1	105	1422520	1	3	3	1	0	648	1	4	0	184	105	0	0	100
random	6	1	106	1424010	2	2	2	1	0	673	1	4	0	176	106	0	0	100
random	6	1	107	1425591	5	4	4	1	0	774	1	4	0	192	107	0	0	100
random	6	1	108	1427281	6	1	1	1	0	782	1	4	0	168	108	0	0	100
random	6	1	109	1429262	5	4	4	1	0	762	1	4	0	192	109	0	0	100
random	6	1	110	1431014	6	3	3	1	0	840	1	4	0	184	110	0	0	100
random	6	1	111	1432498	2	2	2	1	0	545	1	4	0	176	111	0	0	100
random	6	1	112	1433737	3	1	1	1	0	660	1	4	0	168	112	0	0	100
random	6	1	113	1434802	1	2	2	1	0	848	1	4	0	176	113	0	0	100
random	6	1	114	1436187	2	3	3	1	0	589	1	4	0	184	114	0	0	100
random	6	1	115	1437746	3	1	1	1	0	763	1	4	0	168	115	0	0	100
random	6	1	116	1439001	4	4	4	1	0	773	1	4	0	192	116	0	0	100
random	6	1	117	1440494	6	1	1	1	0	814	1	4	0	168	117	0	0	100
random	6	1	118	1442071	5	3	3	2	0	820	2	4	0	184	118	0	0	100
random	6	1	119	1443381	1	4	4	1	0	1004	1	4	0	192	119	0	0	100
random	6	1	120	1445112	4	2	2	1	0	739	1	4	0	176	120	0	0	100
fixed	7	1	1	1446803	4	1	1	1	0	731	1	4	0	200	1	0	0	100
fixed	7	1	2	1447826	1	2	2	1	0	784	1	4	0	208	2	0	0	100
fixed	7	1	3	1449226	6	4	4	1	0	660	1	4	0	224	3	0	0	100
fixed	7	1	4	1450776	2	1	1	1	0	843	1	4	0	200	4	0	0	100
fixed	7	1	5	1452423	5	3	3	1	0	1261	1	4	0	216	5	0	0	100
fixed	7	1	6	1454353	6	4	4	1	0	716	1	4	0	224	6	0	0	100
fixed	7	1	7	1455479	3	1	1	1	0	660	1	4	0	200	7	0	0	100
fixed	7	1	8	1457105	2	3	3	1	0	983	1	4	0	216	8	0	0	100
fixed	7	1	9	1458588	3	2	2	1	0	568	1	4	0	208	9	0	0	100
fixed	7	1	10	1459764	1	4	4	1	0	758	1	4	0	224	10	0	0	100
fixed	7	1	11	1461074	5	2	2	1	0	791	1	4	0	208	11	0	0	100
fixed	7	1	12	1462204	4	3	3	1	0	935	1	4	0	216	12	0	0	100
fixed	7	2	1	1464265	4	1	1	1	0	711	1	4	0	200	1	0	0	8
fixed	7	2	2	1465370	1	2	2	1	0	649	1	4	0	208	2	0	0	14
fixed	7	2	3	1467019	6	4	4	1	0	939	1	4	0	224	3	0	0	20
fixed	7	2	4	1468711	2	1	1	1	0	611	1	4	0	200	4	0	0	25
fixed	7	2	5	1470309	5	3	3	1	0	864	1	4	0	216	5	0	0	29
fixed	7	2	6	1472019	6	4	4	1	0	679	1	4	0	224	6	0	0	33
fixed	7	2	7	1473673	3	1	1	1	0	617	1	4	0	200	7	0	0	37
fixed	7	2	8	1474904	2	3	3	2	0	2093	2	4	0	216	8	0	0	40
fixed	7	2	9	1477688	3	2	2	1	0	719	1	4	0	208	9	0	0	43
fixed	7	2	10	1478898	1	4	4	1	0	1099	1	4	0	224	10	0	0	45
fixed	7	2	11	1480474	5	2	2	1	0	857	1	4	0	208	11	0	0	48
fixed	7	2	12	1481917	4	3	3	1	0	900	1	4	0	216	12	0	0	50
fixed	7	3	1	1483763	4	1	1	1	0	1006	1	4	0	200	1	0	0	4
fixed	7	3	2	1485270	1	2	2	1	0	726	1	4	0	208	2	0	0	8
fixed	7	3	3	1486650	6	4	4	1	0	716	1	4	0	224	3	0	0	11
fixed	7	3	4	1487913	2	1	1	1	0	670	1	4	0	200	4	0	0	14
fixed	7	3	5	1489143	5	3	3	2	0	1410	2	4	0	216	5	0	0	17
fixed	7	3	6	1491494	6	4	4	1	0	863	1	4	0	224	6	0	0	20
fixed	7	3	7	1492692	3	1	1	1	0	756	1	4	0	200	7	0	0	23
fixed	7	3	8	1494216	2	3	3	1	0	803	1	4	0	216	8	0	0	25
fixed	7	3	9	1495642	3	2	2	1	0	638	1	4	0	208	9	0	0	27
fixed	7	3	10	1496857	1	4	4	1	0	859	1	4	0	224	10	0	0	29
fixed	7	3	11	1498569	5	2	2	1	0	1339	1	4	0	208	11	0	0	31
fixed	7	3	12	1500316	4	3	3	1	0	1009	1	4	0	216	12	0	0	33
fixed	7	4	1	1502258	4	1	1	1	0	606	1	4	0	200	1	0	0	3
fixed	7	4	2	1503864	1	2	2	1	0	1242	1	4	0	208	2	0	0	5
fixed	7	4	3	1505614	6	4	4	1	0	864	1	4	0	224	3	0	0	8
fixed	7	4	4	1507086	2	1	1	1	0	834	1	4	0	200	4	0	0	10
fixed	7	4	5	1508459	5	3	3	1	0	944	1	4	0	216	5	0	0	12
fixed	7	4	6	1509753	6	4	4	1	0	801	1	4	0	224	6	0	0	14
fixed	7	4	7	1511076	3	1	1	1	0	689	1	4	0	200	7	0	0	16
fixed	7	4	8	1512360	2	3	3	1	0	891	1	4	0	216	8	0	0	18
fixed	7	4	9	1513714	3	2	2	1	0	889	1	4	0	208	9	0	0	20
fixed	7	4	10	1515008	1	4	4	1	0	666	1	4	0	224	10	0	0	22
fixed	7	4	11	1516517	5	2	2	1	0	747	1	4	0	208	11	0	0	23
fixed	7	4	12	1518185	4	3	3	2	0	1148	2	4	0	216	12	0	0	25
fixed	7	5	1	1520469	4	1	1	1	0	699	1	4	0	200	1	0	0	2
fixed	7	5	2	1521461	1	2	2	1	0	769	1	4	0	208	2	0	0	4
fixed	7	5	3	1523027	6	4	4	1	0	575	1	4	0	224	3	0	0	6
fixed	7	5	4	1524340	2	1	1	1	0	623	1	4	0	200	4	0	0	8
fixed	7	5	5	1525668	5	3	3	1	0	711	1	4	0	216	5	0	0	9
fixed	7	5	6	1527167	6	4	4	1	0	671	1	4	0	224	6	0	0	11
fixed	7	5	7	1528222	3	1	1	1	0	714	1	4	0	200	7	0	0	13
fixed	7	5	8	1529813	2	3	3	1	0	783	1	4	0	216	8	0	0	14
fixed	7	5	9	1531238	3	2	2	1	0	531	1	4	0	208	9	0	0	16
fixed	7	5	10	1532754	1	4	4	1	0	611	1	4	0	224	10	0	0	17
fixed	7	5	11	1534287	5	2	2	1	0	1026	1	4	0	208	11	0	0	19
fixed	7	5	12	1536163	4	3	3	1	0	890	1	4	0	216	12	0	0	20
fixed	7	6	1	1538230	4	1	1	1	0	659	1	4	0	200	1	0	0	2
fixed	7	6	2	1539243	1	2	2	1	0	1024	1	4	0	208	2	0	0	3
fixed	7	6	3	1541032	6	4	4	1	0	724	1	4	0	224	3	0	0	5
fixed	7	6	4	1542439	2	1	1	1	0	704	1	4	0	200	4	0	0	6
fixed	7	6	5	1543787	5	3	3	1	0	720	1	4	0	216	5	0	0	8
fixed	7	6	6	1545519	6	4	4	1	0	526	1	4	0	224	6	0	0	9
fixed	7	6	7	1546472	3	1	1	1	0	910	1	4	0	200	7	0	0	10
fixed	7	6	8	1548092	2	3	3	1	0	1057	1	4	0	216	8	0	0	12
fixed	7	6	9	1549603	3	2	2	1	0	609	1	4	0	208	9	0	0	13
fixed	7	6	10	1550872	1	4	4	1	0	732	1	4	0	224	10	0	0	14
fixed	7	6	11	1552404	5	2	2	1	0	898	1	4	0	208	11	0	0	15
fixed	7	6	12	1554178	4	3	3	1	0	959	1	4	0	216	12	0	0	17
fixed	7	7	1	1556124	4	1	1	1	0	597	1	4	0	200	1	0	0	1
fixed	7	7	2	1557151	1	2	2	1	0	753	1	4	0	208	2	0	0	3
fixed	7	7	3	1558746	6	4	4	1	0	790	1	4	0	224	3	0	0	4
fixed	7	7	4	1559833	2	1	1	1	0	880	1	4	0	200	4	0	0	5
fixed	7	7	5	1561582	5	3	3	1	0	950	1	4	0	216	5	0	0	6
fixed	7	7	6	1563417	6	4	4	1	0	680	1	4	0	224	6	0	0	8
fixed	7	7	7	1564774	3	1	1	1	0	679	1	4	0	200	7	0	0	9
fixed	7	7	8	1565929	2	3	3	1	0	765	1	4	0	216	8	0	0	10
fixed	7	7	9	1567424	3	2	2	1	0	526	1	4	0	208	9	0	0	11
fixed	7	7	10	1568379	1	4	4	1	0	774	1	4	0	224	10	0	0	12
fixed	7	7	11	1569843	5	2	2	1	0	784	1	4	0	208	11	0	0	13
fixed	7	7	12	1571276	4	3	3	1	0	883	1	4	0	216	12	0	0	14
fixed	7	8	1	1573165	4	1	1	1	0	619	1	4	0	200	1	0	0	1
fixed	7	8	2	1574601	1	2	2	1	0	974	1	4	0	208	2	0	0	2
fixed	7	8	3	1576513	6	4	4	1	0	661	1	4	0	224	3	0	0	3
fixed	7	8	4	1577997	2	1	1	1	0	654	1	4	0	200	4	0	0	5
fixed	7	8	5	1579466	5	3	3	1	0	616	1	4	0	216	5	0	0	6
fixed	7	8	6	1580771	6	4	4	1	0	721	1	4	0	224	6	0	0	7
fixed	7	8	7	1582211	3	1	1	1	0	668	1	4	0	200	7	0	0	8
fixed	7	8	8	1583480	2	3	3	1	0	726	1	4	0	216	8	0	0	9
fixed	7	8	9	1584738	3	2	2	1	0	585	1	4	0	208	9	0	0	10
fixed	7	8	10	1585903	1	4	4	1	0	680	1	4	0	224	10	0	0	11
fixed	7	8	11	1587127	5	2	2	1	0	860	1	4	0	208	11	0	0	12
fixed	7	8	12	1588445	4	3	3	1	0	892	1	4	0	216	12	0	0	13
fixed	7	9	1	1590107	4	1	1	1	0	573	1	4	0	200	1	0	0	1
fixed	7	9	2	1591480	1	2	2	1	0	723	1	4	0	208	2	0	0	2
fixed	7	9	3	1593085	6	4	4	1	0	719	1	4	0	224	3	0	0	3
fixed	7	9	4	1594143	2	1	1	1	0	755	1	4	0	200	4	0	0	4
fixed	7	9	5	1595228	5	3	3	1	0	901	1	4	0	216	5	0	0	5
fixed	7	9	6	1596951	6	4	4	1	0	612	1	4	0	224	6	0	0	6
fixed	7	9	7	1597904	3	1	1	1	0	796	1	4	0	200	7	0	0	7
fixed	7	9	8	1599195	2	3	3	1	0	500	1	4	0	216	8	0	0	8
fixed	7	9	9	1600387	3	2	2	1	0	482	1	4	0	208	9	0	0	9
fixed	7	9	10	1601894	1	4	4	1	0	818	1	4	0	224	10	0	0	9
fixed	7	9	11	1603747	5	2	2	1	0	908	1	4	0	208	11	0	0	10
fixed	7	9	12	1604959	4	3	3	1	0	880	1	4	0	216	12	0	0	11
fixed	7	10	1	1607049	4	1	1	1	0	520	1	4	0	200	1	0	0	1
fixed	7	10	2	1608382	1	2	2	1	0	687	1	4	0	208	2	0	0	2
fixed	7	10	3	1609375	6	4	4	1	0	909	1	4	0	224	3	0	0	3
fixed	7	10	4	1610814	2	1	1	1	0	936	1	4	0	200	4	0	0	4
fixed	7	10	5	1612358	5	3	3	1	0	543	1	4	0	216	5	0	0	4
fixed	7	10	6	1613190	6	4	4	1	0	836	1	4	0	224	6	0	0	5
fixed	7	10	7	1614645	3	1	1	1	0	734	1	4	0	200	7	0	0	6
fixed	7	10	8	1615729	2	3	3	1	0	856	1	4	0	216	8	0	0	7
fixed	7	10	9	1616917	3	2	2	1	0	822	1	4	0	208	9	0	0	8
fixed	7	10	10	1618430	1	4	4	1	0	790	1	4	0	224	10	0	0	8
fixed	7	10	11	1620040	5	2	2	1	0	666	1	4	0	208	11	0	0	9
fixed	7	10	12	1621472	4	3	3	1	0	853	1	4	0	216	12	0	0	10
