type	block	sequ.	trial	time	Pos.	Color	Button	NumRsp	Resp_1	RT_1	R_Code	Resp_2	RT_2	Trigg.	n_hit	n_inc	n_miss	score_%

random	1	1	1	1815	6	1	1	1	0	1911	1	4	0	8	1	0	0	100
random	1	1	2	4262	4	4	4	1	0	1096	1	4	0	32	2	0	0	100
random	1	1	3	6310	2	2	2	1	0	1049	1	4	0	16	3	0	0	100
random	1	1	4	7711	3	3	3	1	0	1446	1	4	0	24	4	0	0	100
random	1	1	5	10110	5	2	2	1	0	2120	1	4	0	16	5	0	0	100
random	1	1	6	13093	1	4	4	1	0	906	1	4	0	32	6	0	0	100
random	1	1	7	14924	6	1	1	1	0	1164	1	4	0	8	7	0	0	100
random	1	1	8	16993	2	3	3	1	0	2029	1	4	0	24	8	0	0	100
random	1	1	9	19875	4	2	2	1	0	1011	1	4	0	16	9	0	0	100
random	1	1	10	21264	1	1	1	1	0	1031	1	4	0	8	10	0	0	100
random	1	1	11	22831	5	4	4	1	0	830	1	4	0	32	11	0	0	100
random	1	1	12	24064	3	3	3	1	0	1513	1	4	0	24	12	0	0	100
random	1	1	13	26494	5	2	2	1	0	1058	1	4	0	16	13	0	0	100
random	1	1	14	28399	1	4	4	1	0	817	1	4	0	32	14	0	0	100
random	1	1	15	29956	3	1	1	1	0	951	1	4	0	8	15	0	0	100
random	1	1	16	31880	4	3	0	1	2	0	3	4	0	24	15	0	1	94
random	1	1	17	35366	6	4	4	1	0	874	1	4	0	32	16	0	1	94
random	1	1	18	36641	2	1	1	1	0	916	1	4	0	8	17	0	1	94
random	1	1	19	37921	5	3	0	1	2	0	3	4	0	24	17	0	2	89
random	1	1	20	41163	2	2	2	1	0	1149	1	4	0	16	18	0	2	90
random	1	1	21	43072	3	3	3	1	0	1412	1	4	0	24	19	0	2	90
random	1	1	22	45420	6	1	1	1	0	905	1	4	0	8	20	0	2	91
random	1	1	23	46917	4	2	2	1	0	1033	1	4	0	16	21	0	2	91
random	1	1	24	48630	1	4	4	1	0	904	1	4	0	32	22	0	2	92
random	1	1	25	50253	4	3	3	1	0	1612	1	4	0	24	23	0	2	92
random	1	1	26	52221	2	1	1	1	0	857	1	4	0	8	24	0	2	92
random	1	1	27	54099	5	2	2	1	0	1113	1	4	0	16	25	0	2	93
random	1	1	28	56004	6	4	4	1	0	760	1	4	0	32	26	0	2	93
random	1	1	29	57637	1	3	3	1	0	1315	1	4	0	24	27	0	2	93
random	1	1	30	59940	5	2	2	1	0	1050	1	4	0	16	28	0	2	93
random	1	1	31	61774	2	1	1	1	0	1132	1	4	0	8	29	0	2	94
random	1	1	32	63734	3	3	3	1	0	1009	1	4	0	24	30	0	2	94
random	1	1	33	65218	6	4	4	1	0	890	1	4	0	32	31	0	2	94
random	1	1	34	66443	4	2	2	1	0	1150	1	4	0	16	32	0	2	94
random	1	1	35	67998	3	4	4	1	0	996	1	4	0	32	33	0	2	94
random	1	1	36	69546	1	1	1	1	0	843	1	4	0	8	34	0	2	94
random	1	1	37	71121	3	4	4	1	0	912	1	4	0	32	35	0	2	95
random	1	1	38	72992	5	3	3	1	0	1425	1	4	0	24	36	0	2	95
random	1	1	39	75383	6	1	1	1	0	931	1	4	0	8	37	0	2	95
random	1	1	40	77296	1	2	2	1	0	1371	1	4	0	16	38	0	2	95
random	1	1	41	79579	2	3	3	1	0	1250	1	4	0	24	39	0	2	95
random	1	1	42	81782	4	4	4	1	0	948	1	4	0	32	40	0	2	95
random	1	1	43	83674	1	2	2	1	0	1252	1	4	0	16	41	0	2	95
random	1	1	44	85293	6	3	3	1	0	1232	1	4	0	24	42	0	2	95
random	1	1	45	87331	3	1	1	1	0	985	1	4	0	8	43	0	2	96
random	1	1	46	88925	4	4	4	1	0	766	1	4	0	32	44	0	2	96
random	1	1	47	89996	2	2	2	1	0	1105	1	4	0	16	45	0	2	96
random	1	1	48	91477	5	1	1	1	0	1050	1	4	0	8	46	0	2	96
random	1	1	49	93559	2	3	0	1	2	0	3	4	0	24	46	0	3	94
random	1	1	50	96867	3	1	1	1	0	973	1	4	0	8	47	0	3	94
random	1	1	51	98644	1	4	4	1	0	770	1	4	0	32	48	0	3	94
random	1	1	52	100001	5	3	3	1	0	1777	1	4	0	24	49	0	3	94
random	1	1	53	102617	3	2	2	1	0	906	1	4	0	16	50	0	3	94
random	1	1	54	103885	6	4	4	1	0	876	1	4	0	32	51	0	3	94
random	1	1	55	105222	4	2	2	1	0	1059	1	4	0	16	52	0	3	95
random	1	1	56	107127	1	1	1	1	0	931	1	4	0	8	53	0	3	95
random	1	1	57	108574	5	4	4	1	0	830	1	4	0	32	54	0	3	95
random	1	1	58	109928	2	1	1	1	0	805	1	4	0	8	55	0	3	95
random	1	1	59	111470	6	2	2	1	0	1091	1	4	0	16	56	0	3	95
random	1	1	60	113461	4	3	3	1	0	1359	1	4	0	24	57	0	3	95
random	1	1	61	115831	1	2	2	1	0	1018	1	4	0	16	58	0	3	95
random	1	1	62	117647	6	4	4	1	0	1094	1	4	0	32	59	0	3	95
random	1	1	63	119169	4	1	1	1	0	813	1	4	0	8	60	0	3	95
random	1	1	64	120680	2	2	2	1	0	965	1	4	0	16	61	0	3	95
random	1	1	65	122649	4	3	3	1	0	1257	1	4	0	24	62	0	3	95
random	1	1	66	124274	3	1	1	1	0	773	1	4	0	8	63	0	3	95
random	1	1	67	125887	1	3	3	1	0	1472	1	4	0	24	64	0	3	96
random	1	1	68	128246	5	4	4	1	0	780	1	4	0	32	65	0	3	96
random	1	1	69	129498	2	2	2	1	0	1015	1	4	0	16	66	0	3	96
random	1	1	70	130859	3	1	1	1	0	918	1	4	0	8	67	0	3	96
random	1	1	71	132427	5	4	4	1	0	739	1	4	0	32	68	0	3	96
random	1	1	72	133588	6	3	3	1	0	1178	1	4	0	24	69	0	3	96
random	1	1	73	135512	2	1	1	1	0	977	1	4	0	8	70	0	3	96
random	1	1	74	137342	5	3	3	1	0	1163	1	4	0	24	71	0	3	96
random	1	1	75	138828	1	4	4	1	0	892	1	4	0	32	72	0	3	96
random	1	1	76	140343	6	2	2	1	0	908	1	4	0	16	73	0	3	96
random	1	1	77	141778	2	1	1	1	0	975	1	4	0	8	74	0	3	96
random	1	1	78	143162	4	4	4	1	0	804	1	4	0	32	75	0	3	96
random	1	1	79	144348	3	2	2	1	0	978	1	4	0	16	76	0	3	96
random	1	1	80	146308	4	3	3	1	0	895	1	4	0	24	77	0	3	96
random	1	1	81	147707	1	4	4	1	0	1252	1	4	0	32	78	0	3	96
random	1	1	82	149531	5	1	1	1	0	623	1	4	0	8	79	0	3	96
random	1	1	83	150854	3	2	2	1	0	1511	1	4	0	16	80	0	3	96
random	1	1	84	152735	6	3	3	1	0	1040	1	4	0	24	81	0	3	96
random	1	1	85	154459	3	2	2	1	0	918	1	4	0	16	82	0	3	96
random	1	1	86	155765	1	3	3	1	0	1055	1	4	0	24	83	0	3	97
random	1	1	87	157384	4	4	4	1	0	754	1	4	0	32	84	0	3	97
random	1	1	88	158873	2	1	1	1	0	667	1	4	0	8	85	0	3	97
random	1	1	89	160204	6	4	4	1	0	851	1	4	0	32	86	0	3	97
random	1	1	90	161443	3	3	3	1	0	1046	1	4	0	24	87	0	3	97
random	1	1	91	162915	5	4	4	1	0	800	1	4	0	32	88	0	3	97
random	1	1	92	164685	1	2	2	1	0	1317	1	4	0	16	89	0	3	97
random	1	1	93	166926	5	1	1	2	0	1518	2	4	0	8	90	0	3	97
random	1	1	94	169311	4	3	3	1	0	1705	1	4	0	24	91	0	3	97
random	1	1	95	171421	6	1	1	1	0	888	1	4	0	8	92	0	3	97
random	1	1	96	173052	2	2	2	1	0	1298	1	4	0	16	93	0	3	97
random	1	1	97	175009	4	3	3	1	0	984	1	4	0	24	94	0	3	97
random	1	1	98	176545	3	2	2	1	0	943	1	4	0	16	95	0	3	97
random	1	1	99	178152	6	3	3	1	0	939	1	4	0	24	96	0	3	97
random	1	1	100	179955	1	4	4	1	0	630	1	4	0	32	97	0	3	97
random	1	1	101	181395	4	1	1	1	0	641	1	4	0	8	98	0	3	97
random	1	1	102	182449	5	2	2	1	0	1213	1	4	0	16	99	0	3	97
random	1	1	103	184073	2	4	4	1	0	776	1	4	0	32	100	0	3	97
random	1	1	104	185605	3	1	1	1	0	1175	1	4	0	8	101	0	3	97
random	1	1	105	187610	1	3	3	1	0	1346	1	4	0	24	102	0	3	97
random	1	1	106	189275	2	2	2	1	0	827	1	4	0	16	103	0	3	97
random	1	1	107	190923	5	4	4	1	0	734	1	4	0	32	104	0	3	97
random	1	1	108	192591	6	1	1	1	0	919	1	4	0	8	105	0	3	97
random	1	1	109	194223	5	4	4	1	0	842	1	4	0	32	106	0	3	97
random	1	1	110	195874	6	3	3	1	0	1348	1	4	0	24	107	0	3	97
random	1	1	111	198224	2	2	2	1	0	1033	1	4	0	16	108	0	3	97
random	1	1	112	199782	3	1	1	1	0	951	1	4	0	8	109	0	3	97
random	1	1	113	201343	1	2	2	1	0	1292	1	4	0	16	110	0	3	97
random	1	1	114	203650	2	3	3	1	0	1107	1	4	0	24	111	0	3	97
random	1	1	115	205112	3	1	1	1	0	765	1	4	0	8	112	0	3	97
random	1	1	116	206881	4	4	4	1	0	682	1	4	0	32	113	0	3	97
random	1	1	117	208482	6	1	1	1	0	950	1	4	0	8	114	0	3	97
random	1	1	118	209980	5	3	3	1	0	1342	1	4	0	24	115	0	3	97
random	1	1	119	211618	1	4	4	1	0	905	1	4	0	32	116	0	3	97
random	1	1	120	213451	4	2	2	1	0	715	1	4	0	16	117	0	3	98
fixed	2	1	1	215356	4	1	1	1	0	771	1	4	0	40	1	0	0	100
fixed	2	1	2	216749	1	2	2	2	0	1544	2	4	0	48	2	0	0	100
fixed	2	1	3	219099	6	4	4	1	0	716	1	4	0	64	3	0	0	100
fixed	2	1	4	220248	2	1	1	1	0	764	1	4	0	40	4	0	0	100
fixed	2	1	5	221597	5	3	3	1	0	1195	1	4	0	56	5	0	0	100
fixed	2	1	6	223342	6	4	4	1	0	928	1	4	0	64	6	0	0	100
fixed	2	1	7	224600	3	1	1	1	0	731	1	4	0	40	7	0	0	100
fixed	2	1	8	225786	2	3	3	1	0	1201	1	4	0	56	8	0	0	100
fixed	2	1	9	227345	3	2	2	1	0	871	1	4	0	48	9	0	0	100
fixed	2	1	10	228673	1	4	4	1	0	815	1	4	0	64	10	0	0	100
fixed	2	1	11	229829	5	2	2	1	0	1262	1	4	0	48	11	0	0	100
fixed	2	1	12	231650	4	3	3	1	0	1209	1	4	0	56	12	0	0	100
fixed	2	2	1	233453	4	1	1	1	0	796	1	4	0	40	13	0	0	100
fixed	2	2	2	234781	1	2	2	1	0	1140	1	4	0	48	14	0	0	100
fixed	2	2	3	236775	6	4	4	1	0	767	1	4	0	64	15	0	0	100
fixed	2	2	4	237900	2	1	1	1	0	848	1	4	0	40	16	0	0	100
fixed	2	2	5	239555	5	3	3	1	0	1034	1	4	0	56	17	0	0	100
fixed	2	2	6	240927	6	4	4	1	0	760	1	4	0	64	18	0	0	100
fixed	2	2	7	242480	3	1	1	1	0	750	1	4	0	40	19	0	0	100
fixed	2	2	8	243808	2	3	3	1	0	1142	1	4	0	56	20	0	0	100
fixed	2	2	9	245683	3	2	2	1	0	902	1	4	0	48	21	0	0	100
fixed	2	2	10	247286	1	4	4	1	0	738	1	4	0	64	22	0	0	100
fixed	2	2	11	248349	5	2	2	1	0	1446	1	4	0	48	23	0	0	100
fixed	2	2	12	250604	4	3	3	1	0	1006	1	4	0	56	24	0	0	100
fixed	2	3	1	252433	4	1	1	1	0	904	1	4	0	40	25	0	0	100
fixed	2	3	2	254365	1	2	2	1	0	1103	1	4	0	48	26	0	0	100
fixed	2	3	3	256266	6	4	4	1	0	662	1	4	0	64	27	0	0	100
fixed	2	3	4	257534	2	1	1	1	0	952	1	4	0	40	28	0	0	100
fixed	2	3	5	259039	5	3	3	1	0	1201	1	4	0	56	29	0	0	100
fixed	2	3	6	260987	6	4	4	1	0	886	1	4	0	64	30	0	0	100
fixed	2	3	7	262218	3	1	1	1	0	754	1	4	0	40	31	0	0	100
fixed	2	3	8	263672	2	3	3	1	0	1165	1	4	0	56	32	0	0	100
fixed	2	3	9	265516	3	2	2	1	0	950	1	4	0	48	33	0	0	100
fixed	2	3	10	266911	1	4	4	2	0	1459	2	4	0	64	34	0	0	100
fixed	2	3	11	268958	5	2	2	1	0	1228	1	4	0	48	35	0	0	100
fixed	2	3	12	270557	4	3	3	1	0	1025	1	4	0	56	36	0	0	100
fixed	2	4	1	272265	4	1	1	1	0	744	1	4	0	40	37	0	0	100
fixed	2	4	2	273335	1	2	2	1	0	1131	1	4	0	48	38	0	0	100
fixed	2	4	3	275001	6	4	4	1	0	821	1	4	0	64	39	0	0	100
fixed	2	4	4	276335	2	1	1	1	0	892	1	4	0	40	40	0	0	100
fixed	2	4	5	277926	5	3	3	1	0	904	1	4	0	56	41	0	0	100
fixed	2	4	6	279401	6	4	4	1	0	746	1	4	0	64	42	0	0	100
fixed	2	4	7	280873	3	1	1	1	0	716	1	4	0	40	43	0	0	100
fixed	2	4	8	281980	2	3	3	1	0	949	1	4	0	56	44	0	0	100
fixed	2	4	9	283246	3	2	2	1	0	1111	1	4	0	48	45	0	0	100
fixed	2	4	10	285108	1	4	4	1	0	1033	1	4	0	64	46	0	0	100
fixed	2	4	11	287067	5	2	2	1	0	1053	1	4	0	48	47	0	0	100
fixed	2	4	12	288796	4	3	3	2	0	1260	2	4	0	56	48	0	0	100
fixed	2	5	1	290810	4	1	1	1	0	871	1	4	0	40	49	0	0	100
fixed	2	5	2	292671	1	2	2	1	0	1032	1	4	0	48	50	0	0	100
fixed	2	5	3	294220	6	4	4	1	0	694	1	4	0	64	51	0	0	100
fixed	2	5	4	295622	2	1	1	1	0	795	1	4	0	40	52	0	0	100
fixed	2	5	5	297023	5	3	3	1	0	888	1	4	0	56	53	0	0	100
fixed	2	5	6	298877	6	4	4	1	0	842	1	4	0	64	54	0	0	100
fixed	2	5	7	300607	3	1	1	1	0	728	1	4	0	40	55	0	0	100
fixed	2	5	8	301838	2	3	3	1	0	1324	1	4	0	56	56	0	0	100
fixed	2	5	9	303787	3	2	2	1	0	970	1	4	0	48	57	0	0	100
fixed	2	5	10	305193	1	4	4	1	0	734	1	4	0	64	58	0	0	100
fixed	2	5	11	306508	5	2	2	1	0	1326	1	4	0	48	59	0	0	100
fixed	2	5	12	308609	4	3	3	1	0	973	1	4	0	56	60	0	0	100
fixed	2	6	1	310475	4	1	1	1	0	750	1	4	0	40	61	0	0	100
fixed	2	6	2	311872	1	2	2	1	0	1147	1	4	0	48	62	0	0	100
fixed	2	6	3	313665	6	4	4	1	0	823	1	4	0	64	63	0	0	100
fixed	2	6	4	315138	2	1	1	1	0	952	1	4	0	40	64	0	0	100
fixed	2	6	5	316848	5	3	3	1	0	888	1	4	0	56	65	0	0	100
fixed	2	6	6	318130	6	4	4	1	0	810	1	4	0	64	66	0	0	100
fixed	2	6	7	319441	3	1	1	1	0	731	1	4	0	40	67	0	0	100
fixed	2	6	8	320779	2	3	3	1	0	954	1	4	0	56	68	0	0	100
fixed	2	6	9	322487	3	2	2	1	0	817	1	4	0	48	69	0	0	100
fixed	2	6	10	324028	1	4	4	1	0	736	1	4	0	64	70	0	0	100
fixed	2	6	11	325733	5	2	2	2	0	1184	2	4	0	48	71	0	0	100
fixed	2	6	12	327775	4	3	3	1	0	834	1	4	0	56	72	0	0	100
fixed	2	7	1	329405	4	1	1	1	0	788	1	4	0	40	73	0	0	100
fixed	2	7	2	331150	1	2	2	1	0	859	1	4	0	48	74	0	0	100
fixed	2	7	3	332340	6	4	4	1	0	904	1	4	0	64	75	0	0	100
fixed	2	7	4	334134	2	1	1	1	0	764	1	4	0	40	76	0	0	100
fixed	2	7	5	335547	5	3	3	1	0	1216	1	4	0	56	77	0	0	100
fixed	2	7	6	337498	6	4	4	1	0	830	1	4	0	64	78	0	0	100
fixed	2	7	7	339199	3	1	1	1	0	773	1	4	0	40	79	0	0	100
fixed	2	7	8	340937	2	3	3	1	0	1172	1	4	0	56	80	0	0	100
fixed	2	7	9	342650	3	2	2	1	0	732	1	4	0	48	81	0	0	100
fixed	2	7	10	344108	1	4	4	1	0	909	1	4	0	64	82	0	0	100
fixed	2	7	11	345783	5	2	2	1	0	1159	1	4	0	48	83	0	0	100
fixed	2	7	12	347471	4	3	3	1	0	1055	1	4	0	56	84	0	0	100
fixed	2	8	1	349638	4	1	1	1	0	755	1	4	0	40	85	0	0	100
fixed	2	8	2	350728	1	2	2	1	0	1357	1	4	0	48	86	0	0	100
fixed	2	8	3	352888	6	4	4	1	0	954	1	4	0	64	87	0	0	100
fixed	2	8	4	354456	2	1	1	1	0	783	1	4	0	40	88	0	0	100
fixed	2	8	5	356212	5	3	3	1	0	925	1	4	0	56	89	0	0	100
fixed	2	8	6	357896	6	4	4	1	0	718	1	4	0	64	90	0	0	100
fixed	2	8	7	359472	3	1	1	1	0	691	1	4	0	40	91	0	0	100
fixed	2	8	8	360672	2	3	3	1	0	1440	1	4	0	56	92	0	0	100
fixed	2	8	9	363118	3	2	2	1	0	912	1	4	0	48	93	0	0	100
fixed	2	8	10	364647	1	4	4	1	0	920	1	4	0	64	94	0	0	100
fixed	2	8	11	366598	5	2	2	1	0	1173	1	4	0	48	95	0	0	100
fixed	2	8	12	368340	4	3	3	1	0	1059	1	4	0	56	96	0	0	100
fixed	2	9	1	370572	4	1	1	2	0	1132	2	4	0	40	97	0	0	100
fixed	2	9	2	372312	1	2	2	1	0	971	1	4	0	48	98	0	0	100
fixed	2	9	3	373775	6	4	4	1	0	757	1	4	0	64	99	0	0	100
fixed	2	9	4	374981	2	1	1	1	0	882	1	4	0	40	100	0	0	100
fixed	2	9	5	376827	5	3	3	1	0	1348	1	4	0	56	101	0	0	100
fixed	2	9	6	378947	6	4	4	1	0	802	1	4	0	64	102	0	0	100
fixed	2	9	7	380478	3	1	1	1	0	793	1	4	0	40	103	0	0	100
fixed	2	9	8	381588	2	3	3	1	0	1138	1	4	0	56	104	0	0	100
fixed	2	9	9	383173	3	2	2	1	0	719	1	4	0	48	105	0	0	100
fixed	2	9	10	384254	1	4	4	1	0	873	1	4	0	64	106	0	0	100
fixed	2	9	11	385853	5	2	2	1	0	1078	1	4	0	48	107	0	0	100
fixed	2	9	12	387327	4	3	3	1	0	999	1	4	0	56	108	0	0	100
fixed	2	10	1	388901	4	1	1	1	0	892	1	4	0	40	109	0	0	100
fixed	2	10	2	390210	1	2	2	1	0	1141	1	4	0	48	110	0	0	100
fixed	2	10	3	391855	6	4	4	1	0	880	1	4	0	64	111	0	0	100
fixed	2	10	4	393517	2	1	1	1	0	737	1	4	0	40	112	0	0	100
fixed	2	10	5	395156	5	3	3	1	0	1116	1	4	0	56	113	0	0	100
fixed	2	10	6	396744	6	4	4	1	0	880	1	4	0	64	114	0	0	100
fixed	2	10	7	398043	3	1	1	1	0	713	1	4	0	40	115	0	0	100
fixed	2	10	8	399043	2	3	3	1	0	983	1	4	0	56	116	0	0	100
fixed	2	10	9	400542	3	2	2	1	0	752	1	4	0	48	117	0	0	100
fixed	2	10	10	402208	1	4	4	1	0	633	1	4	0	64	118	0	0	100
fixed	2	10	11	403566	5	2	2	1	0	1032	1	4	0	48	119	0	0	100
fixed	2	10	12	405225	4	3	3	1	0	713	1	4	0	56	120	0	0	100
fixed	3	1	1	406909	4	1	1	1	0	705	1	4	0	72	1	0	0	100
fixed	3	1	2	408593	1	2	2	2	0	1395	2	4	0	80	2	0	0	100
fixed	3	1	3	410688	6	4	4	1	0	753	1	4	0	96	3	0	0	100
fixed	3	1	4	412302	2	1	1	1	0	741	1	4	0	72	4	0	0	100
fixed	3	1	5	413420	5	3	3	1	0	1190	1	4	0	88	5	0	0	100
fixed	3	1	6	415096	6	4	4	1	0	799	1	4	0	96	6	0	0	100
fixed	3	1	7	416212	3	1	1	1	0	840	1	4	0	72	7	0	0	100
fixed	3	1	8	417783	2	3	3	1	0	1013	1	4	0	88	8	0	0	100
fixed	3	1	9	419137	3	2	2	1	0	796	1	4	0	80	9	0	0	100
fixed	3	1	10	420399	1	4	4	1	0	726	1	4	0	96	10	0	0	100
fixed	3	1	11	421434	5	2	2	1	0	1122	1	4	0	80	11	0	0	100
fixed	3	1	12	423190	4	3	3	1	0	680	1	4	0	88	12	0	0	100
fixed	3	2	1	424505	4	1	1	1	0	624	1	4	0	72	13	0	0	100
fixed	3	2	2	425539	1	2	2	1	0	1116	1	4	0	80	14	0	0	100
fixed	3	2	3	427233	6	4	4	1	0	717	1	4	0	96	15	0	0	100
fixed	3	2	4	428650	2	1	1	1	0	1505	1	4	0	72	16	0	0	100
fixed	3	2	5	430533	5	3	3	1	0	1121	1	4	0	88	17	0	0	100
fixed	3	2	6	432033	6	4	4	1	0	1458	1	4	0	96	18	0	0	100
fixed	3	2	7	433909	3	1	1	1	0	778	1	4	0	72	19	0	0	100
fixed	3	2	8	435534	2	3	3	1	0	1261	1	4	0	88	20	0	0	100
fixed	3	2	9	437292	3	2	2	1	0	787	1	4	0	80	21	0	0	100
fixed	3	2	10	438885	1	4	4	1	0	632	1	4	0	96	22	0	0	100
fixed	3	2	11	440505	5	2	2	2	0	1667	2	4	0	80	23	0	0	100
fixed	3	2	12	442523	4	3	3	1	0	701	1	4	0	88	24	0	0	100
fixed	3	3	1	444086	4	1	1	1	0	827	1	4	0	72	25	0	0	100
fixed	3	3	2	445816	1	2	2	1	0	1146	1	4	0	80	26	0	0	100
fixed	3	3	3	447265	6	4	4	1	0	892	1	4	0	96	27	0	0	100
fixed	3	3	4	449150	2	1	1	1	0	900	1	4	0	72	28	0	0	100
fixed	3	3	5	450867	5	3	3	1	0	971	1	4	0	88	29	0	0	100
fixed	3	3	6	452822	6	4	4	1	0	729	1	4	0	96	30	0	0	100
fixed	3	3	7	454297	3	1	1	1	0	642	1	4	0	72	31	0	0	100
fixed	3	3	8	455728	2	3	3	2	0	942	2	4	0	88	32	0	0	100
fixed	3	3	9	457676	3	2	2	1	0	739	1	4	0	80	33	0	0	100
fixed	3	3	10	458817	1	4	4	1	0	699	1	4	0	96	34	0	0	100
fixed	3	3	11	460105	5	2	2	1	0	1109	1	4	0	80	35	0	0	100
fixed	3	3	12	461637	4	3	3	1	0	820	1	4	0	88	36	0	0	100
fixed	3	4	1	463684	4	1	1	1	0	813	1	4	0	72	37	0	0	100
fixed	3	4	2	465347	1	2	2	1	0	1039	1	4	0	80	38	0	0	100
fixed	3	4	3	467134	6	4	4	1	0	731	1	4	0	96	39	0	0	100
fixed	3	4	4	468874	2	1	1	1	0	753	1	4	0	72	40	0	0	100
fixed	3	4	5	470438	5	3	3	1	0	991	1	4	0	88	41	0	0	100
fixed	3	4	6	472153	6	4	4	1	0	958	1	4	0	96	42	0	0	100
fixed	3	4	7	474143	3	1	1	1	0	706	1	4	0	72	43	0	0	100
fixed	3	4	8	475650	2	3	3	1	0	1138	1	4	0	88	44	0	0	100
fixed	3	4	9	477650	3	2	2	1	0	693	1	4	0	80	45	0	0	100
fixed	3	4	10	479098	1	4	4	1	0	384	1	4	0	96	46	0	0	100
fixed	3	4	11	480482	5	2	2	1	0	1134	1	4	0	80	47	0	0	100
fixed	3	4	12	482283	4	3	3	1	0	473	1	4	0	88	48	0	0	100
fixed	3	5	1	483984	4	1	1	1	0	745	1	4	0	72	49	0	0	100
fixed	3	5	2	485024	1	2	2	1	0	1069	1	4	0	80	50	0	0	100
fixed	3	5	3	486760	6	4	4	1	0	731	1	4	0	96	51	0	0	100
fixed	3	5	4	487959	2	1	1	1	0	816	1	4	0	72	52	0	0	100
fixed	3	5	5	489780	5	3	3	1	0	1219	1	4	0	88	53	0	0	100
fixed	3	5	6	491834	6	4	4	1	0	740	1	4	0	96	54	0	0	100
fixed	3	5	7	493582	3	1	1	1	0	755	1	4	0	72	55	0	0	100
fixed	3	5	8	494958	2	3	3	1	0	953	1	4	0	88	56	0	0	100
fixed	3	5	9	496855	3	2	2	1	0	792	1	4	0	80	57	0	0	100
fixed	3	5	10	498084	1	4	4	1	0	716	1	4	0	96	58	0	0	100
fixed	3	5	11	499279	5	2	2	1	0	1441	1	4	0	80	59	0	0	100
fixed	3	5	12	501499	4	3	3	1	0	1123	1	4	0	88	60	0	0	100
fixed	3	6	1	503432	4	1	1	1	0	761	1	4	0	72	61	0	0	100
fixed	3	6	2	505099	1	2	2	1	0	1091	1	4	0	80	62	0	0	100
fixed	3	6	3	507097	6	4	4	1	0	766	1	4	0	96	63	0	0	100
fixed	3	6	4	508534	2	1	1	1	0	689	1	4	0	72	64	0	0	100
fixed	3	6	5	509558	5	3	3	1	0	942	1	4	0	88	65	0	0	100
fixed	3	6	6	511179	6	4	4	1	0	746	1	4	0	96	66	0	0	100
fixed	3	6	7	512712	3	1	1	2	0	840	2	4	0	72	67	0	0	100
fixed	3	6	8	514020	2	3	3	2	0	1633	2	4	0	88	68	0	0	100
fixed	3	6	9	516174	3	2	2	1	0	758	1	4	0	80	69	0	0	100
fixed	3	6	10	517697	1	4	4	1	0	558	1	4	0	96	70	0	0	100
fixed	3	6	11	519167	5	2	2	1	0	1015	1	4	0	80	71	0	0	100
fixed	3	6	12	520589	4	3	3	1	0	930	1	4	0	88	72	0	0	100
fixed	3	7	1	522244	4	1	1	1	0	724	1	4	0	72	73	0	0	100
fixed	3	7	2	523985	1	2	2	1	0	1291	1	4	0	80	74	0	0	100
fixed	3	7	3	526174	6	4	4	1	0	782	1	4	0	96	75	0	0	100
fixed	3	7	4	527917	2	1	1	1	0	804	1	4	0	72	76	0	0	100
fixed	3	7	5	529445	5	3	3	1	0	1275	1	4	0	88	77	0	0	100
fixed	3	7	6	531614	6	4	4	1	0	848	1	4	0	96	78	0	0	100
fixed	3	7	7	532994	3	1	1	1	0	749	1	4	0	72	79	0	0	100
fixed	3	7	8	534152	2	3	3	1	0	1061	1	4	0	88	80	0	0	100
fixed	3	7	9	535781	3	2	2	1	0	751	1	4	0	80	81	0	0	100
fixed	3	7	10	537428	1	4	4	1	0	306	1	4	0	96	82	0	0	100
fixed	3	7	11	538357	5	2	2	1	0	1258	1	4	0	80	83	0	0	100
fixed	3	7	12	540510	4	3	3	1	0	951	1	4	0	88	84	0	0	100
fixed	3	8	1	542628	4	1	1	1	0	845	1	4	0	72	85	0	0	100
fixed	3	8	2	543876	1	2	2	1	0	977	1	4	0	80	86	0	0	100
fixed	3	8	3	545757	6	4	4	1	0	817	1	4	0	96	87	0	0	100
fixed	3	8	4	547284	2	1	1	1	0	808	1	4	0	72	88	0	0	100
fixed	3	8	5	548998	5	3	3	1	0	1223	1	4	0	88	89	0	0	100
fixed	3	8	6	550542	6	4	4	1	0	830	1	4	0	96	90	0	0	100
fixed	3	8	7	551994	3	1	1	1	0	753	1	4	0	72	91	0	0	100
fixed	3	8	8	553756	2	3	3	1	0	1014	1	4	0	88	92	0	0	100
fixed	3	8	9	555383	3	2	2	1	0	721	1	4	0	80	93	0	0	100
fixed	3	8	10	556788	1	4	4	1	0	334	1	4	0	96	94	0	0	100
fixed	3	8	11	557667	5	2	2	1	0	1176	1	4	0	80	95	0	0	100
fixed	3	8	12	559150	4	3	3	1	0	849	1	4	0	88	96	0	0	100
fixed	3	9	1	560756	4	1	1	1	0	997	1	4	0	72	97	0	0	100
fixed	3	9	2	562409	1	2	2	1	0	1695	1	4	0	80	98	0	0	100
fixed	3	9	3	565115	6	4	4	1	0	741	1	4	0	96	99	0	0	100
fixed	3	9	4	566364	2	1	1	1	0	896	1	4	0	72	100	0	0	100
fixed	3	9	5	568176	5	3	3	1	0	2155	1	4	0	88	101	0	0	100
fixed	3	9	6	571370	6	4	4	1	0	980	1	4	0	96	102	0	0	100
fixed	3	9	7	573377	3	1	1	1	0	767	1	4	0	72	103	0	0	100
fixed	3	9	8	574886	2	3	3	1	0	1039	1	4	0	88	104	0	0	100
fixed	3	9	9	576601	3	2	2	1	0	958	1	4	0	80	105	0	0	100
fixed	3	9	10	577904	1	4	4	1	0	775	1	4	0	96	106	0	0	100
fixed	3	9	11	579608	5	2	2	1	0	1343	1	4	0	80	107	0	0	100
fixed	3	9	12	581394	4	3	3	1	0	859	1	4	0	88	108	0	0	100
fixed	3	10	1	583294	4	1	1	1	0	811	1	4	0	72	109	0	0	100
fixed	3	10	2	584660	1	2	2	1	0	1193	1	4	0	80	110	0	0	100
fixed	3	10	3	586716	6	4	4	1	0	858	1	4	0	96	111	0	0	100
fixed	3	10	4	588358	2	1	1	1	0	1364	1	4	0	72	112	0	0	100
fixed	3	10	5	590508	5	3	3	1	0	1098	1	4	0	88	113	0	0	100
fixed	3	10	6	592610	6	4	4	1	0	808	1	4	0	96	114	0	0	100
fixed	3	10	7	594106	3	1	1	1	0	721	1	4	0	72	115	0	0	100
fixed	3	10	8	595511	2	3	3	1	0	1117	1	4	0	88	116	0	0	100
fixed	3	10	9	597521	3	2	2	1	0	1008	1	4	0	80	117	0	0	100
fixed	3	10	10	599539	1	4	4	1	0	699	1	4	0	96	118	0	0	100
fixed	3	10	11	600879	5	2	2	1	0	1474	1	4	0	80	119	0	0	100
fixed	3	10	12	603380	4	3	3	1	0	960	1	4	0	88	120	0	0	100
fixed	4	1	1	725290	4	1	1	1	0	916	1	4	0	104	1	0	0	100
fixed	4	1	2	727010	1	2	2	1	0	892	1	4	0	112	2	0	0	100
fixed	4	1	3	728281	6	4	4	1	0	702	1	4	0	128	3	0	0	100
fixed	4	1	4	729417	2	1	1	1	0	766	1	4	0	104	4	0	0	100
fixed	4	1	5	730611	5	3	3	1	0	1275	1	4	0	120	5	0	0	100
fixed	4	1	6	732313	6	4	4	1	0	771	1	4	0	128	6	0	0	100
fixed	4	1	7	733548	3	1	1	1	0	671	1	4	0	104	7	0	0	100
fixed	4	1	8	734805	2	3	3	1	0	1002	1	4	0	120	8	0	0	100
fixed	4	1	9	736264	3	2	2	1	0	828	1	4	0	112	9	0	0	100
fixed	4	1	10	737564	1	4	4	1	0	381	1	4	0	128	10	0	0	100
fixed	4	1	11	738263	5	2	2	1	0	1199	1	4	0	112	11	0	0	100
fixed	4	1	12	740118	4	3	3	1	0	905	1	4	0	120	12	0	0	100
fixed	4	2	1	741967	4	1	1	1	0	834	1	4	0	104	13	0	0	100
fixed	4	2	2	743724	1	2	2	1	0	1304	1	4	0	112	14	0	0	100
fixed	4	2	3	745644	6	4	4	1	0	662	1	4	0	128	15	0	0	100
fixed	4	2	4	746703	2	1	1	1	0	698	1	4	0	104	16	0	0	100
fixed	4	2	5	747916	5	3	3	2	0	1582	2	4	0	120	17	0	0	100
fixed	4	2	6	749982	6	4	4	1	0	655	1	4	0	128	18	0	0	100
fixed	4	2	7	751041	3	1	1	1	0	730	1	4	0	104	19	0	0	100
fixed	4	2	8	752743	2	3	3	1	0	970	1	4	0	120	20	0	0	100
fixed	4	2	9	754100	3	2	2	1	0	880	1	4	0	112	21	0	0	100
fixed	4	2	10	755365	1	4	4	1	0	771	1	4	0	128	22	0	0	100
fixed	4	2	11	756913	5	2	2	1	0	1153	1	4	0	112	23	0	0	100
fixed	4	2	12	758769	4	3	3	1	0	787	1	4	0	120	24	0	0	100
fixed	4	3	1	760713	4	1	1	1	0	872	1	4	0	104	25	0	0	100
fixed	4	3	2	762553	1	2	2	1	0	1426	1	4	0	112	26	0	0	100
fixed	4	3	3	764688	6	4	4	1	0	856	1	4	0	128	27	0	0	100
fixed	4	3	4	766553	2	1	1	1	0	945	1	4	0	104	28	0	0	100
fixed	4	3	5	768058	5	3	3	1	0	1009	1	4	0	120	29	0	0	100
fixed	4	3	6	769646	6	4	4	3	0	2270	2	4	0	128	30	0	0	100
fixed	4	3	7	772566	3	1	1	1	0	698	1	4	0	104	31	0	0	100
fixed	4	3	8	774218	2	3	3	1	0	1036	1	4	0	120	32	0	0	100
fixed	4	3	9	776207	3	2	2	1	0	824	1	4	0	112	33	0	0	100
fixed	4	3	10	777808	1	4	4	1	0	364	1	4	0	128	34	0	0	100
fixed	4	3	11	778471	5	2	2	1	0	1040	1	4	0	112	35	0	0	100
fixed	4	3	12	780276	4	3	3	1	0	987	1	4	0	120	36	0	0	100
fixed	4	4	1	782249	4	1	1	1	0	888	1	4	0	104	37	0	0	100
fixed	4	4	2	784100	1	2	2	1	0	1218	1	4	0	112	38	0	0	100
fixed	4	4	3	785940	6	4	4	1	0	876	1	4	0	128	39	0	0	100
fixed	4	4	4	787833	2	1	1	1	0	779	1	4	0	104	40	0	0	100
fixed	4	4	5	789315	5	3	3	1	0	1181	1	4	0	120	41	0	0	100
fixed	4	4	6	790835	6	4	4	1	0	756	1	4	0	128	42	0	0	100
fixed	4	4	7	792384	3	1	1	1	0	667	1	4	0	104	43	0	0	100
fixed	4	4	8	793473	2	3	3	1	0	1045	1	4	0	120	44	0	0	100
fixed	4	4	9	795406	3	2	2	1	0	811	1	4	0	112	45	0	0	100
fixed	4	4	10	797180	1	4	4	1	0	592	1	4	0	128	46	0	0	100
fixed	4	4	11	798636	5	2	2	1	0	1170	1	4	0	112	47	0	0	100
fixed	4	4	12	800437	4	3	3	1	0	670	1	4	0	120	48	0	0	100
fixed	4	5	1	801663	4	1	1	1	0	778	1	4	0	104	49	0	0	100
fixed	4	5	2	802998	1	2	2	1	0	1081	1	4	0	112	50	0	0	100
fixed	4	5	3	804600	6	4	4	1	0	750	1	4	0	128	51	0	0	100
fixed	4	5	4	806158	2	1	1	1	0	891	1	4	0	104	52	0	0	100
fixed	4	5	5	807955	5	3	3	1	0	864	1	4	0	120	53	0	0	100
fixed	4	5	6	809246	6	4	4	1	0	856	1	4	0	128	54	0	0	100
fixed	4	5	7	810465	3	1	1	1	0	797	1	4	0	104	55	0	0	100
fixed	4	5	8	812115	2	3	3	1	0	983	1	4	0	120	56	0	0	100
fixed	4	5	9	813493	3	2	2	1	0	821	1	4	0	112	57	0	0	100
fixed	4	5	10	814759	1	4	4	1	0	632	1	4	0	128	58	0	0	100
fixed	4	5	11	815913	5	2	2	1	0	1142	1	4	0	112	59	0	0	100
fixed	4	5	12	817704	4	3	3	1	0	914	1	4	0	120	60	0	0	100
fixed	4	6	1	819741	4	1	1	1	0	788	1	4	0	104	61	0	0	100
fixed	4	6	2	821559	1	2	2	1	0	1231	1	4	0	112	62	0	0	100
fixed	4	6	3	823716	6	4	4	1	0	748	1	4	0	128	63	0	0	100
fixed	4	6	4	825258	2	1	1	1	0	874	1	4	0	104	64	0	0	100
fixed	4	6	5	827049	5	3	3	1	0	879	1	4	0	120	65	0	0	100
fixed	4	6	6	828326	6	4	4	1	0	792	1	4	0	128	66	0	0	100
fixed	4	6	7	829908	3	1	1	1	0	686	1	4	0	104	67	0	0	100
fixed	4	6	8	831190	2	3	3	1	0	927	1	4	0	120	68	0	0	100
fixed	4	6	9	833151	3	2	2	1	0	948	1	4	0	112	69	0	0	100
fixed	4	6	10	834873	1	4	4	1	0	683	1	4	0	128	70	0	0	100
fixed	4	6	11	835838	5	2	2	2	0	1762	2	4	0	112	71	0	0	100
fixed	4	6	12	838099	4	3	3	1	0	803	1	4	0	120	72	0	0	100
fixed	4	7	1	839724	4	1	1	1	0	822	1	4	0	104	73	0	0	100
fixed	4	7	2	840989	1	2	2	1	0	904	1	4	0	112	74	0	0	100
fixed	4	7	3	842661	6	4	4	1	0	785	1	4	0	128	75	0	0	100
fixed	4	7	4	844492	2	1	1	1	0	796	1	4	0	104	76	0	0	100
fixed	4	7	5	845805	5	3	3	1	0	1084	1	4	0	120	77	0	0	100
fixed	4	7	6	847589	6	4	4	1	0	777	1	4	0	128	78	0	0	100
fixed	4	7	7	849213	3	1	1	1	0	724	1	4	0	104	79	0	0	100
fixed	4	7	8	850557	2	3	3	1	0	931	1	4	0	120	80	0	0	100
fixed	4	7	9	852319	3	2	2	1	0	1168	1	4	0	112	81	0	0	100
fixed	4	7	10	853931	1	4	4	1	0	724	1	4	0	128	82	0	0	100
fixed	4	7	11	855372	5	2	2	2	0	1223	2	4	0	112	83	0	0	100
fixed	4	7	12	857396	4	3	3	1	0	770	1	4	0	120	84	0	0	100
fixed	4	8	1	858971	4	1	1	1	0	902	1	4	0	104	85	0	0	100
fixed	4	8	2	860707	1	2	2	1	0	1485	1	4	0	112	86	0	0	100
fixed	4	8	3	862548	6	4	4	1	0	879	1	4	0	128	87	0	0	100
fixed	4	8	4	864291	2	1	1	1	0	789	1	4	0	104	88	0	0	100
fixed	4	8	5	865399	5	3	3	1	0	1031	1	4	0	120	89	0	0	100
fixed	4	8	6	867355	6	4	4	1	0	843	1	4	0	128	90	0	0	100
fixed	4	8	7	868940	3	1	1	1	0	913	1	4	0	104	91	0	0	100
fixed	4	8	8	870215	2	3	3	1	0	1178	1	4	0	120	92	0	0	100
fixed	4	8	9	872429	3	2	2	1	0	1061	1	4	0	112	93	0	0	100
fixed	4	8	10	874160	1	4	4	1	0	491	1	4	0	128	94	0	0	100
fixed	4	8	11	875540	5	2	2	1	0	1121	1	4	0	112	95	0	0	100
fixed	4	8	12	877047	4	3	3	1	0	833	1	4	0	120	96	0	0	100
fixed	4	9	1	879120	4	1	1	1	0	897	1	4	0	104	97	0	0	100
fixed	4	9	2	881056	1	2	0	1	2	0	3	4	0	112	97	0	1	99
fixed	4	9	3	884433	6	4	4	1	0	784	1	4	0	128	98	0	1	99
fixed	4	9	4	885510	2	1	1	1	0	1947	1	4	0	104	99	0	1	99
fixed	4	9	5	888063	5	3	3	1	0	1070	1	4	0	120	100	0	1	99
fixed	4	9	6	889870	6	4	4	1	0	1026	1	4	0	128	101	0	1	99
fixed	4	9	7	891585	3	1	1	1	0	929	1	4	0	104	102	0	1	99
fixed	4	9	8	893348	2	3	3	1	0	1071	1	4	0	120	103	0	1	99
fixed	4	9	9	895312	3	2	2	1	0	827	1	4	0	112	104	0	1	99
fixed	4	9	10	896528	1	4	4	1	0	920	1	4	0	128	105	0	1	99
fixed	4	9	11	897922	5	2	2	1	0	1261	1	4	0	112	106	0	1	99
fixed	4	9	12	900168	4	3	3	1	0	534	1	4	0	120	107	0	1	99
fixed	4	10	1	901542	4	1	1	1	0	891	1	4	0	104	108	0	1	99
fixed	4	10	2	902762	1	2	2	1	0	2320	1	4	0	112	109	0	1	99
fixed	4	10	3	906026	6	4	4	2	0	2246	2	4	0	128	110	0	1	99
fixed	4	10	4	909201	2	1	1	1	0	751	1	4	0	104	111	0	1	99
fixed	4	10	5	910867	5	3	3	1	0	1208	1	4	0	120	112	0	1	99
fixed	4	10	6	912557	6	4	4	1	0	889	1	4	0	128	113	0	1	99
fixed	4	10	7	914123	3	1	1	1	0	734	1	4	0	104	114	0	1	99
fixed	4	10	8	915284	2	3	3	1	0	942	1	4	0	120	115	0	1	99
fixed	4	10	9	917116	3	2	2	1	0	976	1	4	0	112	116	0	1	99
fixed	4	10	10	918757	1	4	4	1	0	474	1	4	0	128	117	0	1	99
fixed	4	10	11	919826	5	2	2	1	0	1141	1	4	0	112	118	0	1	99
fixed	4	10	12	921573	4	3	3	1	0	659	1	4	0	120	119	0	1	99
fixed	5	1	1	923744	4	1	1	1	0	1007	1	4	0	136	1	0	0	100
fixed	5	1	2	925429	1	2	2	1	0	2088	1	4	0	144	2	0	0	100
fixed	5	1	3	928016	6	4	4	1	0	834	1	4	0	160	3	0	0	100
fixed	5	1	4	929329	2	1	1	1	0	1090	1	4	0	136	4	0	0	100
fixed	5	1	5	931095	5	3	3	1	0	871	1	4	0	152	5	0	0	100
fixed	5	1	6	932531	6	4	4	1	0	1483	1	4	0	160	6	0	0	100
fixed	5	1	7	934289	3	1	1	1	0	824	1	4	0	136	7	0	0	100
fixed	5	1	8	936087	2	3	3	1	0	1013	1	4	0	152	8	0	0	100
fixed	5	1	9	937823	3	2	2	1	0	795	1	4	0	144	9	0	0	100
fixed	5	1	10	939244	1	4	4	1	0	567	1	4	0	160	10	0	0	100
fixed	5	1	11	940635	5	2	2	1	0	1531	1	4	0	144	11	0	0	100
fixed	5	1	12	942636	4	3	3	1	0	839	1	4	0	152	12	0	0	100
fixed	5	2	1	944731	4	1	1	1	0	782	1	4	0	136	13	0	0	100
fixed	5	2	2	945804	1	2	2	1	0	1537	1	4	0	144	14	0	0	100
fixed	5	2	3	947690	6	4	4	1	0	1001	1	4	0	160	15	0	0	100
fixed	5	2	4	949242	2	1	1	1	0	839	1	4	0	136	16	0	0	100
fixed	5	2	5	950598	5	3	3	1	0	918	1	4	0	152	17	0	0	100
fixed	5	2	6	952264	6	4	4	1	0	759	1	4	0	160	18	0	0	100
fixed	5	2	7	953325	3	1	1	1	0	922	1	4	0	136	19	0	0	100
fixed	5	2	8	954903	2	3	3	1	0	1463	1	4	0	152	20	0	0	100
fixed	5	2	9	957031	3	2	2	1	0	941	1	4	0	144	21	0	0	100
fixed	5	2	10	958386	1	4	4	1	0	844	1	4	0	160	22	0	0	100
fixed	5	2	11	959899	5	2	2	1	0	1347	1	4	0	144	23	0	0	100
fixed	5	2	12	962289	4	3	3	1	0	838	1	4	0	152	24	0	0	100
fixed	5	3	1	964296	4	1	1	1	0	713	1	4	0	136	25	0	0	100
fixed	5	3	2	965319	1	2	2	1	0	1726	1	4	0	144	26	0	0	100
fixed	5	3	3	967648	6	4	4	1	0	932	1	4	0	160	27	0	0	100
fixed	5	3	4	968876	2	1	1	1	0	975	1	4	0	136	28	0	0	100
fixed	5	3	5	970546	5	3	3	1	0	1121	1	4	0	152	29	0	0	100
fixed	5	3	6	972708	6	4	4	1	0	837	1	4	0	160	30	0	0	100
fixed	5	3	7	973902	3	1	1	1	0	826	1	4	0	136	31	0	0	100
fixed	5	3	8	975754	2	3	3	1	0	1117	1	4	0	152	32	0	0	100
fixed	5	3	9	977488	3	2	2	1	0	939	1	4	0	144	33	0	0	100
fixed	5	3	10	978783	1	4	4	1	0	1620	1	4	0	160	34	0	0	100
fixed	5	3	11	981079	5	2	2	1	0	1195	1	4	0	144	35	0	0	100
fixed	5	3	12	982752	4	3	3	1	0	1012	1	4	0	152	36	0	0	100
fixed	5	4	1	984311	4	1	1	2	0	906	2	4	0	136	37	0	0	100
fixed	5	4	2	985619	1	2	2	1	0	1298	1	4	0	144	38	0	0	100
fixed	5	4	3	987465	6	4	4	1	0	1100	1	4	0	160	39	0	0	100
fixed	5	4	4	989457	2	1	1	1	0	888	1	4	0	136	40	0	0	100
fixed	5	4	5	991358	5	3	3	1	0	1216	1	4	0	152	41	0	0	100
fixed	5	4	6	993124	6	4	4	1	0	805	1	4	0	160	42	0	0	100
fixed	5	4	7	994245	3	1	1	1	0	805	1	4	0	136	43	0	0	100
fixed	5	4	8	995410	2	3	3	1	0	964	1	4	0	152	44	0	0	100
fixed	5	4	9	997380	3	2	2	1	0	976	1	4	0	144	45	0	0	100
fixed	5	4	10	999083	1	4	4	1	0	472	1	4	0	160	46	0	0	100
fixed	5	4	11	1000432	5	2	2	1	0	1151	1	4	0	144	47	0	0	100
fixed	5	4	12	1002001	4	3	3	1	0	917	1	4	0	152	48	0	0	100
fixed	5	5	1	1004043	4	1	1	1	0	934	1	4	0	136	49	0	0	100
fixed	5	5	2	1005445	1	2	2	2	0	1938	2	4	0	144	50	0	0	100
fixed	5	5	3	1008229	6	4	4	1	0	877	1	4	0	160	51	0	0	100
fixed	5	5	4	1009999	2	1	1	1	0	1834	1	4	0	136	52	0	0	100
fixed	5	5	5	1012795	5	3	3	1	0	1067	1	4	0	152	53	0	0	100
fixed	5	5	6	1014211	6	4	4	1	0	840	1	4	0	160	54	0	0	100
fixed	5	5	7	1015974	3	1	1	1	0	748	1	4	0	136	55	0	0	100
fixed	5	5	8	1017150	2	3	3	1	0	987	1	4	0	152	56	0	0	100
fixed	5	5	9	1018977	3	2	2	1	0	990	1	4	0	144	57	0	0	100
fixed	5	5	10	1020988	1	4	4	1	0	832	1	4	0	160	58	0	0	100
fixed	5	5	11	1022321	5	2	2	1	0	1280	1	4	0	144	59	0	0	100
fixed	5	5	12	1024359	4	3	3	1	0	921	1	4	0	152	60	0	0	100
fixed	5	6	1	1026081	4	1	1	1	0	912	1	4	0	136	61	0	0	100
fixed	5	6	2	1027952	1	2	2	1	0	1801	1	4	0	144	62	0	0	100
fixed	5	6	3	1030426	6	4	4	1	0	920	1	4	0	160	63	0	0	100
fixed	5	6	4	1032147	2	1	1	1	0	1295	1	4	0	136	64	0	0	100
fixed	5	6	5	1034146	5	3	3	1	0	1123	1	4	0	152	65	0	0	100
fixed	5	6	6	1036208	6	4	4	1	0	1052	1	4	0	160	66	0	0	100
fixed	5	6	7	1037807	3	1	1	1	0	752	1	4	0	136	67	0	0	100
fixed	5	6	8	1039029	2	3	3	1	0	1092	1	4	0	152	68	0	0	100
fixed	5	6	9	1041048	3	2	2	1	0	1254	1	4	0	144	69	0	0	100
fixed	5	6	10	1042985	1	4	4	1	0	709	1	4	0	160	70	0	0	100
fixed	5	6	11	1044076	5	2	2	1	0	1110	1	4	0	144	71	0	0	100
fixed	5	6	12	1046023	4	3	3	1	0	836	1	4	0	152	72	0	0	100
fixed	5	7	1	1047466	4	1	1	1	0	775	1	4	0	136	73	0	0	100
fixed	5	7	2	1049267	1	2	0	1	2	0	3	4	0	144	73	0	1	99
fixed	5	7	3	1052233	6	4	4	1	0	765	1	4	0	160	74	0	1	99
fixed	5	7	4	1053993	2	1	1	1	0	1035	1	4	0	136	75	0	1	99
fixed	5	7	5	1055473	5	3	3	1	0	1220	1	4	0	152	76	0	1	99
fixed	5	7	6	1057678	6	4	4	1	0	758	1	4	0	160	77	0	1	99
fixed	5	7	7	1059186	3	1	1	1	0	782	1	4	0	136	78	0	1	99
fixed	5	7	8	1060341	2	3	3	1	0	1070	1	4	0	152	79	0	1	99
fixed	5	7	9	1061894	3	2	2	1	0	1244	1	4	0	144	80	0	1	99
fixed	5	7	10	1063944	1	4	4	1	0	1029	1	4	0	160	81	0	1	99
fixed	5	7	11	1065335	5	2	0	1	2	0	3	4	0	144	81	0	2	98
fixed	5	7	12	1068215	4	3	3	1	0	1008	1	4	0	152	82	0	2	98
fixed	5	8	1	1070189	4	1	1	1	0	812	1	4	0	136	83	0	2	98
fixed	5	8	2	1071658	1	2	2	1	0	1366	1	4	0	144	84	0	2	98
fixed	5	8	3	1074062	6	4	4	1	0	776	1	4	0	160	85	0	2	98
fixed	5	8	4	1075785	2	1	1	1	0	903	1	4	0	136	86	0	2	98
fixed	5	8	5	1077148	5	3	3	1	0	1006	1	4	0	152	87	0	2	98
fixed	5	8	6	1078670	6	4	4	1	0	765	1	4	0	160	88	0	2	98
fixed	5	8	7	1079713	3	1	1	1	0	929	1	4	0	136	89	0	2	98
fixed	5	8	8	1081503	2	3	3	1	0	989	1	4	0	152	90	0	2	98
fixed	5	8	9	1082807	3	2	2	1	0	1134	1	4	0	144	91	0	2	98
fixed	5	8	10	1084905	1	4	4	2	0	1325	2	4	0	160	92	0	2	98
fixed	5	8	11	1086581	5	2	2	1	0	1238	1	4	0	144	93	0	2	98
fixed	5	8	12	1088310	4	3	3	1	0	1037	1	4	0	152	94	0	2	98
fixed	5	9	1	1090606	4	1	1	1	0	859	1	4	0	136	95	0	2	98
fixed	5	9	2	1092057	1	2	2	1	0	1542	1	4	0	144	96	0	2	98
fixed	5	9	3	1094599	6	4	4	1	0	850	1	4	0	160	97	0	2	98
fixed	5	9	4	1096040	2	1	1	1	0	965	1	4	0	136	98	0	2	98
fixed	5	9	5	1097536	5	3	3	1	0	990	1	4	0	152	99	0	2	98
fixed	5	9	6	1099435	6	4	4	1	0	1214	1	4	0	160	100	0	2	98
fixed	5	9	7	1101154	3	1	1	1	0	749	1	4	0	136	101	0	2	98
fixed	5	9	8	1102232	2	3	3	1	0	1103	1	4	0	152	102	0	2	98
fixed	5	9	9	1103993	3	2	2	1	0	1085	1	4	0	144	103	0	2	98
fixed	5	9	10	1106106	1	4	4	1	0	491	1	4	0	160	104	0	2	98
fixed	5	9	11	1107253	5	2	2	1	0	1195	1	4	0	144	105	0	2	98
fixed	5	9	12	1108864	4	3	3	1	0	943	1	4	0	152	106	0	2	98
fixed	5	10	1	1110906	4	1	1	1	0	976	1	4	0	136	107	0	2	98
fixed	5	10	2	1112285	1	2	2	1	0	1046	1	4	0	144	108	0	2	98
fixed	5	10	3	1114124	6	4	4	1	0	840	1	4	0	160	109	0	2	98
fixed	5	10	4	1115695	2	1	1	1	0	1301	1	4	0	136	110	0	2	98
fixed	5	10	5	1117884	5	3	3	1	0	1416	1	4	0	152	111	0	2	98
fixed	5	10	6	1119835	6	4	4	1	0	870	1	4	0	160	112	0	2	98
fixed	5	10	7	1121017	3	1	1	1	0	1163	1	4	0	136	113	0	2	98
fixed	5	10	8	1122949	2	3	3	1	0	1017	1	4	0	152	114	0	2	98
fixed	5	10	9	1124793	3	2	2	1	0	860	1	4	0	144	115	0	2	98
fixed	5	10	10	1126430	1	4	4	1	0	550	1	4	0	160	116	0	2	98
fixed	5	10	11	1127416	5	2	2	1	0	1300	1	4	0	144	117	0	2	98
fixed	5	10	12	1129391	4	3	3	1	0	881	1	4	0	152	118	0	2	98
random	6	1	1	1235425	6	1	1	1	0	1005	1	4	0	168	1	0	0	100
random	6	1	2	1237219	4	4	4	1	0	698	1	4	0	192	2	0	0	100
random	6	1	3	1238258	2	2	0	1	2	0	3	4	0	176	2	0	1	67
random	6	1	4	1241318	3	3	3	1	0	844	1	4	0	184	3	0	1	75
random	6	1	5	1242984	5	2	2	1	0	1038	1	4	0	176	4	0	1	80
random	6	1	6	1244431	1	4	4	1	0	768	1	4	0	192	5	0	1	83
random	6	1	7	1246087	6	1	1	1	0	706	1	4	0	168	6	0	1	86
random	6	1	8	1247217	2	3	3	1	0	963	1	4	0	184	7	0	1	88
random	6	1	9	1248517	4	2	2	1	0	1387	1	4	0	176	8	0	1	89
random	6	1	10	1250457	1	1	1	1	0	841	1	4	0	168	9	0	1	90
random	6	1	11	1251895	5	4	4	1	0	956	1	4	0	192	10	0	1	91
random	6	1	12	1253861	3	3	3	1	0	905	1	4	0	184	11	0	1	92
random	6	1	13	1255410	5	2	2	1	0	695	1	4	0	176	12	0	1	92
random	6	1	14	1257065	1	4	4	1	0	841	1	4	0	192	13	0	1	93
random	6	1	15	1258285	3	1	1	1	0	749	1	4	0	168	14	0	1	93
random	6	1	16	1259789	4	3	3	1	0	1294	1	4	0	184	15	0	1	94
random	6	1	17	1261510	6	4	4	1	0	861	1	4	0	192	16	0	1	94
random	6	1	18	1263053	2	1	1	1	0	660	1	4	0	168	17	0	1	94
random	6	1	19	1264294	5	3	3	1	0	991	1	4	0	184	18	0	1	95
random	6	1	20	1265659	2	2	2	1	0	957	1	4	0	176	19	0	1	95
random	6	1	21	1267593	3	3	3	1	0	1235	1	4	0	184	20	0	1	95
random	6	1	22	1269374	6	1	1	2	0	760	2	4	0	168	21	0	1	95
random	6	1	23	1270595	4	2	2	1	0	1076	1	4	0	176	22	0	1	96
random	6	1	24	1272589	1	4	4	1	0	752	1	4	0	192	23	0	1	96
random	6	1	25	1274557	4	3	3	1	0	1036	1	4	0	184	24	0	1	96
random	6	1	26	1276154	2	1	1	1	0	737	1	4	0	168	25	0	1	96
random	6	1	27	1277742	5	2	2	1	0	1366	1	4	0	176	26	0	1	96
random	6	1	28	1279450	6	4	4	1	0	765	1	4	0	192	27	0	1	96
random	6	1	29	1280953	1	3	3	1	0	910	1	4	0	184	28	0	1	97
random	6	1	30	1282832	5	2	2	1	0	1038	1	4	0	176	29	0	1	97
random	6	1	31	1284352	2	1	1	1	0	925	1	4	0	168	30	0	1	97
random	6	1	32	1285711	3	3	3	1	0	876	1	4	0	184	31	0	1	97
random	6	1	33	1287426	6	4	4	1	0	739	1	4	0	192	32	0	1	97
random	6	1	34	1289198	4	2	2	1	0	1040	1	4	0	176	33	0	1	97
random	6	1	35	1291083	3	4	4	1	0	880	1	4	0	192	34	0	1	97
random	6	1	36	1292585	1	1	1	1	0	808	1	4	0	168	35	0	1	97
random	6	1	37	1294623	3	4	4	1	0	842	1	4	0	192	36	0	1	97
random	6	1	38	1296295	5	3	3	1	0	1091	1	4	0	184	37	0	1	97
random	6	1	39	1297851	6	1	1	2	0	2066	2	4	0	168	38	0	1	97
random	6	1	40	1300925	1	2	2	1	0	1671	1	4	0	176	39	0	1	98
random	6	1	41	1303556	2	3	3	1	0	1136	1	4	0	184	40	0	1	98
random	6	1	42	1305171	4	4	4	1	0	756	1	4	0	192	41	0	1	98
random	6	1	43	1306242	1	2	2	1	0	1214	1	4	0	176	42	0	1	98
random	6	1	44	1308303	6	3	3	1	0	951	1	4	0	184	43	0	1	98
random	6	1	45	1310218	3	1	1	1	0	838	1	4	0	168	44	0	1	98
random	6	1	46	1312095	4	4	4	1	0	711	1	4	0	192	45	0	1	98
random	6	1	47	1313430	2	2	2	1	0	1246	1	4	0	176	46	0	1	98
random	6	1	48	1315550	5	1	1	1	0	1036	1	4	0	168	47	0	1	98
random	6	1	49	1317679	2	3	3	1	0	1034	1	4	0	184	48	0	1	98
random	6	1	50	1319616	3	1	1	1	0	1040	1	4	0	168	49	0	1	98
random	6	1	51	1321455	1	4	4	1	0	682	1	4	0	192	50	0	1	98
random	6	1	52	1322921	5	3	3	1	0	1100	1	4	0	184	51	0	1	98
random	6	1	53	1324523	3	2	2	1	0	816	1	4	0	176	52	0	1	98
random	6	1	54	1325689	6	4	4	1	0	927	1	4	0	192	53	0	1	98
random	6	1	55	1327322	4	2	2	1	0	1225	1	4	0	176	54	0	1	98
random	6	1	56	1328990	1	1	1	1	0	867	1	4	0	168	55	0	1	98
random	6	1	57	1330523	5	4	4	1	0	786	1	4	0	192	56	0	1	98
random	6	1	58	1331710	2	1	1	1	0	776	1	4	0	168	57	0	1	98
random	6	1	59	1333107	6	2	2	1	0	1116	1	4	0	176	58	0	1	98
random	6	1	60	1334872	4	3	3	1	0	1305	1	4	0	184	59	0	1	98
random	6	1	61	1336810	1	2	2	1	0	919	1	4	0	176	60	0	1	98
random	6	1	62	1338436	6	4	4	1	0	675	1	4	0	192	61	0	1	98
random	6	1	63	1339622	4	1	1	1	0	912	1	4	0	168	62	0	1	98
random	6	1	64	1341486	2	2	2	1	0	1249	1	4	0	176	63	0	1	98
random	6	1	65	1343572	4	3	3	1	0	1009	1	4	0	184	64	0	1	98
random	6	1	66	1345193	3	1	1	1	0	885	1	4	0	168	65	0	1	98
random	6	1	67	1347031	1	3	3	1	0	1711	1	4	0	184	66	0	1	99
random	6	1	68	1349273	5	4	4	1	0	863	1	4	0	192	67	0	1	99
random	6	1	69	1350496	2	2	0	1	2	0	3	4	0	176	67	0	2	97
random	6	1	70	1353615	3	1	1	1	0	800	1	4	0	168	68	0	2	97
random	6	1	71	1355264	5	4	4	1	0	850	1	4	0	192	69	0	2	97
random	6	1	72	1356733	6	3	3	1	0	1172	1	4	0	184	70	0	2	97
random	6	1	73	1359148	2	1	1	1	0	877	1	4	0	168	71	0	2	97
random	6	1	74	1360709	5	3	3	1	0	1227	1	4	0	184	72	0	2	97
random	6	1	75	1362692	1	4	4	1	0	831	1	4	0	192	73	0	2	97
random	6	1	76	1364121	6	2	2	1	0	1027	1	4	0	176	74	0	2	97
random	6	1	77	1365572	2	1	1	1	0	805	1	4	0	168	75	0	2	97
random	6	1	78	1366896	4	4	4	1	0	838	1	4	0	192	76	0	2	97
random	6	1	79	1368022	3	2	2	1	0	1053	1	4	0	176	77	0	2	97
random	6	1	80	1369953	4	3	3	1	0	916	1	4	0	184	78	0	2	98
random	6	1	81	1371867	1	4	4	1	0	891	1	4	0	192	79	0	2	98
random	6	1	82	1373452	5	1	1	1	0	1007	1	4	0	168	80	0	2	98
random	6	1	83	1375503	3	2	2	1	0	968	1	4	0	176	81	0	2	98
random	6	1	84	1377265	6	3	3	1	0	998	1	4	0	184	82	0	2	98
random	6	1	85	1378913	3	2	2	1	0	1128	1	4	0	176	83	0	2	98
random	6	1	86	1380806	1	3	3	1	0	1552	1	4	0	184	84	0	2	98
random	6	1	87	1383339	4	4	4	1	0	1117	1	4	0	192	85	0	2	98
random	6	1	88	1385494	2	1	1	1	0	1233	1	4	0	168	86	0	2	98
random	6	1	89	1387074	6	4	4	1	0	935	1	4	0	192	87	0	2	98
random	6	1	90	1388657	3	3	3	1	0	1011	1	4	0	184	88	0	2	98
random	6	1	91	1390502	5	4	4	1	0	1718	1	4	0	192	89	0	2	98
random	6	1	92	1392570	1	2	2	1	0	1014	1	4	0	176	90	0	2	98
random	6	1	93	1394304	5	1	1	1	0	900	1	4	0	168	91	0	2	98
random	6	1	94	1396130	4	3	3	1	0	1119	1	4	0	184	92	0	2	98
random	6	1	95	1397795	6	1	1	1	0	1872	1	4	0	168	93	0	2	98
random	6	1	96	1400641	2	2	2	1	0	880	1	4	0	176	94	0	2	98
random	6	1	97	1402638	4	3	3	1	0	1019	1	4	0	184	95	0	2	98
random	6	1	98	1403962	3	2	2	1	0	1299	1	4	0	176	96	0	2	98
random	6	1	99	1405984	6	3	3	1	0	878	1	4	0	184	97	0	2	98
random	6	1	100	1407832	1	4	4	1	0	839	1	4	0	192	98	0	2	98
random	6	1	101	1409605	4	1	1	1	0	1444	1	4	0	168	99	0	2	98
random	6	1	102	1411591	5	2	2	1	0	1000	1	4	0	176	100	0	2	98
random	6	1	103	1413107	2	4	4	1	0	800	1	4	0	192	101	0	2	98
random	6	1	104	1414654	3	1	1	1	0	1694	1	4	0	168	102	0	2	98
random	6	1	105	1417007	1	3	3	1	0	1123	1	4	0	184	103	0	2	98
random	6	1	106	1418944	2	2	2	1	0	816	1	4	0	176	104	0	2	98
random	6	1	107	1420264	5	4	4	1	0	1545	1	4	0	192	105	0	2	98
random	6	1	108	1422259	6	1	1	1	0	932	1	4	0	168	106	0	2	98
random	6	1	109	1424224	5	4	4	1	0	1785	1	4	0	192	107	0	2	98
random	6	1	110	1427013	6	3	3	1	0	923	1	4	0	184	108	0	2	98
random	6	1	111	1428838	2	2	2	1	0	790	1	4	0	176	109	0	2	98
random	6	1	112	1430143	3	1	1	1	0	1030	1	4	0	168	110	0	2	98
random	6	1	113	1431813	1	2	2	1	0	952	1	4	0	176	111	0	2	98
random	6	1	114	1433732	2	3	3	1	0	1014	1	4	0	184	112	0	2	98
random	6	1	115	1435758	3	1	1	1	0	881	1	4	0	168	113	0	2	98
random	6	1	116	1437250	4	4	4	1	0	1026	1	4	0	192	114	0	2	98
random	6	1	117	1439150	6	1	1	1	0	1169	1	4	0	168	115	0	2	98
random	6	1	118	1440643	5	3	3	1	0	1066	1	4	0	184	116	0	2	98
random	6	1	119	1442024	1	4	4	1	0	919	1	4	0	192	117	0	2	98
random	6	1	120	1443529	4	2	2	1	0	1256	1	4	0	176	118	0	2	98
fixed	7	1	1	1446126	4	1	1	1	0	1817	1	4	0	200	1	0	0	100
fixed	7	1	2	1448434	1	2	2	1	0	951	1	4	0	208	2	0	0	100
fixed	7	1	3	1450333	6	4	4	1	0	1152	1	4	0	224	3	0	0	100
fixed	7	1	4	1451960	2	1	1	1	0	930	1	4	0	200	4	0	0	100
fixed	7	1	5	1453758	5	3	3	1	0	1175	1	4	0	216	5	0	0	100
fixed	7	1	6	1455791	6	4	4	1	0	1368	1	4	0	224	6	0	0	100
fixed	7	1	7	1458126	3	1	1	1	0	1373	1	4	0	200	7	0	0	100
fixed	7	1	8	1459928	2	3	3	1	0	2417	1	4	0	216	8	0	0	100
fixed	7	1	9	1462796	3	2	2	1	0	792	1	4	0	208	9	0	0	100
fixed	7	1	10	1464618	1	4	4	1	0	282	1	4	0	224	10	0	0	100
fixed	7	1	11	1465425	5	2	2	1	0	1096	1	4	0	208	11	0	0	100
fixed	7	1	12	1466945	4	3	3	1	0	871	1	4	0	216	12	0	0	100
fixed	7	2	1	1468700	4	1	1	1	0	1069	1	4	0	200	1	0	0	8
fixed	7	2	2	1470109	1	2	2	1	0	1890	1	4	0	208	2	0	0	14
fixed	7	2	3	1472302	6	4	4	1	0	853	1	4	0	224	3	0	0	20
fixed	7	2	4	1474086	2	1	1	1	0	1337	1	4	0	200	4	0	0	25
fixed	7	2	5	1476407	5	3	3	1	0	1143	1	4	0	216	5	0	0	29
fixed	7	2	6	1478089	6	4	4	1	0	1023	1	4	0	224	6	0	0	33
fixed	7	2	7	1480159	3	1	1	1	0	1104	1	4	0	200	7	0	0	37
fixed	7	2	8	1481631	2	3	3	1	0	1481	1	4	0	216	8	0	0	40
fixed	7	2	9	1483513	3	2	2	1	0	970	1	4	0	208	9	0	0	43
fixed	7	2	10	1484857	1	4	4	1	0	697	1	4	0	224	10	0	0	45
fixed	7	2	11	1486580	5	2	0	0	2	0	3	4	0	208	10	0	1	43
fixed	7	2	12	1489727	4	3	0	0	2	0	3	4	0	216	10	0	2	42
fixed	7	3	1	1492993	4	1	1	1	0	2192	1	4	0	200	1	0	0	4
fixed	7	3	2	1496117	1	2	2	1	0	852	1	4	0	208	2	0	0	8
fixed	7	3	3	1497801	6	4	4	1	0	821	1	4	0	224	3	0	0	11
fixed	7	3	4	1499312	2	1	1	1	0	741	1	4	0	200	4	0	0	14
fixed	7	3	5	1500745	5	3	3	2	0	1816	2	4	0	216	5	0	0	17
fixed	7	3	6	1502851	6	4	4	1	0	743	1	4	0	224	6	0	0	20
fixed	7	3	7	1504518	3	1	1	1	0	800	1	4	0	200	7	0	0	23
fixed	7	3	8	1505906	2	3	3	1	0	1021	1	4	0	216	8	0	0	25
fixed	7	3	9	1507305	3	2	2	1	0	1002	1	4	0	208	9	0	0	27
fixed	7	3	10	1509048	1	4	4	1	0	296	1	4	0	224	10	0	0	29
fixed	7	3	11	1510147	5	2	2	1	0	786	1	4	0	208	11	0	0	31
fixed	7	3	12	1511293	4	3	3	1	0	913	1	4	0	216	12	0	0	33
fixed	7	4	1	1512858	4	1	1	1	0	767	1	4	0	200	1	0	0	3
fixed	7	4	2	1514302	1	2	2	1	0	1098	1	4	0	208	2	0	0	5
fixed	7	4	3	1516396	6	4	4	1	0	1026	1	4	0	224	3	0	0	8
fixed	7	4	4	1518397	2	1	1	1	0	741	1	4	0	200	4	0	0	10
fixed	7	4	5	1520072	5	3	3	1	0	1134	1	4	0	216	5	0	0	12
fixed	7	4	6	1521908	6	4	4	1	0	792	1	4	0	224	6	0	0	14
fixed	7	4	7	1523531	3	1	1	1	0	923	1	4	0	200	7	0	0	16
fixed	7	4	8	1525411	2	3	3	1	0	1251	1	4	0	216	8	0	0	18
fixed	7	4	9	1527007	3	2	2	1	0	839	1	4	0	208	9	0	0	20
fixed	7	4	10	1528760	1	4	4	1	0	318	1	4	0	224	10	0	0	22
fixed	7	4	11	1529552	5	2	2	1	0	964	1	4	0	208	11	0	0	23
fixed	7	4	12	1531282	4	3	3	1	0	883	1	4	0	216	12	0	0	25
fixed	7	5	1	1533108	4	1	1	2	0	1565	2	4	0	200	1	0	0	2
fixed	7	5	2	1535176	1	2	2	1	0	1182	1	4	0	208	2	0	0	4
fixed	7	5	3	1537084	6	4	4	1	0	765	1	4	0	224	3	0	0	6
fixed	7	5	4	1538573	2	1	1	1	0	718	1	4	0	200	4	0	0	8
fixed	7	5	5	1540191	5	3	3	1	0	1137	1	4	0	216	5	0	0	9
fixed	7	5	6	1541688	6	4	4	1	0	866	1	4	0	224	6	0	0	11
fixed	7	5	7	1543347	3	1	1	1	0	739	1	4	0	200	7	0	0	13
fixed	7	5	8	1544719	2	3	3	1	0	1385	1	4	0	216	8	0	0	14
fixed	7	5	9	1546421	3	2	2	1	0	746	1	4	0	208	9	0	0	16
fixed	7	5	10	1547718	1	4	4	1	0	419	1	4	0	224	10	0	0	17
fixed	7	5	11	1548603	5	2	2	1	0	981	1	4	0	208	11	0	0	19
fixed	7	5	12	1549956	4	3	3	1	0	860	1	4	0	216	12	0	0	20
fixed	7	6	1	1551921	4	1	1	2	0	1872	2	4	0	200	1	0	0	2
fixed	7	6	2	1554337	1	2	2	1	0	1050	1	4	0	208	2	0	0	3
fixed	7	6	3	1555742	6	4	4	1	0	903	1	4	0	224	3	0	0	5
fixed	7	6	4	1557277	2	1	1	1	0	926	1	4	0	200	4	0	0	6
fixed	7	6	5	1559001	5	3	3	1	0	1021	1	4	0	216	5	0	0	8
fixed	7	6	6	1560964	6	4	4	1	0	809	1	4	0	224	6	0	0	9
fixed	7	6	7	1562266	3	1	1	1	0	970	1	4	0	200	7	0	0	10
fixed	7	6	8	1563730	2	3	3	1	0	997	1	4	0	216	8	0	0	12
fixed	7	6	9	1565405	3	2	2	1	0	861	1	4	0	208	9	0	0	13
fixed	7	6	10	1566716	1	4	4	2	0	758	2	4	0	224	10	0	0	14
fixed	7	6	11	1568232	5	2	2	1	0	1014	1	4	0	208	11	0	0	15
fixed	7	6	12	1569968	4	3	3	1	0	1076	1	4	0	216	12	0	0	17
fixed	7	7	1	1572321	4	1	1	1	0	776	1	4	0	200	1	0	0	1
fixed	7	7	2	1574006	1	2	2	1	0	1305	1	4	0	208	2	0	0	3
fixed	7	7	3	1575744	6	4	4	1	0	1247	1	4	0	224	3	0	0	4
fixed	7	7	4	1577985	2	1	1	1	0	792	1	4	0	200	4	0	0	5
fixed	7	7	5	1579202	5	3	3	1	0	1053	1	4	0	216	5	0	0	6
fixed	7	7	6	1581019	6	4	4	1	0	952	1	4	0	224	6	0	0	8
fixed	7	7	7	1582347	3	1	1	1	0	832	1	4	0	200	7	0	0	9
fixed	7	7	8	1583957	2	3	3	1	0	1252	1	4	0	216	8	0	0	10
fixed	7	7	9	1586001	3	2	2	1	0	1501	1	4	0	208	9	0	0	11
fixed	7	7	10	1588200	1	4	4	1	0	808	1	4	0	224	10	0	0	12
fixed	7	7	11	1589782	5	2	2	1	0	1261	1	4	0	208	11	0	0	13
fixed	7	7	12	1591539	4	3	3	1	0	946	1	4	0	216	12	0	0	14
fixed	7	8	1	1593657	4	1	1	1	0	1433	1	4	0	200	1	0	0	1
fixed	7	8	2	1595566	1	2	2	1	0	1080	1	4	0	208	2	0	0	2
fixed	7	8	3	1597029	6	4	4	1	0	850	1	4	0	224	3	0	0	3
fixed	7	8	4	1598552	2	1	1	1	0	1361	1	4	0	200	4	0	0	5
fixed	7	8	5	1600815	5	3	3	1	0	1034	1	4	0	216	5	0	0	6
fixed	7	8	6	1602314	6	4	4	1	0	1922	1	4	0	224	6	0	0	7
fixed	7	8	7	1604937	3	1	1	1	0	1611	1	4	0	200	7	0	0	8
fixed	7	8	8	1607587	2	3	3	1	0	1011	1	4	0	216	8	0	0	9
fixed	7	8	9	1609090	3	2	2	1	0	1227	1	4	0	208	9	0	0	10
fixed	7	8	10	1611061	1	4	4	1	0	920	1	4	0	224	10	0	0	11
fixed	7	8	11	1612710	5	2	2	1	0	1730	1	4	0	208	11	0	0	12
fixed	7	8	12	1615142	4	3	3	1	0	1131	1	4	0	216	12	0	0	13
fixed	7	9	1	1616897	4	1	1	1	0	1504	1	4	0	200	1	0	0	1
fixed	7	9	2	1618819	1	2	2	1	0	2447	1	4	0	208	2	0	0	2
fixed	7	9	3	1621833	6	4	4	1	0	967	1	4	0	224	3	0	0	3
fixed	7	9	4	1623341	2	1	1	1	0	824	1	4	0	200	4	0	0	4
fixed	7	9	5	1624756	5	3	3	1	0	980	1	4	0	216	5	0	0	5
fixed	7	9	6	1626024	6	4	4	1	0	2302	1	4	0	224	6	0	0	6
fixed	7	9	7	1628651	3	1	1	1	0	767	1	4	0	200	7	0	0	7
fixed	7	9	8	1629740	2	3	3	1	0	1577	1	4	0	216	8	0	0	8
fixed	7	9	9	1631830	3	2	2	1	0	968	1	4	0	208	9	0	0	9
fixed	7	9	10	1633794	1	4	4	1	0	861	1	4	0	224	10	0	0	9
fixed	7	9	11	1635496	5	2	2	1	0	1053	1	4	0	208	11	0	0	10
fixed	7	9	12	1637434	4	3	3	1	0	1219	1	4	0	216	12	0	0	11
fixed	7	10	1	1639402	4	1	1	1	0	1335	1	4	0	200	1	0	0	1
fixed	7	10	2	1641108	1	2	2	1	0	1431	1	4	0	208	2	0	0	2
fixed	7	10	3	1643526	6	4	4	1	0	856	1	4	0	224	3	0	0	3
fixed	7	10	4	1644686	2	1	1	1	0	1455	1	4	0	200	4	0	0	4
fixed	7	10	5	1647158	5	3	3	1	0	1111	1	4	0	216	5	0	0	4
fixed	7	10	6	1649144	6	4	4	1	0	1114	1	4	0	224	6	0	0	5
fixed	7	10	7	1650600	3	1	1	1	0	1085	1	4	0	200	7	0	0	6
fixed	7	10	8	1652208	2	3	0	0	2	0	3	4	0	216	7	0	1	6
fixed	7	10	9	1655450	3	2	2	1	0	808	1	4	0	208	8	0	1	7
fixed	7	10	10	1656567	1	4	4	1	0	1000	1	4	0	224	9	0	1	8
fixed	7	10	11	1657871	5	2	2	1	0	969	1	4	0	208	10	0	1	8
fixed	7	10	12	1659737	4	3	3	1	0	842	1	4	0	216	11	0	1	9
