type	block	sequ.	trial	time	Pos.	Color	Button	NumRsp	Resp_1	RT_1	R_Code	Resp_2	RT_2	Trigg.	n_hit	n_inc	n_miss	score_%

random	1	1	1	907	6	1	1	1	0	1323	1	4	0	8	1	0	0	100
random	1	1	2	3210	4	4	4	1	0	802	1	4	0	32	2	0	0	100
random	1	1	3	5004	2	2	2	1	0	1181	1	4	0	16	3	0	0	100
random	1	1	4	6699	3	3	3	1	0	558	1	4	0	24	4	0	0	100
random	1	1	5	7965	5	2	2	1	0	1416	1	4	0	16	5	0	0	100
random	1	1	6	10332	1	4	4	1	0	731	1	4	0	32	6	0	0	100
random	1	1	7	11810	6	1	1	1	0	773	1	4	0	8	7	0	0	100
random	1	1	8	13608	2	3	3	1	0	905	1	4	0	24	8	0	0	100
random	1	1	9	15518	4	2	2	1	0	808	1	4	0	16	9	0	0	100
random	1	1	10	16734	1	1	1	1	0	860	1	4	0	8	10	0	0	100
random	1	1	11	17976	5	4	4	1	0	768	1	4	0	32	11	0	0	100
random	1	1	12	19460	3	3	3	1	0	961	1	4	0	24	12	0	0	100
random	1	1	13	21643	5	2	2	1	0	1020	1	4	0	16	13	0	0	100
random	1	1	14	23432	1	4	4	1	0	657	1	4	0	32	14	0	0	100
random	1	1	15	24896	3	1	1	1	0	723	1	4	0	8	15	0	0	100
random	1	1	16	26013	4	3	3	1	0	804	1	4	0	24	16	0	0	100
random	1	1	17	27714	6	4	4	1	0	788	1	4	0	32	17	0	0	100
random	1	1	18	29029	2	1	1	1	0	748	1	4	0	8	18	0	0	100
random	1	1	19	30420	5	3	3	1	0	1137	1	4	0	24	19	0	0	100
random	1	1	20	31994	2	2	2	1	0	870	1	4	0	16	20	0	0	100
random	1	1	21	33539	3	3	3	1	0	860	1	4	0	24	21	0	0	100
random	1	1	22	35400	6	1	1	1	0	790	1	4	0	8	22	0	0	100
random	1	1	23	37070	4	2	2	1	0	999	1	4	0	16	23	0	0	100
random	1	1	24	38660	1	4	4	1	0	668	1	4	0	32	24	0	0	100
random	1	1	25	40222	4	3	3	1	0	1130	1	4	0	24	25	0	0	100
random	1	1	26	41885	2	1	1	1	0	835	1	4	0	8	26	0	0	100
random	1	1	27	43040	5	2	2	1	0	1139	1	4	0	16	27	0	0	100
random	1	1	28	44736	6	4	4	1	0	738	1	4	0	32	28	0	0	100
random	1	1	29	45976	1	3	3	1	0	1070	1	4	0	24	29	0	0	100
random	1	1	30	48044	5	2	2	1	0	1038	1	4	0	16	30	0	0	100
random	1	1	31	50118	2	1	1	1	0	759	1	4	0	8	31	0	0	100
random	1	1	32	51737	3	3	3	1	0	962	1	4	0	24	32	0	0	100
random	1	1	33	53068	6	4	4	1	0	754	1	4	0	32	33	0	0	100
random	1	1	34	54625	4	2	2	1	0	775	1	4	0	16	34	0	0	100
random	1	1	35	56443	3	4	4	1	0	746	1	4	0	32	35	0	0	100
random	1	1	36	57742	1	1	1	1	0	732	1	4	0	8	36	0	0	100
random	1	1	37	59453	3	4	4	1	0	771	1	4	0	32	37	0	0	100
random	1	1	38	61243	5	3	3	1	0	911	1	4	0	24	38	0	0	100
random	1	1	39	62759	6	1	1	1	0	807	1	4	0	8	39	0	0	100
random	1	1	40	64534	1	2	2	1	0	900	1	4	0	16	40	0	0	100
random	1	1	41	66465	2	3	3	1	0	1098	1	4	0	24	41	0	0	100
random	1	1	42	68049	4	4	4	1	0	663	1	4	0	32	42	0	0	100
random	1	1	43	69044	1	2	2	1	0	933	1	4	0	16	43	0	0	100
random	1	1	44	70276	6	3	3	2	0	1089	2	4	0	24	44	0	0	100
random	1	1	45	72173	3	1	1	1	0	776	1	4	0	8	45	0	0	100
random	1	1	46	73891	4	4	4	1	0	728	1	4	0	32	46	0	0	100
random	1	1	47	75095	2	2	2	1	0	1141	1	4	0	16	47	0	0	100
random	1	1	48	77063	5	1	1	1	0	937	1	4	0	8	48	0	0	100
random	1	1	49	78968	2	3	3	1	0	1448	1	4	0	24	49	0	0	100
random	1	1	50	80738	3	1	1	1	0	949	1	4	0	8	50	0	0	100
random	1	1	51	82317	1	4	4	1	0	675	1	4	0	32	51	0	0	100
random	1	1	52	84011	5	3	3	1	0	963	1	4	0	24	52	0	0	100
random	1	1	53	85546	3	2	2	1	0	810	1	4	0	16	53	0	0	100
random	1	1	54	86835	6	4	4	1	0	779	1	4	0	32	54	0	0	100
random	1	1	55	88127	4	2	2	1	0	1053	1	4	0	16	55	0	0	100
random	1	1	56	89695	1	1	1	1	0	770	1	4	0	8	56	0	0	100
random	1	1	57	90977	5	4	4	1	0	780	1	4	0	32	57	0	0	100
random	1	1	58	92352	2	1	1	1	0	810	1	4	0	8	58	0	0	100
random	1	1	59	93505	6	2	2	1	0	1001	1	4	0	16	59	0	0	100
random	1	1	60	95445	4	3	3	1	0	959	1	4	0	24	60	0	0	100
random	1	1	61	97664	1	2	2	1	0	977	1	4	0	16	61	0	0	100
random	1	1	62	99580	6	4	4	1	0	640	1	4	0	32	62	0	0	100
random	1	1	63	100807	4	1	1	1	0	748	1	4	0	8	63	0	0	100
random	1	1	64	102357	2	2	2	1	0	818	1	4	0	16	64	0	0	100
random	1	1	65	103953	4	3	3	1	0	838	1	4	0	24	65	0	0	100
random	1	1	66	105528	3	1	1	1	0	836	1	4	0	8	66	0	0	100
random	1	1	67	107396	1	3	3	1	0	1309	1	4	0	24	67	0	0	100
random	1	1	68	109014	5	4	4	1	0	736	1	4	0	32	68	0	0	100
random	1	1	69	110671	2	2	2	1	0	818	1	4	0	16	69	0	0	100
random	1	1	70	112300	3	1	1	1	0	901	1	4	0	8	70	0	0	100
random	1	1	71	113620	5	4	4	1	0	725	1	4	0	32	71	0	0	100
random	1	1	72	114657	6	3	3	1	0	945	1	4	0	24	72	0	0	100
random	1	1	73	116209	2	1	1	2	0	1663	2	4	0	8	73	0	0	100
random	1	1	74	118218	5	3	3	2	0	2186	2	4	0	24	74	0	0	100
random	1	1	75	121284	1	4	4	1	0	737	1	4	0	32	75	0	0	100
random	1	1	76	122802	6	2	2	1	0	800	1	4	0	16	76	0	0	100
random	1	1	77	123997	2	1	1	1	0	709	1	4	0	8	77	0	0	100
random	1	1	78	125247	4	4	4	1	0	800	1	4	0	32	78	0	0	100
random	1	1	79	126851	3	2	2	1	0	988	1	4	0	16	79	0	0	100
random	1	1	80	128676	4	3	3	1	0	791	1	4	0	24	80	0	0	100
random	1	1	81	129836	1	4	4	1	0	774	1	4	0	32	81	0	0	100
random	1	1	82	130911	5	1	1	1	0	840	1	4	0	8	82	0	0	100
random	1	1	83	132574	3	2	2	1	0	994	1	4	0	16	83	0	0	100
random	1	1	84	134265	6	3	3	1	0	979	1	4	0	24	84	0	0	100
random	1	1	85	136442	3	2	2	1	0	1534	1	4	0	16	85	0	0	100
random	1	1	86	138643	1	3	3	1	0	985	1	4	0	24	86	0	0	100
random	1	1	87	140358	4	4	4	1	0	785	1	4	0	32	87	0	0	100
random	1	1	88	142046	2	1	1	1	0	825	1	4	0	8	88	0	0	100
random	1	1	89	143327	6	4	4	1	0	731	1	4	0	32	89	0	0	100
random	1	1	90	144552	3	3	3	1	0	1215	1	4	0	24	90	0	0	100
random	1	1	91	146426	5	4	4	1	0	992	1	4	0	32	91	0	0	100
random	1	1	92	148300	1	2	2	1	0	1048	1	4	0	16	92	0	0	100
random	1	1	93	149843	5	1	1	1	0	759	1	4	0	8	93	0	0	100
random	1	1	94	151289	4	3	3	1	0	986	1	4	0	24	94	0	0	100
random	1	1	95	152798	6	1	1	1	0	1161	1	4	0	8	95	0	0	100
random	1	1	96	154973	2	2	2	1	0	941	1	4	0	16	96	0	0	100
random	1	1	97	156658	4	3	3	1	0	854	1	4	0	24	97	0	0	100
random	1	1	98	158395	3	2	0	0	2	0	3	4	0	16	97	0	1	99
random	1	1	99	161683	6	3	3	1	0	1154	1	4	0	24	98	0	1	99
random	1	1	100	163606	1	4	4	1	0	663	1	4	0	32	99	0	1	99
random	1	1	101	164984	4	1	1	1	0	773	1	4	0	8	100	0	1	99
random	1	1	102	166792	5	2	2	1	0	1225	1	4	0	16	101	0	1	99
random	1	1	103	168427	2	4	4	1	0	740	1	4	0	32	102	0	1	99
random	1	1	104	170019	3	1	1	1	0	728	1	4	0	8	103	0	1	99
random	1	1	105	171116	1	3	3	1	0	1090	1	4	0	24	104	0	1	99
random	1	1	106	173048	2	2	2	1	0	848	1	4	0	16	105	0	1	99
random	1	1	107	174262	5	4	4	1	0	805	1	4	0	32	106	0	1	99
random	1	1	108	175884	6	1	1	1	0	752	1	4	0	8	107	0	1	99
random	1	1	109	177760	5	4	4	1	0	1160	1	4	0	32	108	0	1	99
random	1	1	110	179949	6	3	3	1	0	875	1	4	0	24	109	0	1	99
random	1	1	111	181814	2	2	2	1	0	741	1	4	0	16	110	0	1	99
random	1	1	112	182941	3	1	1	1	0	749	1	4	0	8	111	0	1	99
random	1	1	113	184661	1	2	2	1	0	1076	1	4	0	16	112	0	1	99
random	1	1	114	186317	2	3	3	1	0	766	1	4	0	24	113	0	1	99
random	1	1	115	187912	3	1	1	1	0	858	1	4	0	8	114	0	1	99
random	1	1	116	189757	4	4	4	1	0	644	1	4	0	32	115	0	1	99
random	1	1	117	191345	6	1	1	1	0	969	1	4	0	8	116	0	1	99
random	1	1	118	193275	5	3	3	1	0	903	1	4	0	24	117	0	1	99
random	1	1	119	195171	1	4	4	1	0	959	1	4	0	32	118	0	1	99
random	1	1	120	196878	4	2	2	1	0	1158	1	4	0	16	119	0	1	99
fixed	2	1	1	199160	4	1	1	1	0	1230	1	4	0	40	1	0	0	100
fixed	2	1	2	201392	1	2	2	1	0	1607	1	4	0	48	2	0	0	100
fixed	2	1	3	203894	6	4	4	1	0	757	1	4	0	64	3	0	0	100
fixed	2	1	4	205591	2	1	1	1	0	694	1	4	0	40	4	0	0	100
fixed	2	1	5	207218	5	3	3	1	0	1752	1	4	0	56	5	0	0	100
fixed	2	1	6	209255	6	4	4	1	0	842	1	4	0	64	6	0	0	100
fixed	2	1	7	210772	3	1	1	1	0	866	1	4	0	40	7	0	0	100
fixed	2	1	8	212181	2	3	3	1	0	966	1	4	0	56	8	0	0	100
fixed	2	1	9	213971	3	2	2	1	0	707	1	4	0	48	9	0	0	100
fixed	2	1	10	215015	1	4	4	1	0	743	1	4	0	64	10	0	0	100
fixed	2	1	11	216548	5	2	2	1	0	998	1	4	0	48	11	0	0	100
fixed	2	1	12	218249	4	3	3	1	0	933	1	4	0	56	12	0	0	100
fixed	2	2	1	220014	4	1	1	1	0	930	1	4	0	40	13	0	0	100
fixed	2	2	2	221761	1	2	2	1	0	905	1	4	0	48	14	0	0	100
fixed	2	2	3	222994	6	4	4	1	0	932	1	4	0	64	15	0	0	100
fixed	2	2	4	224946	2	1	1	1	0	2002	1	4	0	40	16	0	0	100
fixed	2	2	5	227872	5	3	3	1	0	1022	1	4	0	56	17	0	0	100
fixed	2	2	6	229593	6	4	4	1	0	773	1	4	0	64	18	0	0	100
fixed	2	2	7	231181	3	1	1	1	0	794	1	4	0	40	19	0	0	100
fixed	2	2	8	232668	2	3	3	1	0	1019	1	4	0	56	20	0	0	100
fixed	2	2	9	234446	3	2	2	1	0	975	1	4	0	48	21	0	0	100
fixed	2	2	10	235833	1	4	4	1	0	876	1	4	0	64	22	0	0	100
fixed	2	2	11	237608	5	2	2	1	0	1193	1	4	0	48	23	0	0	100
fixed	2	2	12	239427	4	3	3	1	0	868	1	4	0	56	24	0	0	100
fixed	2	3	1	241316	4	1	1	1	0	860	1	4	0	40	25	0	0	100
fixed	2	3	2	242680	1	2	2	1	0	1187	1	4	0	48	26	0	0	100
fixed	2	3	3	244332	6	4	4	1	0	941	1	4	0	64	27	0	0	100
fixed	2	3	4	246215	2	1	1	1	0	1325	1	4	0	40	28	0	0	100
fixed	2	3	5	247918	5	3	3	2	0	1781	2	4	0	56	29	0	0	100
fixed	2	3	6	250221	6	4	4	1	0	723	1	4	0	64	30	0	0	100
fixed	2	3	7	251472	3	1	1	1	0	798	1	4	0	40	31	0	0	100
fixed	2	3	8	252983	2	3	3	1	0	1174	1	4	0	56	32	0	0	100
fixed	2	3	9	254762	3	2	2	1	0	1067	1	4	0	48	33	0	0	100
fixed	2	3	10	256547	1	4	4	1	0	759	1	4	0	64	34	0	0	100
fixed	2	3	11	257726	5	2	2	1	0	1373	1	4	0	48	35	0	0	100
fixed	2	3	12	259881	4	3	3	1	0	970	1	4	0	56	36	0	0	100
fixed	2	4	1	261499	4	1	1	1	0	773	1	4	0	40	37	0	0	100
fixed	2	4	2	262717	1	2	2	1	0	954	1	4	0	48	38	0	0	100
fixed	2	4	3	264578	6	4	4	1	0	763	1	4	0	64	39	0	0	100
fixed	2	4	4	265954	2	1	1	1	0	761	1	4	0	40	40	0	0	100
fixed	2	4	5	267252	5	3	3	1	0	1610	1	4	0	56	41	0	0	100
fixed	2	4	6	269381	6	4	4	1	0	1048	1	4	0	64	42	0	0	100
fixed	2	4	7	271443	3	1	1	1	0	1176	1	4	0	40	43	0	0	100
fixed	2	4	8	273050	2	3	3	1	0	1044	1	4	0	56	44	0	0	100
fixed	2	4	9	274646	3	2	2	1	0	984	1	4	0	48	45	0	0	100
fixed	2	4	10	276565	1	4	4	1	0	808	1	4	0	64	46	0	0	100
fixed	2	4	11	277761	5	2	2	1	0	1085	1	4	0	48	47	0	0	100
fixed	2	4	12	279512	4	3	3	1	0	1258	1	4	0	56	48	0	0	100
fixed	2	5	1	281515	4	1	1	1	0	829	1	4	0	40	49	0	0	100
fixed	2	5	2	282838	1	2	0	0	2	0	3	4	0	48	49	0	1	98
fixed	2	5	3	286113	6	4	4	1	0	731	1	4	0	64	50	0	1	98
fixed	2	5	4	287397	2	1	1	1	0	812	1	4	0	40	51	0	1	98
fixed	2	5	5	288952	5	3	3	1	0	1059	1	4	0	56	52	0	1	98
fixed	2	5	6	290706	6	4	4	1	0	752	1	4	0	64	53	0	1	98
fixed	2	5	7	291811	3	1	1	1	0	850	1	4	0	40	54	0	1	98
fixed	2	5	8	293616	2	3	3	1	0	949	1	4	0	56	55	0	1	98
fixed	2	5	9	295500	3	2	2	1	0	973	1	4	0	48	56	0	1	98
fixed	2	5	10	296803	1	4	4	1	0	790	1	4	0	64	57	0	1	98
fixed	2	5	11	298159	5	2	2	1	0	1101	1	4	0	48	58	0	1	98
fixed	2	5	12	300053	4	3	3	1	0	933	1	4	0	56	59	0	1	98
fixed	2	6	1	302015	4	1	1	1	0	769	1	4	0	40	60	0	1	98
fixed	2	6	2	303316	1	2	2	1	0	1218	1	4	0	48	61	0	1	98
fixed	2	6	3	305473	6	4	4	1	0	2199	1	4	0	64	62	0	1	98
fixed	2	6	4	308489	2	1	1	1	0	703	1	4	0	40	63	0	1	98
fixed	2	6	5	309943	5	3	3	1	0	1234	1	4	0	56	64	0	1	98
fixed	2	6	6	311692	6	4	4	1	0	799	1	4	0	64	65	0	1	98
fixed	2	6	7	313370	3	1	1	1	0	793	1	4	0	40	66	0	1	99
fixed	2	6	8	314539	2	3	3	1	0	1311	1	4	0	56	67	0	1	99
fixed	2	6	9	316792	3	2	2	1	0	752	1	4	0	48	68	0	1	99
fixed	2	6	10	318015	1	4	4	1	0	812	1	4	0	64	69	0	1	99
fixed	2	6	11	319793	5	2	2	1	0	1056	1	4	0	48	70	0	1	99
fixed	2	6	12	321321	4	3	3	1	0	776	1	4	0	56	71	0	1	99
fixed	2	7	1	323017	4	1	1	1	0	1528	1	4	0	40	72	0	1	99
fixed	2	7	2	325293	1	2	2	1	0	1023	1	4	0	48	73	0	1	99
fixed	2	7	3	327185	6	4	4	1	0	823	1	4	0	64	74	0	1	99
fixed	2	7	4	328562	2	1	1	1	0	981	1	4	0	40	75	0	1	99
fixed	2	7	5	329973	5	3	3	1	0	1137	1	4	0	56	76	0	1	99
fixed	2	7	6	331555	6	4	4	1	0	2182	1	4	0	64	77	0	1	99
fixed	2	7	7	334320	3	1	1	1	0	753	1	4	0	40	78	0	1	99
fixed	2	7	8	335529	2	3	3	1	0	1414	1	4	0	56	79	0	1	99
fixed	2	7	9	337291	3	2	2	1	0	859	1	4	0	48	80	0	1	99
fixed	2	7	10	338511	1	4	4	1	0	904	1	4	0	64	81	0	1	99
fixed	2	7	11	340197	5	2	2	1	0	1152	1	4	0	48	82	0	1	99
fixed	2	7	12	342264	4	3	3	1	0	1328	1	4	0	56	83	0	1	99
fixed	2	8	1	344302	4	1	1	1	0	842	1	4	0	40	84	0	1	99
fixed	2	8	2	345463	1	2	0	0	2	0	3	4	0	48	84	0	2	98
fixed	2	8	3	348418	6	4	4	1	0	740	1	4	0	64	85	0	2	98
fixed	2	8	4	350057	2	1	1	1	0	815	1	4	0	40	86	0	2	98
fixed	2	8	5	351153	5	3	3	1	0	1040	1	4	0	56	87	0	2	98
fixed	2	8	6	352515	6	4	4	1	0	959	1	4	0	64	88	0	2	98
fixed	2	8	7	354167	3	1	1	1	0	1081	1	4	0	40	89	0	2	98
fixed	2	8	8	355646	2	3	3	1	0	938	1	4	0	56	90	0	2	98
fixed	2	8	9	357209	3	2	2	1	0	992	1	4	0	48	91	0	2	98
fixed	2	8	10	358619	1	4	4	1	0	1020	1	4	0	64	92	0	2	98
fixed	2	8	11	360511	5	2	2	1	0	2476	1	4	0	48	93	0	2	98
fixed	2	8	12	363298	4	3	3	1	0	926	1	4	0	56	94	0	2	98
fixed	2	9	1	365204	4	1	1	1	0	861	1	4	0	40	95	0	2	98
fixed	2	9	2	366541	1	2	2	1	0	1100	1	4	0	48	96	0	2	98
fixed	2	9	3	368628	6	4	4	1	0	804	1	4	0	64	97	0	2	98
fixed	2	9	4	369823	2	1	1	1	0	1162	1	4	0	40	98	0	2	98
fixed	2	9	5	371660	5	3	3	1	0	1052	1	4	0	56	99	0	2	98
fixed	2	9	6	373510	6	4	4	1	0	1885	1	4	0	64	100	0	2	98
fixed	2	9	7	376128	3	1	1	1	0	718	1	4	0	40	101	0	2	98
fixed	2	9	8	377766	2	3	3	1	0	1169	1	4	0	56	102	0	2	98
fixed	2	9	9	379372	3	2	2	1	0	901	1	4	0	48	103	0	2	98
fixed	2	9	10	380817	1	4	4	1	0	824	1	4	0	64	104	0	2	98
fixed	2	9	11	382135	5	2	2	1	0	1520	1	4	0	48	105	0	2	98
fixed	2	9	12	384123	4	3	3	1	0	900	1	4	0	56	106	0	2	98
fixed	2	10	1	386172	4	1	1	1	0	2181	1	4	0	40	107	0	2	98
fixed	2	10	2	389055	1	2	2	1	0	883	1	4	0	48	108	0	2	98
fixed	2	10	3	390810	6	4	4	1	0	785	1	4	0	64	109	0	2	98
fixed	2	10	4	392176	2	1	1	1	0	879	1	4	0	40	110	0	2	98
fixed	2	10	5	393599	5	3	3	1	0	803	1	4	0	56	111	0	2	98
fixed	2	10	6	395199	6	4	4	1	0	1319	1	4	0	64	112	0	2	98
fixed	2	10	7	396994	3	1	1	1	0	771	1	4	0	40	113	0	2	98
fixed	2	10	8	398228	2	3	3	1	0	2415	1	4	0	56	114	0	2	98
fixed	2	10	9	401289	3	2	2	1	0	845	1	4	0	48	115	0	2	98
fixed	2	10	10	403028	1	4	4	1	0	819	1	4	0	64	116	0	2	98
fixed	2	10	11	404293	5	2	2	1	0	1190	1	4	0	48	117	0	2	98
fixed	2	10	12	405901	4	3	3	1	0	1057	1	4	0	56	118	0	2	98
fixed	3	1	1	407889	4	1	1	1	0	1973	1	4	0	72	1	0	0	100
fixed	3	1	2	410381	1	2	2	1	0	915	1	4	0	80	2	0	0	100
fixed	3	1	3	412093	6	4	4	1	0	835	1	4	0	96	3	0	0	100
fixed	3	1	4	413643	2	1	1	1	0	937	1	4	0	72	4	0	0	100
fixed	3	1	5	415365	5	3	3	2	0	1600	2	4	0	88	5	0	0	100
fixed	3	1	6	417878	6	4	4	1	0	1078	1	4	0	96	6	0	0	100
fixed	3	1	7	419573	3	1	1	1	0	790	1	4	0	72	7	0	0	100
fixed	3	1	8	421335	2	3	3	1	0	988	1	4	0	88	8	0	0	100
fixed	3	1	9	422675	3	2	2	1	0	795	1	4	0	80	9	0	0	100
fixed	3	1	10	424128	1	4	4	1	0	1862	1	4	0	96	10	0	0	100
fixed	3	1	11	426485	5	2	2	1	0	1017	1	4	0	80	11	0	0	100
fixed	3	1	12	427893	4	3	3	1	0	726	1	4	0	88	12	0	0	100
fixed	3	2	1	429328	4	1	1	1	0	841	1	4	0	72	13	0	0	100
fixed	3	2	2	430959	1	2	2	1	0	1580	1	4	0	80	14	0	0	100
fixed	3	2	3	432829	6	4	4	1	0	925	1	4	0	96	15	0	0	100
fixed	3	2	4	434403	2	1	1	1	0	1314	1	4	0	72	16	0	0	100
fixed	3	2	5	436580	5	3	3	2	0	1550	2	4	0	88	17	0	0	100
fixed	3	2	6	439106	6	4	4	1	0	795	1	4	0	96	18	0	0	100
fixed	3	2	7	440219	3	1	1	1	0	915	1	4	0	72	19	0	0	100
fixed	3	2	8	441667	2	3	3	1	0	1007	1	4	0	88	20	0	0	100
fixed	3	2	9	443450	3	2	2	1	0	1019	1	4	0	80	21	0	0	100
fixed	3	2	10	444894	1	4	4	1	0	974	1	4	0	96	22	0	0	100
fixed	3	2	11	446480	5	2	0	0	2	0	3	4	0	80	22	0	1	96
fixed	3	2	12	450007	4	3	3	1	0	877	1	4	0	88	23	0	1	96
fixed	3	3	1	451732	4	1	1	1	0	964	1	4	0	72	24	0	1	96
fixed	3	3	2	453309	1	2	2	1	0	1017	1	4	0	80	25	0	1	96
fixed	3	3	3	454715	6	4	4	1	0	798	1	4	0	96	26	0	1	96
fixed	3	3	4	455960	2	1	1	1	0	753	1	4	0	72	27	0	1	96
fixed	3	3	5	457022	5	3	3	1	0	1140	1	4	0	88	28	0	1	97
fixed	3	3	6	458866	6	4	4	3	0	2014	2	4	0	96	29	0	1	97
fixed	3	3	7	461574	3	1	1	1	0	1051	1	4	0	72	30	0	1	97
fixed	3	3	8	463659	2	3	3	1	0	1107	1	4	0	88	31	0	1	97
fixed	3	3	9	465157	3	2	2	1	0	852	1	4	0	80	32	0	1	97
fixed	3	3	10	466846	1	4	4	1	0	844	1	4	0	96	33	0	1	97
fixed	3	3	11	468683	5	2	2	1	0	1198	1	4	0	80	34	0	1	97
fixed	3	3	12	470447	4	3	3	1	0	835	1	4	0	88	35	0	1	97
fixed	3	4	1	472383	4	1	1	1	0	937	1	4	0	72	36	0	1	97
fixed	3	4	2	473694	1	2	2	1	0	1610	1	4	0	80	37	0	1	97
fixed	3	4	3	476210	6	4	4	1	0	903	1	4	0	96	38	0	1	97
fixed	3	4	4	477490	2	1	1	1	0	1785	1	4	0	72	39	0	1	98
fixed	3	4	5	479668	5	3	3	1	0	1277	1	4	0	88	40	0	1	98
fixed	3	4	6	481570	6	4	4	1	0	1564	1	4	0	96	41	0	1	98
fixed	3	4	7	484131	3	1	1	1	0	880	1	4	0	72	42	0	1	98
fixed	3	4	8	485985	2	3	3	1	0	1465	1	4	0	88	43	0	1	98
fixed	3	4	9	488099	3	2	2	1	0	872	1	4	0	80	44	0	1	98
fixed	3	4	10	489568	1	4	4	1	0	1418	1	4	0	96	45	0	1	98
fixed	3	4	11	491921	5	2	2	1	0	1246	1	4	0	80	46	0	1	98
fixed	3	4	12	493819	4	3	3	1	0	1413	1	4	0	88	47	0	1	98
fixed	3	5	1	496309	4	1	1	1	0	1156	1	4	0	72	48	0	1	98
fixed	3	5	2	498370	1	2	2	1	0	1029	1	4	0	80	49	0	1	98
fixed	3	5	3	500000	6	4	4	1	0	1599	1	4	0	96	50	0	1	98
fixed	3	5	4	502190	2	1	1	1	0	851	1	4	0	72	51	0	1	98
fixed	3	5	5	503927	5	3	3	1	0	1017	1	4	0	88	52	0	1	98
fixed	3	5	6	505493	6	4	0	0	2	0	3	4	0	96	52	0	2	96
fixed	3	5	7	508576	3	1	1	1	0	780	1	4	0	72	53	0	2	96
fixed	3	5	8	509957	2	3	3	1	0	1090	1	4	0	88	54	0	2	96
fixed	3	5	9	511858	3	2	2	1	0	762	1	4	0	80	55	0	2	96
fixed	3	5	10	513012	1	4	4	1	0	985	1	4	0	96	56	0	2	97
fixed	3	5	11	514845	5	2	2	1	0	755	1	4	0	80	57	0	2	97
fixed	3	5	12	516454	4	3	3	1	0	1007	1	4	0	88	58	0	2	97
fixed	3	6	1	518563	4	1	1	1	0	1021	1	4	0	72	59	0	2	97
fixed	3	6	2	519983	1	2	2	1	0	1857	1	4	0	80	60	0	2	97
fixed	3	6	3	522876	6	4	4	1	0	1759	1	4	0	96	61	0	2	97
fixed	3	6	4	525527	2	1	1	1	0	783	1	4	0	72	62	0	2	97
fixed	3	6	5	527289	5	3	3	1	0	924	1	4	0	88	63	0	2	97
fixed	3	6	6	529067	6	4	4	1	0	937	1	4	0	96	64	0	2	97
fixed	3	6	7	530473	3	1	1	1	0	725	1	4	0	72	65	0	2	97
fixed	3	6	8	532154	2	3	3	1	0	1590	1	4	0	88	66	0	2	97
fixed	3	6	9	534313	3	2	2	1	0	867	1	4	0	80	67	0	2	97
fixed	3	6	10	535984	1	4	4	1	0	1564	1	4	0	96	68	0	2	97
fixed	3	6	11	538358	5	2	2	1	0	815	1	4	0	80	69	0	2	97
fixed	3	6	12	540187	4	3	3	1	0	978	1	4	0	88	70	0	2	97
fixed	3	7	1	542455	4	1	1	1	0	1777	1	4	0	72	71	0	2	97
fixed	3	7	2	544954	1	2	2	1	0	880	1	4	0	80	72	0	2	97
fixed	3	7	3	546382	6	4	4	1	0	963	1	4	0	96	73	0	2	97
fixed	3	7	4	548064	2	1	1	1	0	1676	1	4	0	72	74	0	2	97
fixed	3	7	5	550750	5	3	3	1	0	1306	1	4	0	88	75	0	2	97
fixed	3	7	6	552588	6	4	4	1	0	1828	1	4	0	96	76	0	2	97
fixed	3	7	7	554944	3	1	1	1	0	689	1	4	0	72	77	0	2	97
fixed	3	7	8	556557	2	3	3	2	0	1084	2	4	0	88	78	0	2	98
fixed	3	7	9	558502	3	2	2	1	0	930	1	4	0	80	79	0	2	98
fixed	3	7	10	559822	1	4	4	1	0	938	1	4	0	96	80	0	2	98
fixed	3	7	11	561590	5	2	2	1	0	1431	1	4	0	80	81	0	2	98
fixed	3	7	12	563930	4	3	3	1	0	1260	1	4	0	88	82	0	2	98
fixed	3	8	1	566213	4	1	1	1	0	763	1	4	0	72	83	0	2	98
fixed	3	8	2	567800	1	2	2	1	0	2336	1	4	0	80	84	0	2	98
fixed	3	8	3	571069	6	4	4	1	0	830	1	4	0	96	85	0	2	98
fixed	3	8	4	572865	2	1	1	1	0	825	1	4	0	72	86	0	2	98
fixed	3	8	5	574255	5	3	3	1	0	1167	1	4	0	88	87	0	2	98
fixed	3	8	6	576043	6	4	4	1	0	1723	1	4	0	96	88	0	2	98
fixed	3	8	7	578572	3	1	1	1	0	920	1	4	0	72	89	0	2	98
fixed	3	8	8	580289	2	3	3	1	0	1295	1	4	0	88	90	0	2	98
fixed	3	8	9	581998	3	2	2	1	0	1351	1	4	0	80	91	0	2	98
fixed	3	8	10	583882	1	4	4	1	0	1095	1	4	0	96	92	0	2	98
fixed	3	8	11	585782	5	2	0	1	2	0	3	4	0	80	92	0	3	97
fixed	3	8	12	588880	4	3	3	1	0	1179	1	4	0	88	93	0	3	97
fixed	3	9	1	590640	4	1	1	1	0	872	1	4	0	72	94	0	3	97
fixed	3	9	2	592539	1	2	2	1	0	1208	1	4	0	80	95	0	3	97
fixed	3	9	3	594367	6	4	4	1	0	1411	1	4	0	96	96	0	3	97
fixed	3	9	4	596764	2	1	1	1	0	797	1	4	0	72	97	0	3	97
fixed	3	9	5	598219	5	3	3	1	0	1576	1	4	0	88	98	0	3	97
fixed	3	9	6	600291	6	4	4	1	0	1840	1	4	0	96	99	0	3	97
fixed	3	9	7	602911	3	1	1	1	0	865	1	4	0	72	100	0	3	97
fixed	3	9	8	604167	2	3	3	1	0	1084	1	4	0	88	101	0	3	97
fixed	3	9	9	605722	3	2	2	1	0	1218	1	4	0	80	102	0	3	97
fixed	3	9	10	607938	1	4	4	2	0	2188	2	4	0	96	103	0	3	97
fixed	3	9	11	610456	5	2	2	1	0	1153	1	4	0	80	104	0	3	97
fixed	3	9	12	612326	4	3	3	1	0	898	1	4	0	88	105	0	3	97
fixed	3	10	1	613914	4	1	1	1	0	999	1	4	0	72	106	0	3	97
fixed	3	10	2	615215	1	2	2	1	0	1847	1	4	0	80	107	0	3	97
fixed	3	10	3	617490	6	4	4	1	0	1631	1	4	0	96	108	0	3	97
fixed	3	10	4	619750	2	1	1	1	0	912	1	4	0	72	109	0	3	97
fixed	3	10	5	621177	5	3	3	1	0	1124	1	4	0	88	110	0	3	97
fixed	3	10	6	622925	6	4	4	1	0	1041	1	4	0	96	111	0	3	97
fixed	3	10	7	624421	3	1	1	1	0	922	1	4	0	72	112	0	3	97
fixed	3	10	8	626133	2	3	0	0	2	0	3	4	0	88	112	0	4	97
fixed	3	10	9	629519	3	2	0	0	2	0	3	4	0	80	112	0	5	96
fixed	3	10	10	632523	1	4	0	0	2	0	3	4	0	96	112	0	6	95
fixed	3	10	11	636011	5	2	2	1	0	983	1	4	0	80	113	0	6	95
fixed	3	10	12	637716	4	3	3	1	0	935	1	4	0	88	114	0	6	95
fixed	4	1	1	759702	4	1	1	1	0	904	1	4	0	104	1	0	0	100
fixed	4	1	2	761657	1	2	2	1	0	885	1	4	0	112	2	0	0	100
fixed	4	1	3	762998	6	4	4	1	0	692	1	4	0	128	3	0	0	100
fixed	4	1	4	764263	2	1	1	1	0	783	1	4	0	104	4	0	0	100
fixed	4	1	5	765553	5	3	3	1	0	1048	1	4	0	120	5	0	0	100
fixed	4	1	6	767072	6	4	4	1	0	728	1	4	0	128	6	0	0	100
fixed	4	1	7	768827	3	1	1	1	0	749	1	4	0	104	7	0	0	100
fixed	4	1	8	770370	2	3	3	1	0	852	1	4	0	120	8	0	0	100
fixed	4	1	9	772105	3	2	2	1	0	843	1	4	0	112	9	0	0	100
fixed	4	1	10	773560	1	4	4	1	0	653	1	4	0	128	10	0	0	100
fixed	4	1	11	774886	5	2	2	1	0	853	1	4	0	112	11	0	0	100
fixed	4	1	12	776456	4	3	3	1	0	635	1	4	0	120	12	0	0	100
fixed	4	2	1	778016	4	1	1	1	0	768	1	4	0	104	13	0	0	100
fixed	4	2	2	779811	1	2	2	2	0	1084	2	4	0	112	14	0	0	100
fixed	4	2	3	781489	6	4	4	1	0	749	1	4	0	128	15	0	0	100
fixed	4	2	4	782610	2	1	1	1	0	733	1	4	0	104	16	0	0	100
fixed	4	2	5	784140	5	3	3	1	0	869	1	4	0	120	17	0	0	100
fixed	4	2	6	785824	6	4	4	1	0	734	1	4	0	128	18	0	0	100
fixed	4	2	7	787428	3	1	1	1	0	970	1	4	0	104	19	0	0	100
fixed	4	2	8	788709	2	3	3	1	0	1131	1	4	0	120	20	0	0	100
fixed	4	2	9	790254	3	2	2	1	0	826	1	4	0	112	21	0	0	100
fixed	4	2	10	791753	1	4	4	1	0	1042	1	4	0	128	22	0	0	100
fixed	4	2	11	793721	5	2	2	1	0	1079	1	4	0	112	23	0	0	100
fixed	4	2	12	795560	4	3	3	1	0	865	1	4	0	120	24	0	0	100
fixed	4	3	1	797380	4	1	1	1	0	940	1	4	0	104	25	0	0	100
fixed	4	3	2	798992	1	2	2	1	0	1304	1	4	0	112	26	0	0	100
fixed	4	3	3	801284	6	4	4	1	0	1631	1	4	0	128	27	0	0	100
fixed	4	3	4	803518	2	1	1	1	0	672	1	4	0	104	28	0	0	100
fixed	4	3	5	804977	5	3	3	1	0	803	1	4	0	120	29	0	0	100
fixed	4	3	6	806671	6	4	4	1	0	811	1	4	0	128	30	0	0	100
fixed	4	3	7	807909	3	1	1	1	0	718	1	4	0	104	31	0	0	100
fixed	4	3	8	809032	2	3	3	1	0	1159	1	4	0	120	32	0	0	100
fixed	4	3	9	810533	3	2	2	1	0	823	1	4	0	112	33	0	0	100
fixed	4	3	10	811821	1	4	4	1	0	1241	1	4	0	128	34	0	0	100
fixed	4	3	11	813372	5	2	2	1	0	1015	1	4	0	112	35	0	0	100
fixed	4	3	12	815143	4	3	3	1	0	780	1	4	0	120	36	0	0	100
fixed	4	4	1	817012	4	1	1	1	0	797	1	4	0	104	37	0	0	100
fixed	4	4	2	818632	1	2	2	1	0	856	1	4	0	112	38	0	0	100
fixed	4	4	3	819796	6	4	4	1	0	1135	1	4	0	128	39	0	0	100
fixed	4	4	4	821866	2	1	1	1	0	711	1	4	0	104	40	0	0	100
fixed	4	4	5	823495	5	3	3	1	0	1114	1	4	0	120	41	0	0	100
fixed	4	4	6	825337	6	4	4	1	0	812	1	4	0	128	42	0	0	100
fixed	4	4	7	827090	3	1	1	1	0	1098	1	4	0	104	43	0	0	100
fixed	4	4	8	829177	2	3	3	1	0	969	1	4	0	120	44	0	0	100
fixed	4	4	9	830637	3	2	2	1	0	772	1	4	0	112	45	0	0	100
fixed	4	4	10	832433	1	4	4	1	0	583	1	4	0	128	46	0	0	100
fixed	4	4	11	833330	5	2	2	1	0	1042	1	4	0	112	47	0	0	100
fixed	4	4	12	835132	4	3	3	1	0	893	1	4	0	120	48	0	0	100
fixed	4	5	1	837212	4	1	1	1	0	909	1	4	0	104	49	0	0	100
fixed	4	5	2	838724	1	2	2	1	0	989	1	4	0	112	50	0	0	100
fixed	4	5	3	840348	6	4	4	1	0	1249	1	4	0	128	51	0	0	100
fixed	4	5	4	841918	2	1	1	1	0	1126	1	4	0	104	52	0	0	100
fixed	4	5	5	843955	5	3	3	1	0	904	1	4	0	120	53	0	0	100
fixed	4	5	6	845551	6	4	4	1	0	772	1	4	0	128	54	0	0	100
fixed	4	5	7	847167	3	1	1	1	0	815	1	4	0	104	55	0	0	100
fixed	4	5	8	848422	2	3	3	1	0	1098	1	4	0	120	56	0	0	100
fixed	4	5	9	850402	3	2	2	1	0	1471	1	4	0	112	57	0	0	100
fixed	4	5	10	852576	1	4	4	1	0	715	1	4	0	128	58	0	0	100
fixed	4	5	11	853629	5	2	2	1	0	1126	1	4	0	112	59	0	0	100
fixed	4	5	12	855687	4	3	3	1	0	911	1	4	0	120	60	0	0	100
fixed	4	6	1	857394	4	1	1	1	0	1766	1	4	0	104	61	0	0	100
fixed	4	6	2	859724	1	2	2	1	0	980	1	4	0	112	62	0	0	100
fixed	4	6	3	861258	6	4	4	1	0	923	1	4	0	128	63	0	0	100
fixed	4	6	4	862529	2	1	1	1	0	909	1	4	0	104	64	0	0	100
fixed	4	6	5	864238	5	3	3	1	0	1157	1	4	0	120	65	0	0	100
fixed	4	6	6	865787	6	4	4	1	0	1035	1	4	0	128	66	0	0	100
fixed	4	6	7	867218	3	1	1	1	0	1310	1	4	0	104	67	0	0	100
fixed	4	6	8	868833	2	3	3	1	0	2082	1	4	0	120	68	0	0	100
fixed	4	6	9	871728	3	2	2	1	0	759	1	4	0	112	69	0	0	100
fixed	4	6	10	873215	1	4	4	1	0	1104	1	4	0	128	70	0	0	100
fixed	4	6	11	874747	5	2	2	1	0	1040	1	4	0	112	71	0	0	100
fixed	4	6	12	876549	4	3	3	1	0	955	1	4	0	120	72	0	0	100
fixed	4	7	1	878129	4	1	1	1	0	1184	1	4	0	104	73	0	0	100
fixed	4	7	2	880067	1	2	2	1	0	1534	1	4	0	112	74	0	0	100
fixed	4	7	3	882633	6	4	4	1	0	1522	1	4	0	128	75	0	0	100
fixed	4	7	4	884921	2	1	1	1	0	945	1	4	0	104	76	0	0	100
fixed	4	7	5	886360	5	3	3	1	0	2372	1	4	0	120	77	0	0	100
fixed	4	7	6	889676	6	4	4	1	0	815	1	4	0	128	78	0	0	100
fixed	4	7	7	891287	3	1	1	1	0	771	1	4	0	104	79	0	0	100
fixed	4	7	8	892671	2	3	3	1	0	1008	1	4	0	120	80	0	0	100
fixed	4	7	9	894689	3	2	2	1	0	907	1	4	0	112	81	0	0	100
fixed	4	7	10	895928	1	4	4	1	0	838	1	4	0	128	82	0	0	100
fixed	4	7	11	897364	5	2	2	2	0	2065	2	4	0	112	83	0	0	100
fixed	4	7	12	899883	4	3	3	1	0	999	1	4	0	120	84	0	0	100
fixed	4	8	1	902171	4	1	1	1	0	974	1	4	0	104	85	0	0	100
fixed	4	8	2	903616	1	2	2	1	0	1281	1	4	0	112	86	0	0	100
fixed	4	8	3	905656	6	4	4	1	0	1138	1	4	0	128	87	0	0	100
fixed	4	8	4	907119	2	1	1	1	0	836	1	4	0	104	88	0	0	100
fixed	4	8	5	908851	5	3	3	1	0	1419	1	4	0	120	89	0	0	100
fixed	4	8	6	910777	6	4	4	1	0	801	1	4	0	128	90	0	0	100
fixed	4	8	7	912125	3	1	1	1	0	721	1	4	0	104	91	0	0	100
fixed	4	8	8	913474	2	3	3	1	0	983	1	4	0	120	92	0	0	100
fixed	4	8	9	914845	3	2	2	1	0	1373	1	4	0	112	93	0	0	100
fixed	4	8	10	916705	1	4	4	1	0	1350	1	4	0	128	94	0	0	100
fixed	4	8	11	918766	5	2	2	2	0	1847	2	4	0	112	95	0	0	100
fixed	4	8	12	921363	4	3	3	1	0	801	1	4	0	120	96	0	0	100
fixed	4	9	1	922989	4	1	1	1	0	772	1	4	0	104	97	0	0	100
fixed	4	9	2	924623	1	2	2	1	0	1046	1	4	0	112	98	0	0	100
fixed	4	9	3	926709	6	4	4	1	0	775	1	4	0	128	99	0	0	100
fixed	4	9	4	927950	2	1	1	1	0	898	1	4	0	104	100	0	0	100
fixed	4	9	5	929493	5	3	3	1	0	1409	1	4	0	120	101	0	0	100
fixed	4	9	6	931762	6	4	4	1	0	1256	1	4	0	128	102	0	0	100
fixed	4	9	7	933675	3	1	1	1	0	1080	1	4	0	104	103	0	0	100
fixed	4	9	8	935333	2	3	3	1	0	1049	1	4	0	120	104	0	0	100
fixed	4	9	9	937039	3	2	2	2	0	1865	2	4	0	112	105	0	0	100
fixed	4	9	10	939640	1	4	4	1	0	787	1	4	0	128	106	0	0	100
fixed	4	9	11	940838	5	2	2	1	0	992	1	4	0	112	107	0	0	100
fixed	4	9	12	942836	4	3	3	1	0	891	1	4	0	120	108	0	0	100
fixed	4	10	1	944491	4	1	1	1	0	933	1	4	0	104	109	0	0	100
fixed	4	10	2	946068	1	2	2	1	0	1355	1	4	0	112	110	0	0	100
fixed	4	10	3	947931	6	4	4	1	0	803	1	4	0	128	111	0	0	100
fixed	4	10	4	949311	2	1	1	2	0	1945	2	4	0	104	112	0	0	100
fixed	4	10	5	951928	5	3	3	1	0	1130	1	4	0	120	113	0	0	100
fixed	4	10	6	953607	6	4	4	1	0	1827	1	4	0	128	114	0	0	100
fixed	4	10	7	956316	3	1	1	1	0	737	1	4	0	104	115	0	0	100
fixed	4	10	8	957522	2	3	3	1	0	989	1	4	0	120	116	0	0	100
fixed	4	10	9	959238	3	2	2	1	0	845	1	4	0	112	117	0	0	100
fixed	4	10	10	960924	1	4	4	1	0	845	1	4	0	128	118	0	0	100
fixed	4	10	11	962437	5	2	2	1	0	893	1	4	0	112	119	0	0	100
fixed	4	10	12	963951	4	3	3	1	0	733	1	4	0	120	120	0	0	100
fixed	5	1	1	966025	4	1	1	1	0	989	1	4	0	136	1	0	0	100
fixed	5	1	2	967522	1	2	2	1	0	966	1	4	0	144	2	0	0	100
fixed	5	1	3	969484	6	4	4	1	0	698	1	4	0	160	3	0	0	100
fixed	5	1	4	970898	2	1	1	1	0	1327	1	4	0	136	4	0	0	100
fixed	5	1	5	973142	5	3	3	1	0	975	1	4	0	152	5	0	0	100
fixed	5	1	6	974778	6	4	4	1	0	1315	1	4	0	160	6	0	0	100
fixed	5	1	7	976396	3	1	1	1	0	886	1	4	0	136	7	0	0	100
fixed	5	1	8	978199	2	3	3	1	0	1050	1	4	0	152	8	0	0	100
fixed	5	1	9	980020	3	2	2	2	0	1469	2	4	0	144	9	0	0	100
fixed	5	1	10	982431	1	4	4	1	0	799	1	4	0	160	10	0	0	100
fixed	5	1	11	984006	5	2	2	1	0	923	1	4	0	144	11	0	0	100
fixed	5	1	12	985789	4	3	3	1	0	832	1	4	0	152	12	0	0	100
fixed	5	2	1	987814	4	1	1	1	0	826	1	4	0	136	13	0	0	100
fixed	5	2	2	989375	1	2	2	1	0	1040	1	4	0	144	14	0	0	100
fixed	5	2	3	990839	6	4	4	1	0	962	1	4	0	160	15	0	0	100
fixed	5	2	4	992522	2	1	1	1	0	1539	1	4	0	136	16	0	0	100
fixed	5	2	5	994675	5	3	3	1	0	984	1	4	0	152	17	0	0	100
fixed	5	2	6	996650	6	4	4	2	0	1732	2	4	0	160	18	0	0	100
fixed	5	2	7	998677	3	1	1	1	0	846	1	4	0	136	19	0	0	100
fixed	5	2	8	1000345	2	3	3	1	0	1327	1	4	0	152	20	0	0	100
fixed	5	2	9	1002586	3	2	2	1	0	961	1	4	0	144	21	0	0	100
fixed	5	2	10	1004016	1	4	4	1	0	1284	1	4	0	160	22	0	0	100
fixed	5	2	11	1005968	5	2	2	1	0	1074	1	4	0	144	23	0	0	100
fixed	5	2	12	1007690	4	3	3	1	0	985	1	4	0	152	24	0	0	100
fixed	5	3	1	1009367	4	1	1	1	0	921	1	4	0	136	25	0	0	100
fixed	5	3	2	1011034	1	2	2	1	0	1443	1	4	0	144	26	0	0	100
fixed	5	3	3	1013470	6	4	4	1	0	932	1	4	0	160	27	0	0	100
fixed	5	3	4	1015154	2	1	1	1	0	1068	1	4	0	136	28	0	0	100
fixed	5	3	5	1016528	5	3	3	1	0	1562	1	4	0	152	29	0	0	100
fixed	5	3	6	1018642	6	4	4	2	0	2409	2	4	0	160	30	0	0	100
fixed	5	3	7	1021720	3	1	1	1	0	734	1	4	0	136	31	0	0	100
fixed	5	3	8	1022783	2	3	3	1	0	2169	1	4	0	152	32	0	0	100
fixed	5	3	9	1025549	3	2	2	1	0	1124	1	4	0	144	33	0	0	100
fixed	5	3	10	1027068	1	4	4	1	0	964	1	4	0	160	34	0	0	100
fixed	5	3	11	1028511	5	2	2	1	0	1167	1	4	0	144	35	0	0	100
fixed	5	3	12	1030112	4	3	3	1	0	963	1	4	0	152	36	0	0	100
fixed	5	4	1	1031989	4	1	1	1	0	843	1	4	0	136	37	0	0	100
fixed	5	4	2	1033644	1	2	2	1	0	957	1	4	0	144	38	0	0	100
fixed	5	4	3	1035325	6	4	4	1	0	790	1	4	0	160	39	0	0	100
fixed	5	4	4	1036977	2	1	1	1	0	888	1	4	0	136	40	0	0	100
fixed	5	4	5	1038162	5	3	3	1	0	1286	1	4	0	152	41	0	0	100
fixed	5	4	6	1040298	6	4	4	1	0	883	1	4	0	160	42	0	0	100
fixed	5	4	7	1041998	3	1	1	1	0	971	1	4	0	136	43	0	0	100
fixed	5	4	8	1043617	2	3	3	1	0	1071	1	4	0	152	44	0	0	100
fixed	5	4	9	1045457	3	2	2	1	0	897	1	4	0	144	45	0	0	100
fixed	5	4	10	1047188	1	4	4	1	0	1472	1	4	0	160	46	0	0	100
fixed	5	4	11	1049208	5	2	2	1	0	1530	1	4	0	144	47	0	0	100
fixed	5	4	12	1051238	4	3	3	1	0	1724	1	4	0	152	48	0	0	100
fixed	5	5	1	1054211	4	1	1	1	0	838	1	4	0	136	49	0	0	100
fixed	5	5	2	1055446	1	2	2	1	0	1634	1	4	0	144	50	0	0	100
fixed	5	5	3	1057919	6	4	4	1	0	913	1	4	0	160	51	0	0	100
fixed	5	5	4	1059427	2	1	1	2	0	2097	2	4	0	136	52	0	0	100
fixed	5	5	5	1062243	5	3	3	1	0	1282	1	4	0	152	53	0	0	100
fixed	5	5	6	1064488	6	4	4	1	0	1155	1	4	0	160	54	0	0	100
fixed	5	5	7	1066534	3	1	1	1	0	796	1	4	0	136	55	0	0	100
fixed	5	5	8	1068095	2	3	3	1	0	1018	1	4	0	152	56	0	0	100
fixed	5	5	9	1069443	3	2	2	1	0	1049	1	4	0	144	57	0	0	100
fixed	5	5	10	1071043	1	4	4	1	0	829	1	4	0	160	58	0	0	100
fixed	5	5	11	1072279	5	2	2	1	0	1025	1	4	0	144	59	0	0	100
fixed	5	5	12	1074237	4	3	3	1	0	1086	1	4	0	152	60	0	0	100
fixed	5	6	1	1076365	4	1	1	1	0	1460	1	4	0	136	61	0	0	100
fixed	5	6	2	1078275	1	2	2	1	0	947	1	4	0	144	62	0	0	100
fixed	5	6	3	1080199	6	4	4	1	0	1578	1	4	0	160	63	0	0	100
fixed	5	6	4	1082596	2	1	1	1	0	812	1	4	0	136	64	0	0	100
fixed	5	6	5	1083755	5	3	3	1	0	971	1	4	0	152	65	0	0	100
fixed	5	6	6	1085504	6	4	4	1	0	1616	1	4	0	160	66	0	0	100
fixed	5	6	7	1087879	3	1	1	1	0	1044	1	4	0	136	67	0	0	100
fixed	5	6	8	1089465	2	3	0	0	2	0	3	4	0	152	67	0	1	99
fixed	5	6	9	1092384	3	2	2	1	0	1078	1	4	0	144	68	0	1	99
fixed	5	6	10	1094398	1	4	4	1	0	880	1	4	0	160	69	0	1	99
fixed	5	6	11	1095757	5	2	2	1	0	1647	1	4	0	144	70	0	1	99
fixed	5	6	12	1098248	4	3	3	1	0	901	1	4	0	152	71	0	1	99
fixed	5	7	1	1100006	4	1	1	1	0	770	1	4	0	136	72	0	1	99
fixed	5	7	2	1101749	1	2	2	1	0	1521	1	4	0	144	73	0	1	99
fixed	5	7	3	1103937	6	4	4	1	0	1236	1	4	0	160	74	0	1	99
fixed	5	7	4	1106144	2	1	1	1	0	903	1	4	0	136	75	0	1	99
fixed	5	7	5	1107787	5	3	3	1	0	1393	1	4	0	152	76	0	1	99
fixed	5	7	6	1109816	6	4	4	1	0	947	1	4	0	160	77	0	1	99
fixed	5	7	7	1111066	3	1	1	1	0	1414	1	4	0	136	78	0	1	99
fixed	5	7	8	1113497	2	3	3	1	0	1975	1	4	0	152	79	0	1	99
fixed	5	7	9	1115871	3	2	2	1	0	987	1	4	0	144	80	0	1	99
fixed	5	7	10	1117760	1	4	4	1	0	1243	1	4	0	160	81	0	1	99
fixed	5	7	11	1119390	5	2	2	1	0	1333	1	4	0	144	82	0	1	99
fixed	5	7	12	1121725	4	3	0	0	2	0	3	4	0	152	82	0	2	98
fixed	5	8	1	1124901	4	1	1	1	0	924	1	4	0	136	83	0	2	98
fixed	5	8	2	1126453	1	2	2	1	0	1042	1	4	0	144	84	0	2	98
fixed	5	8	3	1128263	6	4	4	1	0	1214	1	4	0	160	85	0	2	98
fixed	5	8	4	1130330	2	1	1	1	0	718	1	4	0	136	86	0	2	98
fixed	5	8	5	1131360	5	3	3	1	0	1131	1	4	0	152	87	0	2	98
fixed	5	8	6	1133417	6	4	4	1	0	876	1	4	0	160	88	0	2	98
fixed	5	8	7	1134826	3	1	1	1	0	1423	1	4	0	136	89	0	2	98
fixed	5	8	8	1136662	2	3	3	1	0	1010	1	4	0	152	90	0	2	98
fixed	5	8	9	1138578	3	2	2	1	0	961	1	4	0	144	91	0	2	98
fixed	5	8	10	1140533	1	4	4	1	0	1646	1	4	0	160	92	0	2	98
fixed	5	8	11	1142542	5	2	2	1	0	937	1	4	0	144	93	0	2	98
fixed	5	8	12	1144287	4	3	3	1	0	815	1	4	0	152	94	0	2	98
fixed	5	9	1	1146353	4	1	1	1	0	1815	1	4	0	136	95	0	2	98
fixed	5	9	2	1148741	1	2	2	1	0	1026	1	4	0	144	96	0	2	98
fixed	5	9	3	1150443	6	4	4	1	0	947	1	4	0	160	97	0	2	98
fixed	5	9	4	1151721	2	1	1	1	0	1812	1	4	0	136	98	0	2	98
fixed	5	9	5	1153880	5	3	3	1	0	1377	1	4	0	152	99	0	2	98
fixed	5	9	6	1156223	6	4	4	1	0	1902	1	4	0	160	100	0	2	98
fixed	5	9	7	1158599	3	1	1	1	0	968	1	4	0	136	101	0	2	98
fixed	5	9	8	1160360	2	3	3	1	0	926	1	4	0	152	102	0	2	98
fixed	5	9	9	1162177	3	2	2	1	0	833	1	4	0	144	103	0	2	98
fixed	5	9	10	1163514	1	4	4	1	0	1232	1	4	0	160	104	0	2	98
fixed	5	9	11	1165669	5	2	2	1	0	2005	1	4	0	144	105	0	2	98
fixed	5	9	12	1168413	4	3	3	1	0	825	1	4	0	152	106	0	2	98
fixed	5	10	1	1170229	4	1	1	1	0	1444	1	4	0	136	107	0	2	98
fixed	5	10	2	1171997	1	2	2	1	0	1257	1	4	0	144	108	0	2	98
fixed	5	10	3	1173855	6	4	0	1	2	0	3	4	0	160	108	0	3	97
fixed	5	10	4	1176885	2	1	1	1	0	706	1	4	0	136	109	0	3	97
fixed	5	10	5	1178372	5	3	3	1	0	1723	1	4	0	152	110	0	3	97
fixed	5	10	6	1180555	6	4	4	1	0	871	1	4	0	160	111	0	3	97
fixed	5	10	7	1182106	3	1	1	1	0	941	1	4	0	136	112	0	3	97
fixed	5	10	8	1183679	2	3	3	1	0	1298	1	4	0	152	113	0	3	97
fixed	5	10	9	1185738	3	2	2	1	0	867	1	4	0	144	114	0	3	97
fixed	5	10	10	1187309	1	4	4	1	0	817	1	4	0	160	115	0	3	97
fixed	5	10	11	1188535	5	2	2	1	0	949	1	4	0	144	116	0	3	97
fixed	5	10	12	1189900	4	3	3	1	0	843	1	4	0	152	117	0	3	98
random	6	1	1	1280697	6	1	1	1	0	901	1	4	0	168	1	0	0	100
random	6	1	2	1282110	4	4	4	1	0	833	1	4	0	192	2	0	0	100
random	6	1	3	1283684	2	2	2	1	0	903	1	4	0	176	3	0	0	100
random	6	1	4	1285556	3	3	3	1	0	608	1	4	0	184	4	0	0	100
random	6	1	5	1286836	5	2	2	1	0	905	1	4	0	176	5	0	0	100
random	6	1	6	1288767	1	4	4	1	0	799	1	4	0	192	6	0	0	100
random	6	1	7	1289950	6	1	1	1	0	750	1	4	0	168	7	0	0	100
random	6	1	8	1290988	2	3	3	1	0	858	1	4	0	184	8	0	0	100
random	6	1	9	1292673	4	2	2	1	0	850	1	4	0	176	9	0	0	100
random	6	1	10	1293912	1	1	1	1	0	869	1	4	0	168	10	0	0	100
random	6	1	11	1295758	5	4	4	1	0	743	1	4	0	192	11	0	0	100
random	6	1	12	1297507	3	3	3	1	0	933	1	4	0	184	12	0	0	100
random	6	1	13	1299212	5	2	2	1	0	749	1	4	0	176	13	0	0	100
random	6	1	14	1300779	1	4	4	1	0	923	1	4	0	192	14	0	0	100
random	6	1	15	1302391	3	1	1	1	0	926	1	4	0	168	15	0	0	100
random	6	1	16	1304171	4	3	3	1	0	1827	1	4	0	184	16	0	0	100
random	6	1	17	1306314	6	4	4	1	0	816	1	4	0	192	17	0	0	100
random	6	1	18	1308140	2	1	1	1	0	771	1	4	0	168	18	0	0	100
random	6	1	19	1309414	5	3	3	1	0	1501	1	4	0	184	19	0	0	100
random	6	1	20	1311793	2	2	2	1	0	848	1	4	0	176	20	0	0	100
random	6	1	21	1313339	3	3	3	1	0	1447	1	4	0	184	21	0	0	100
random	6	1	22	1315738	6	1	1	1	0	809	1	4	0	168	22	0	0	100
random	6	1	23	1316924	4	2	2	1	0	1927	1	4	0	176	23	0	0	100
random	6	1	24	1319658	1	4	4	1	0	739	1	4	0	192	24	0	0	100
random	6	1	25	1321650	4	3	3	1	0	1198	1	4	0	184	25	0	0	100
random	6	1	26	1323342	2	1	1	1	0	1623	1	4	0	168	26	0	0	100
random	6	1	27	1325682	5	2	2	2	0	1356	2	4	0	176	27	0	0	100
random	6	1	28	1327403	6	4	4	1	0	819	1	4	0	192	28	0	0	100
random	6	1	29	1328887	1	3	3	1	0	876	1	4	0	184	29	0	0	100
random	6	1	30	1330505	5	2	2	1	0	767	1	4	0	176	30	0	0	100
random	6	1	31	1332238	2	1	1	1	0	990	1	4	0	168	31	0	0	100
random	6	1	32	1334229	3	3	3	1	0	1378	1	4	0	184	32	0	0	100
random	6	1	33	1336489	6	4	4	1	0	818	1	4	0	192	33	0	0	100
random	6	1	34	1338332	4	2	2	1	0	1316	1	4	0	176	34	0	0	100
random	6	1	35	1340059	3	4	4	1	0	1331	1	4	0	192	35	0	0	100
random	6	1	36	1341690	1	1	1	1	0	1014	1	4	0	168	36	0	0	100
random	6	1	37	1343453	3	4	4	1	0	2251	1	4	0	192	37	0	0	100
random	6	1	38	1346142	5	3	3	1	0	1329	1	4	0	184	38	0	0	100
random	6	1	39	1348239	6	1	1	1	0	929	1	4	0	168	39	0	0	100
random	6	1	40	1349497	1	2	2	1	0	891	1	4	0	176	40	0	0	100
random	6	1	41	1350723	2	3	3	1	0	911	1	4	0	184	41	0	0	100
random	6	1	42	1352156	4	4	4	1	0	1514	1	4	0	192	42	0	0	100
random	6	1	43	1354627	1	2	2	1	0	1386	1	4	0	176	43	0	0	100
random	6	1	44	1356664	6	3	3	1	0	900	1	4	0	184	44	0	0	100
random	6	1	45	1357959	3	1	1	1	0	973	1	4	0	168	45	0	0	100
random	6	1	46	1359761	4	4	4	1	0	1360	1	4	0	192	46	0	0	100
random	6	1	47	1361951	2	2	2	1	0	1052	1	4	0	176	47	0	0	100
random	6	1	48	1363925	5	1	1	1	0	1712	1	4	0	168	48	0	0	100
random	6	1	49	1366710	2	3	3	1	0	1562	1	4	0	184	49	0	0	100
random	6	1	50	1369124	3	1	0	0	2	0	3	4	0	168	49	0	1	98
random	6	1	51	1372550	1	4	0	0	2	0	3	4	0	192	49	0	2	96
random	6	1	52	1375909	5	3	0	0	2	0	3	4	0	184	49	0	3	94
random	6	1	53	1379203	3	2	2	1	0	1033	1	4	0	176	50	0	3	94
random	6	1	54	1380865	6	4	4	1	0	874	1	4	0	192	51	0	3	94
random	6	1	55	1382293	4	2	2	1	0	1278	1	4	0	176	52	0	3	95
random	6	1	56	1383994	1	1	1	1	0	926	1	4	0	168	53	0	3	95
random	6	1	57	1385776	5	4	4	1	0	754	1	4	0	192	54	0	3	95
random	6	1	58	1387307	2	1	1	1	0	850	1	4	0	168	55	0	3	95
random	6	1	59	1388482	6	2	2	1	0	1128	1	4	0	176	56	0	3	95
random	6	1	60	1390394	4	3	3	1	0	783	1	4	0	184	57	0	3	95
random	6	1	61	1392089	1	2	2	1	0	935	1	4	0	176	58	0	3	95
random	6	1	62	1393876	6	4	4	1	0	907	1	4	0	192	59	0	3	95
random	6	1	63	1395688	4	1	1	1	0	767	1	4	0	168	60	0	3	95
random	6	1	64	1396894	2	2	2	1	0	932	1	4	0	176	61	0	3	95
random	6	1	65	1398138	4	3	3	1	0	975	1	4	0	184	62	0	3	95
random	6	1	66	1399456	3	1	1	1	0	935	1	4	0	168	63	0	3	95
random	6	1	67	1401019	1	3	3	1	0	1141	1	4	0	184	64	0	3	96
random	6	1	68	1402803	5	4	4	1	0	1081	1	4	0	192	65	0	3	96
random	6	1	69	1404265	2	2	2	1	0	924	1	4	0	176	66	0	3	96
random	6	1	70	1405728	3	1	1	1	0	1710	1	4	0	168	67	0	3	96
random	6	1	71	1408099	5	4	4	1	0	721	1	4	0	192	68	0	3	96
random	6	1	72	1409557	6	3	3	1	0	1699	1	4	0	184	69	0	3	96
random	6	1	73	1412055	2	1	1	1	0	817	1	4	0	168	70	0	3	96
random	6	1	74	1413295	5	3	3	1	0	941	1	4	0	184	71	0	3	96
random	6	1	75	1415035	1	4	4	1	0	795	1	4	0	192	72	0	3	96
random	6	1	76	1416753	6	2	2	1	0	834	1	4	0	176	73	0	3	96
random	6	1	77	1418216	2	1	1	1	0	1637	1	4	0	168	74	0	3	96
random	6	1	78	1420446	4	4	4	1	0	1030	1	4	0	192	75	0	3	96
random	6	1	79	1422450	3	2	2	1	0	945	1	4	0	176	76	0	3	96
random	6	1	80	1423880	4	3	3	1	0	1045	1	4	0	184	77	0	3	96
random	6	1	81	1425333	1	4	0	2	2	0	3	4	0	192	77	0	4	95
random	6	1	82	1428243	5	1	1	1	0	732	1	4	0	168	78	0	4	95
random	6	1	83	1429315	3	2	2	1	0	1022	1	4	0	176	79	0	4	95
random	6	1	84	1431030	6	3	3	1	0	958	1	4	0	184	80	0	4	95
random	6	1	85	1432539	3	2	2	1	0	1222	1	4	0	176	81	0	4	95
random	6	1	86	1434766	1	3	3	1	0	984	1	4	0	184	82	0	4	95
random	6	1	87	1436581	4	4	4	1	0	738	1	4	0	192	83	0	4	95
random	6	1	88	1437927	2	1	1	1	0	778	1	4	0	168	84	0	4	95
random	6	1	89	1439169	6	4	4	1	0	917	1	4	0	192	85	0	4	96
random	6	1	90	1440412	3	3	3	1	0	1032	1	4	0	184	86	0	4	96
random	6	1	91	1442033	5	4	4	1	0	956	1	4	0	192	87	0	4	96
random	6	1	92	1444019	1	2	2	1	0	920	1	4	0	176	88	0	4	96
random	6	1	93	1445283	5	1	1	1	0	890	1	4	0	168	89	0	4	96
random	6	1	94	1446718	4	3	3	1	0	1494	1	4	0	184	90	0	4	96
random	6	1	95	1448809	6	1	1	1	0	1405	1	4	0	168	91	0	4	96
random	6	1	96	1450724	2	2	2	1	0	1524	1	4	0	176	92	0	4	96
random	6	1	97	1453173	4	3	3	1	0	1124	1	4	0	184	93	0	4	96
random	6	1	98	1455092	3	2	2	1	0	1050	1	4	0	176	94	0	4	96
random	6	1	99	1456853	6	3	0	0	2	0	3	4	0	184	94	0	5	95
random	6	1	100	1459678	1	4	0	0	2	0	3	4	0	192	94	0	6	94
random	6	1	101	1462685	4	1	0	0	2	0	3	4	0	168	94	0	7	93
random	6	1	102	1465904	5	2	2	1	0	2217	1	4	0	176	95	0	7	93
random	6	1	103	1468642	2	4	4	1	0	636	1	4	0	192	96	0	7	93
random	6	1	104	1469888	3	1	1	1	0	888	1	4	0	168	97	0	7	93
random	6	1	105	1471156	1	3	3	1	0	1146	1	4	0	184	98	0	7	93
random	6	1	106	1472918	2	2	2	1	0	1328	1	4	0	176	99	0	7	93
random	6	1	107	1474655	5	4	4	1	0	790	1	4	0	192	100	0	7	93
random	6	1	108	1475854	6	1	1	1	0	948	1	4	0	168	101	0	7	94
random	6	1	109	1477699	5	4	4	1	0	909	1	4	0	192	102	0	7	94
random	6	1	110	1479276	6	3	3	1	0	1082	1	4	0	184	103	0	7	94
random	6	1	111	1480742	2	2	2	1	0	868	1	4	0	176	104	0	7	94
random	6	1	112	1482259	3	1	1	1	0	844	1	4	0	168	105	0	7	94
random	6	1	113	1483677	1	2	2	1	0	968	1	4	0	176	106	0	7	94
random	6	1	114	1485033	2	3	3	1	0	838	1	4	0	184	107	0	7	94
random	6	1	115	1486672	3	1	1	1	0	801	1	4	0	168	108	0	7	94
random	6	1	116	1488137	4	4	4	1	0	1043	1	4	0	192	109	0	7	94
random	6	1	117	1490054	6	1	1	1	0	882	1	4	0	168	110	0	7	94
random	6	1	118	1491459	5	3	3	1	0	1103	1	4	0	184	111	0	7	94
random	6	1	119	1493362	1	4	4	1	0	1118	1	4	0	192	112	0	7	94
random	6	1	120	1495291	4	2	2	1	0	740	1	4	0	176	113	0	7	94
fixed	7	1	1	1497195	4	1	1	1	0	843	1	4	0	200	1	0	0	100
fixed	7	1	2	1498495	1	2	2	1	0	1077	1	4	0	208	2	0	0	100
fixed	7	1	3	1500309	6	4	4	1	0	727	1	4	0	224	3	0	0	100
fixed	7	1	4	1501452	2	1	1	1	0	879	1	4	0	200	4	0	0	100
fixed	7	1	5	1502782	5	3	3	1	0	911	1	4	0	216	5	0	0	100
fixed	7	1	6	1504312	6	4	4	1	0	790	1	4	0	224	6	0	0	100
fixed	7	1	7	1505771	3	1	1	1	0	872	1	4	0	200	7	0	0	100
fixed	7	1	8	1507560	2	3	3	1	0	1300	1	4	0	216	8	0	0	100
fixed	7	1	9	1509539	3	2	2	1	0	865	1	4	0	208	9	0	0	100
fixed	7	1	10	1511247	1	4	4	1	0	1272	1	4	0	224	10	0	0	100
fixed	7	1	11	1513040	5	2	2	1	0	1100	1	4	0	208	11	0	0	100
fixed	7	1	12	1514492	4	3	3	1	0	967	1	4	0	216	12	0	0	100
fixed	7	2	1	1516194	4	1	1	1	0	1118	1	4	0	200	1	0	0	8
fixed	7	2	2	1518204	1	2	2	1	0	2154	1	4	0	208	2	0	0	14
fixed	7	2	3	1520889	6	4	4	2	0	1496	2	4	0	224	3	0	0	20
fixed	7	2	4	1522719	2	1	1	1	0	906	1	4	0	200	4	0	0	25
fixed	7	2	5	1524083	5	3	3	1	0	904	1	4	0	216	5	0	0	29
fixed	7	2	6	1525971	6	4	4	1	0	969	1	4	0	224	6	0	0	33
fixed	7	2	7	1527281	3	1	1	1	0	1697	1	4	0	200	7	0	0	37
fixed	7	2	8	1529918	2	3	3	1	0	986	1	4	0	216	8	0	0	40
fixed	7	2	9	1531918	3	2	2	1	0	941	1	4	0	208	9	0	0	43
fixed	7	2	10	1533193	1	4	4	1	0	1111	1	4	0	224	10	0	0	45
fixed	7	2	11	1534733	5	2	2	1	0	1294	1	4	0	208	11	0	0	48
fixed	7	2	12	1536849	4	3	3	1	0	2452	1	4	0	216	12	0	0	50
fixed	7	3	1	1539852	4	1	1	1	0	949	1	4	0	200	1	0	0	4
fixed	7	3	2	1541627	1	2	2	1	0	1329	1	4	0	208	2	0	0	8
fixed	7	3	3	1543319	6	4	4	1	0	946	1	4	0	224	3	0	0	11
fixed	7	3	4	1544893	2	1	1	1	0	888	1	4	0	200	4	0	0	14
fixed	7	3	5	1546316	5	3	3	1	0	1323	1	4	0	216	5	0	0	17
fixed	7	3	6	1548681	6	4	4	1	0	1639	1	4	0	224	6	0	0	20
fixed	7	3	7	1551200	3	1	1	1	0	1012	1	4	0	200	7	0	0	23
fixed	7	3	8	1553185	2	3	3	1	0	888	1	4	0	216	8	0	0	25
fixed	7	3	9	1554589	3	2	2	1	0	1396	1	4	0	208	9	0	0	27
fixed	7	3	10	1556328	1	4	4	1	0	2355	1	4	0	224	10	0	0	29
fixed	7	3	11	1559309	5	2	0	0	2	0	3	4	0	208	10	0	1	29
fixed	7	3	12	1562768	4	3	0	0	2	0	3	4	0	216	10	0	2	28
fixed	7	4	1	1566317	4	1	0	0	2	0	3	4	0	200	0	0	1	0
fixed	7	4	2	1569183	1	2	0	0	2	0	3	4	0	208	0	0	2	0
fixed	7	4	3	1572606	6	4	4	1	0	2298	1	4	0	224	1	0	2	3
fixed	7	4	4	1575642	2	1	1	1	0	745	1	4	0	200	2	0	2	5
fixed	7	4	5	1577040	5	3	3	1	0	1526	1	4	0	216	3	0	2	7
fixed	7	4	6	1579076	6	4	4	1	0	800	1	4	0	224	4	0	2	10
fixed	7	4	7	1580787	3	1	1	1	0	1111	1	4	0	200	5	0	2	12
fixed	7	4	8	1582252	2	3	3	1	0	1129	1	4	0	216	6	0	2	14
fixed	7	4	9	1583826	3	2	2	1	0	822	1	4	0	208	7	0	2	16
fixed	7	4	10	1585188	1	4	4	1	0	1021	1	4	0	224	8	0	2	17
fixed	7	4	11	1587001	5	2	2	1	0	1864	1	4	0	208	9	0	2	19
fixed	7	4	12	1589205	4	3	3	1	0	858	1	4	0	216	10	0	2	21
fixed	7	5	1	1590693	4	1	1	1	0	779	1	4	0	200	1	0	0	2
fixed	7	5	2	1591941	1	2	2	1	0	999	1	4	0	208	2	0	0	4
fixed	7	5	3	1593826	6	4	4	1	0	983	1	4	0	224	3	0	0	6
fixed	7	5	4	1595564	2	1	1	1	0	757	1	4	0	200	4	0	0	8
fixed	7	5	5	1597269	5	3	3	1	0	1253	1	4	0	216	5	0	0	9
fixed	7	5	6	1599334	6	4	4	1	0	1309	1	4	0	224	6	0	0	11
fixed	7	5	7	1601074	3	1	1	1	0	828	1	4	0	200	7	0	0	13
fixed	7	5	8	1602558	2	3	3	1	0	1101	1	4	0	216	8	0	0	14
fixed	7	5	9	1603979	3	2	2	1	0	769	1	4	0	208	9	0	0	16
fixed	7	5	10	1605373	1	4	4	1	0	1006	1	4	0	224	10	0	0	17
fixed	7	5	11	1606727	5	2	2	1	0	900	1	4	0	208	11	0	0	19
fixed	7	5	12	1608595	4	3	3	1	0	1245	1	4	0	216	12	0	0	20
fixed	7	6	1	1611043	4	1	1	1	0	789	1	4	0	200	1	0	0	2
fixed	7	6	2	1612678	1	2	2	1	0	904	1	4	0	208	2	0	0	3
fixed	7	6	3	1614002	6	4	4	1	0	1576	1	4	0	224	3	0	0	5
fixed	7	6	4	1616258	2	1	1	1	0	832	1	4	0	200	4	0	0	6
fixed	7	6	5	1617691	5	3	3	1	0	884	1	4	0	216	5	0	0	8
fixed	7	6	6	1619529	6	4	4	1	0	1462	1	4	0	224	6	0	0	9
fixed	7	6	7	1621611	3	1	1	1	0	678	1	4	0	200	7	0	0	10
fixed	7	6	8	1623174	2	3	3	2	0	2347	2	4	0	216	8	0	0	12
fixed	7	6	9	1626548	3	2	2	1	0	957	1	4	0	208	9	0	0	13
fixed	7	6	10	1627980	1	4	4	1	0	904	1	4	0	224	10	0	0	14
fixed	7	6	11	1629513	5	2	2	1	0	1423	1	4	0	208	11	0	0	15
fixed	7	6	12	1631923	4	3	3	1	0	1225	1	4	0	216	12	0	0	17
fixed	7	7	1	1634133	4	1	1	1	0	1187	1	4	0	200	1	0	0	1
fixed	7	7	2	1635961	1	2	2	1	0	950	1	4	0	208	2	0	0	3
fixed	7	7	3	1637221	6	4	4	1	0	1721	1	4	0	224	3	0	0	4
fixed	7	7	4	1639281	2	1	1	1	0	857	1	4	0	200	4	0	0	5
fixed	7	7	5	1640597	5	3	3	1	0	1561	1	4	0	216	5	0	0	6
fixed	7	7	6	1642918	6	4	4	1	0	1704	1	4	0	224	6	0	0	8
fixed	7	7	7	1645329	3	1	1	1	0	953	1	4	0	200	7	0	0	9
fixed	7	7	8	1647231	2	3	3	1	0	2272	1	4	0	216	8	0	0	10
fixed	7	7	9	1649869	3	2	2	1	0	697	1	4	0	208	9	0	0	11
fixed	7	7	10	1651351	1	4	4	1	0	874	1	4	0	224	10	0	0	12
fixed	7	7	11	1652632	5	2	2	1	0	1060	1	4	0	208	11	0	0	13
fixed	7	7	12	1654239	4	3	3	1	0	776	1	4	0	216	12	0	0	14
fixed	7	8	1	1656004	4	1	1	1	0	2053	1	4	0	200	1	0	0	1
fixed	7	8	2	1658728	1	2	2	1	0	930	1	4	0	208	2	0	0	2
fixed	7	8	3	1660468	6	4	4	1	0	984	1	4	0	224	3	0	0	3
fixed	7	8	4	1661806	2	1	1	1	0	839	1	4	0	200	4	0	0	5
fixed	7	8	5	1663071	5	3	3	1	0	2058	1	4	0	216	5	0	0	6
fixed	7	8	6	1666175	6	4	4	1	0	895	1	4	0	224	6	0	0	7
fixed	7	8	7	1668004	3	1	1	1	0	1425	1	4	0	200	7	0	0	8
fixed	7	8	8	1670261	2	3	3	1	0	2153	1	4	0	216	8	0	0	9
fixed	7	8	9	1673019	3	2	2	1	0	1037	1	4	0	208	9	0	0	10
fixed	7	8	10	1674694	1	4	4	1	0	830	1	4	0	224	10	0	0	11
fixed	7	8	11	1675971	5	2	2	1	0	1895	1	4	0	208	11	0	0	12
fixed	7	8	12	1678796	4	3	0	0	2	0	3	4	0	216	11	0	1	11
fixed	7	9	1	1682519	4	1	0	0	2	0	3	4	0	200	0	0	1	0
fixed	7	9	2	1685905	1	2	0	0	2	0	3	4	0	208	0	0	2	0
fixed	7	9	3	1688979	6	4	0	0	2	0	3	4	0	224	0	0	3	0
fixed	7	9	4	1692015	2	1	1	1	0	1288	1	4	0	200	1	0	3	1
fixed	7	9	5	1694148	5	3	3	1	0	1229	1	4	0	216	2	0	3	2
fixed	7	9	6	1695762	6	4	4	1	0	857	1	4	0	224	3	0	3	3
fixed	7	9	7	1697011	3	1	1	1	0	844	1	4	0	200	4	0	3	4
fixed	7	9	8	1698488	2	3	3	1	0	1077	1	4	0	216	5	0	3	5
fixed	7	9	9	1700010	3	2	2	1	0	869	1	4	0	208	6	0	3	6
fixed	7	9	10	1701537	1	4	4	1	0	973	1	4	0	224	7	0	3	7
fixed	7	9	11	1703359	5	2	2	1	0	1087	1	4	0	208	8	0	3	7
fixed	7	9	12	1704887	4	3	3	1	0	983	1	4	0	216	9	0	3	8
fixed	7	10	1	1706427	4	1	1	1	0	957	1	4	0	200	1	0	0	1
fixed	7	10	2	1708337	1	2	2	1	0	1301	1	4	0	208	2	0	0	2
fixed	7	10	3	1710012	6	4	4	1	0	902	1	4	0	224	3	0	0	3
fixed	7	10	4	1711761	2	1	1	1	0	1011	1	4	0	200	4	0	0	4
fixed	7	10	5	1713766	5	3	3	1	0	1007	1	4	0	216	5	0	0	4
fixed	7	10	6	1715079	6	4	4	1	0	1031	1	4	0	224	6	0	0	5
fixed	7	10	7	1716679	3	1	1	1	0	731	1	4	0	200	7	0	0	6
fixed	7	10	8	1717713	2	3	3	1	0	1072	1	4	0	216	8	0	0	7
fixed	7	10	9	1719802	3	2	2	1	0	815	1	4	0	208	9	0	0	8
fixed	7	10	10	1721067	1	4	4	1	0	1177	1	4	0	224	10	0	0	8
fixed	7	10	11	1722994	5	2	2	1	0	960	1	4	0	208	11	0	0	9
fixed	7	10	12	1724594	4	3	3	1	0	892	1	4	0	216	12	0	0	10
