type	block	sequ.	trial	time	Pos.	Color	Button	NumRsp	Resp_1	RT_1	R_Code	Resp_2	RT_2	Trigg.	n_hit	n_inc	n_miss	score_%

random	1	1	1	1553	6	1	1	1	0	684	1	4	0	8	1	0	0	100
random	1	1	2	3228	4	4	4	1	0	734	1	4	0	32	2	0	0	100
random	1	1	3	4330	2	2	2	1	0	1631	1	4	0	16	3	0	0	100
random	1	1	4	6470	3	3	3	1	0	972	1	4	0	24	4	0	0	100
random	1	1	5	8289	5	2	2	1	0	1247	1	4	0	16	5	0	0	100
random	1	1	6	10568	1	4	4	1	0	751	1	4	0	32	6	0	0	100
random	1	1	7	12053	6	1	1	1	0	728	1	4	0	8	7	0	0	100
random	1	1	8	13303	2	3	3	1	0	915	1	4	0	24	8	0	0	100
random	1	1	9	14724	4	2	2	1	0	775	1	4	0	16	9	0	0	100
random	1	1	10	16373	1	1	1	1	0	865	1	4	0	8	10	0	0	100
random	1	1	11	18201	5	4	4	1	0	643	1	4	0	32	11	0	0	100
random	1	1	12	19741	3	3	3	1	0	930	1	4	0	24	12	0	0	100
random	1	1	13	21503	5	2	2	1	0	711	1	4	0	16	13	0	0	100
random	1	1	14	22989	1	4	4	1	0	776	1	4	0	32	14	0	0	100
random	1	1	15	24066	3	1	1	1	0	851	1	4	0	8	15	0	0	100
random	1	1	16	25799	4	3	3	1	0	1026	1	4	0	24	16	0	0	100
random	1	1	17	27773	6	4	4	1	0	750	1	4	0	32	17	0	0	100
random	1	1	18	29333	2	1	1	1	0	684	1	4	0	8	18	0	0	100
random	1	1	19	30513	5	3	3	1	0	994	1	4	0	24	19	0	0	100
random	1	1	20	32451	2	2	2	1	0	992	1	4	0	16	20	0	0	100
random	1	1	21	34320	3	3	3	1	0	1097	1	4	0	24	21	0	0	100
random	1	1	22	36264	6	1	1	1	0	775	1	4	0	8	22	0	0	100
random	1	1	23	37898	4	2	2	1	0	929	1	4	0	16	23	0	0	100
random	1	1	24	39795	1	4	4	1	0	697	1	4	0	32	24	0	0	100
random	1	1	25	41252	4	3	3	1	0	947	1	4	0	24	25	0	0	100
random	1	1	26	42889	2	1	1	1	0	790	1	4	0	8	26	0	0	100
random	1	1	27	44241	5	2	2	2	0	1204	2	4	0	16	27	0	0	100
random	1	1	28	46025	6	4	4	1	0	753	1	4	0	32	28	0	0	100
random	1	1	29	47633	1	3	3	1	0	941	1	4	0	24	29	0	0	100
random	1	1	30	49148	5	2	2	1	0	837	1	4	0	16	30	0	0	100
random	1	1	31	50420	2	1	1	1	0	911	1	4	0	8	31	0	0	100
random	1	1	32	52168	3	3	3	1	0	1029	1	4	0	24	32	0	0	100
random	1	1	33	53991	6	4	4	1	0	760	1	4	0	32	33	0	0	100
random	1	1	34	55632	4	2	2	1	0	1154	1	4	0	16	34	0	0	100
random	1	1	35	57283	3	4	4	1	0	884	1	4	0	32	35	0	0	100
random	1	1	36	58823	1	1	1	1	0	835	1	4	0	8	36	0	0	100
random	1	1	37	60300	3	4	4	1	0	820	1	4	0	32	37	0	0	100
random	1	1	38	61646	5	3	3	1	0	1092	1	4	0	24	38	0	0	100
random	1	1	39	63356	6	1	1	1	0	827	1	4	0	8	39	0	0	100
random	1	1	40	65177	1	2	2	1	0	942	1	4	0	16	40	0	0	100
random	1	1	41	66658	2	3	3	1	0	935	1	4	0	24	41	0	0	100
random	1	1	42	67955	4	4	4	1	0	872	1	4	0	32	42	0	0	100
random	1	1	43	69657	1	2	2	1	0	904	1	4	0	16	43	0	0	100
random	1	1	44	70949	6	3	3	1	0	849	1	4	0	24	44	0	0	100
random	1	1	45	72270	3	1	1	1	0	762	1	4	0	8	45	0	0	100
random	1	1	46	73317	4	4	4	1	0	885	1	4	0	32	46	0	0	100
random	1	1	47	75011	2	2	2	1	0	845	1	4	0	16	47	0	0	100
random	1	1	48	76379	5	1	1	1	0	955	1	4	0	8	48	0	0	100
random	1	1	49	78544	2	3	3	1	0	1279	1	4	0	24	49	0	0	100
random	1	1	50	80480	3	1	1	1	0	1021	1	4	0	8	50	0	0	100
random	1	1	51	82017	1	4	4	1	0	700	1	4	0	32	51	0	0	100
random	1	1	52	83740	5	3	3	1	0	1011	1	4	0	24	52	0	0	100
random	1	1	53	85745	3	2	2	1	0	926	1	4	0	16	53	0	0	100
random	1	1	54	87678	6	4	4	1	0	749	1	4	0	32	54	0	0	100
random	1	1	55	89299	4	2	2	2	0	2464	2	4	0	16	55	0	0	100
random	1	1	56	92561	1	1	1	1	0	838	1	4	0	8	56	0	0	100
random	1	1	57	93929	5	4	4	1	0	748	1	4	0	32	57	0	0	100
random	1	1	58	94960	2	1	1	1	0	857	1	4	0	8	58	0	0	100
random	1	1	59	96577	6	2	2	1	0	1124	1	4	0	16	59	0	0	100
random	1	1	60	98609	4	3	3	1	0	878	1	4	0	24	60	0	0	100
random	1	1	61	100715	1	2	2	1	0	1172	1	4	0	16	61	0	0	100
random	1	1	62	102271	6	4	4	1	0	787	1	4	0	32	62	0	0	100
random	1	1	63	103493	4	1	1	1	0	1063	1	4	0	8	63	0	0	100
random	1	1	64	105024	2	2	2	1	0	878	1	4	0	16	64	0	0	100
random	1	1	65	106790	4	3	3	1	0	1059	1	4	0	24	65	0	0	100
random	1	1	66	108537	3	1	1	1	0	1033	1	4	0	8	66	0	0	100
random	1	1	67	110486	1	3	3	1	0	951	1	4	0	24	67	0	0	100
random	1	1	68	111759	5	4	4	1	0	753	1	4	0	32	68	0	0	100
random	1	1	69	113385	2	2	2	1	0	972	1	4	0	16	69	0	0	100
random	1	1	70	115133	3	1	1	1	0	1018	1	4	0	8	70	0	0	100
random	1	1	71	116939	5	4	4	1	0	749	1	4	0	32	71	0	0	100
random	1	1	72	118363	6	3	3	1	0	1313	1	4	0	24	72	0	0	100
random	1	1	73	120815	2	1	1	1	0	873	1	4	0	8	73	0	0	100
random	1	1	74	122231	5	3	3	1	0	1374	1	4	0	24	74	0	0	100
random	1	1	75	124315	1	4	4	1	0	789	1	4	0	32	75	0	0	100
random	1	1	76	125617	6	2	2	1	0	1142	1	4	0	16	76	0	0	100
random	1	1	77	127658	2	1	1	1	0	824	1	4	0	8	77	0	0	100
random	1	1	78	128820	4	4	4	1	0	1110	1	4	0	32	78	0	0	100
random	1	1	79	130518	3	2	2	1	0	1095	1	4	0	16	79	0	0	100
random	1	1	80	132138	4	3	3	1	0	1042	1	4	0	24	80	0	0	100
random	1	1	81	133723	1	4	0	1	2	0	3	4	0	32	80	0	1	99
random	1	1	82	136703	5	1	1	1	0	936	1	4	0	8	81	0	1	99
random	1	1	83	138550	3	2	2	1	0	1178	1	4	0	16	82	0	1	99
random	1	1	84	140270	6	3	3	1	0	1049	1	4	0	24	83	0	1	99
random	1	1	85	142401	3	2	2	1	0	1007	1	4	0	16	84	0	1	99
random	1	1	86	144261	1	3	3	1	0	816	1	4	0	24	85	0	1	99
random	1	1	87	145538	4	4	4	1	0	875	1	4	0	32	86	0	1	99
random	1	1	88	147023	2	1	1	1	0	763	1	4	0	8	87	0	1	99
random	1	1	89	148773	6	4	4	1	0	745	1	4	0	32	88	0	1	99
random	1	1	90	149818	3	3	3	1	0	1333	1	4	0	24	89	0	1	99
random	1	1	91	152142	5	4	4	1	0	906	1	4	0	32	90	0	1	99
random	1	1	92	153962	1	2	2	1	0	877	1	4	0	16	91	0	1	99
random	1	1	93	155208	5	1	1	1	0	825	1	4	0	8	92	0	1	99
random	1	1	94	156456	4	3	3	1	0	892	1	4	0	24	93	0	1	99
random	1	1	95	157673	6	1	1	1	0	960	1	4	0	8	94	0	1	99
random	1	1	96	159095	2	2	2	1	0	892	1	4	0	16	95	0	1	99
random	1	1	97	160629	4	3	3	1	0	947	1	4	0	24	96	0	1	99
random	1	1	98	162450	3	2	2	1	0	974	1	4	0	16	97	0	1	99
random	1	1	99	163819	6	3	3	1	0	1708	1	4	0	24	98	0	1	99
random	1	1	100	166326	1	4	4	1	0	833	1	4	0	32	99	0	1	99
random	1	1	101	168096	4	1	1	1	0	694	1	4	0	8	100	0	1	99
random	1	1	102	169821	5	2	2	1	0	982	1	4	0	16	101	0	1	99
random	1	1	103	171345	2	4	4	1	0	1637	1	4	0	32	102	0	1	99
random	1	1	104	173424	3	1	1	1	0	877	1	4	0	8	103	0	1	99
random	1	1	105	174601	1	3	3	1	0	1075	1	4	0	24	104	0	1	99
random	1	1	106	176098	2	2	2	1	0	779	1	4	0	16	105	0	1	99
random	1	1	107	177447	5	4	4	1	0	779	1	4	0	32	106	0	1	99
random	1	1	108	179251	6	1	1	2	0	1966	2	4	0	8	107	0	1	99
random	1	1	109	181931	5	4	4	1	0	820	1	4	0	32	108	0	1	99
random	1	1	110	183752	6	3	3	1	0	1287	1	4	0	24	109	0	1	99
random	1	1	111	185535	2	2	2	1	0	900	1	4	0	16	110	0	1	99
random	1	1	112	187248	3	1	1	1	0	755	1	4	0	8	111	0	1	99
random	1	1	113	188322	1	2	2	1	0	918	1	4	0	16	112	0	1	99
random	1	1	114	189671	2	3	3	1	0	733	1	4	0	24	113	0	1	99
random	1	1	115	191063	3	1	1	1	0	1034	1	4	0	8	114	0	1	99
random	1	1	116	193089	4	4	4	1	0	908	1	4	0	32	115	0	1	99
random	1	1	117	194473	6	1	1	1	0	1698	1	4	0	8	116	0	1	99
random	1	1	118	196811	5	3	3	1	0	1527	1	4	0	24	117	0	1	99
random	1	1	119	198879	1	4	4	1	0	855	1	4	0	32	118	0	1	99
random	1	1	120	200216	4	2	2	1	0	870	1	4	0	16	119	0	1	99
fixed	2	1	1	202496	4	1	1	1	0	973	1	4	0	40	1	0	0	100
fixed	2	1	2	204324	1	2	2	1	0	2200	1	4	0	48	2	0	0	100
fixed	2	1	3	207015	6	4	4	1	0	782	1	4	0	64	3	0	0	100
fixed	2	1	4	208171	2	1	1	1	0	757	1	4	0	40	4	0	0	100
fixed	2	1	5	209523	5	3	3	1	0	788	1	4	0	56	5	0	0	100
fixed	2	1	6	210738	6	4	4	1	0	792	1	4	0	64	6	0	0	100
fixed	2	1	7	211980	3	1	1	1	0	636	1	4	0	40	7	0	0	100
fixed	2	1	8	213637	2	3	3	1	0	894	1	4	0	56	8	0	0	100
fixed	2	1	9	215447	3	2	2	1	0	1241	1	4	0	48	9	0	0	100
fixed	2	1	10	217397	1	4	4	1	0	791	1	4	0	64	10	0	0	100
fixed	2	1	11	219134	5	2	2	1	0	1381	1	4	0	48	11	0	0	100
fixed	2	1	12	221347	4	3	3	1	0	831	1	4	0	56	12	0	0	100
fixed	2	2	1	223249	4	1	1	1	0	1270	1	4	0	40	13	0	0	100
fixed	2	2	2	225364	1	2	2	1	0	901	1	4	0	48	14	0	0	100
fixed	2	2	3	226959	6	4	4	1	0	897	1	4	0	64	15	0	0	100
fixed	2	2	4	228878	2	1	1	1	0	832	1	4	0	40	16	0	0	100
fixed	2	2	5	230407	5	3	3	1	0	1600	1	4	0	56	17	0	0	100
fixed	2	2	6	232534	6	4	4	1	0	1054	1	4	0	64	18	0	0	100
fixed	2	2	7	234068	3	1	1	1	0	1149	1	4	0	40	19	0	0	100
fixed	2	2	8	236054	2	3	3	1	0	1240	1	4	0	56	20	0	0	100
fixed	2	2	9	238229	3	2	2	1	0	1244	1	4	0	48	21	0	0	100
fixed	2	2	10	240228	1	4	4	1	0	759	1	4	0	64	22	0	0	100
fixed	2	2	11	241968	5	2	2	1	0	2198	1	4	0	48	23	0	0	100
fixed	2	2	12	244983	4	3	3	1	0	830	1	4	0	56	24	0	0	100
fixed	2	3	1	246423	4	1	1	1	0	1041	1	4	0	40	25	0	0	100
fixed	2	3	2	247818	1	2	2	1	0	1030	1	4	0	48	26	0	0	100
fixed	2	3	3	249591	6	4	4	1	0	715	1	4	0	64	27	0	0	100
fixed	2	3	4	250965	2	1	1	1	0	792	1	4	0	40	28	0	0	100
fixed	2	3	5	252096	5	3	3	1	0	1065	1	4	0	56	29	0	0	100
fixed	2	3	6	253997	6	4	4	1	0	1056	1	4	0	64	30	0	0	100
fixed	2	3	7	255736	3	1	1	1	0	663	1	4	0	40	31	0	0	100
fixed	2	3	8	257118	2	3	3	1	0	1124	1	4	0	56	32	0	0	100
fixed	2	3	9	259103	3	2	2	1	0	832	1	4	0	48	33	0	0	100
fixed	2	3	10	260735	1	4	4	1	0	1587	1	4	0	64	34	0	0	100
fixed	2	3	11	263306	5	2	2	1	0	1078	1	4	0	48	35	0	0	100
fixed	2	3	12	264847	4	3	3	1	0	845	1	4	0	56	36	0	0	100
fixed	2	4	1	266622	4	1	1	1	0	1377	1	4	0	40	37	0	0	100
fixed	2	4	2	269030	1	2	2	1	0	979	1	4	0	48	38	0	0	100
fixed	2	4	3	270748	6	4	4	1	0	1611	1	4	0	64	39	0	0	100
fixed	2	4	4	272915	2	1	1	1	0	911	1	4	0	40	40	0	0	100
fixed	2	4	5	274781	5	3	3	1	0	1000	1	4	0	56	41	0	0	100
fixed	2	4	6	276189	6	4	4	1	0	1997	1	4	0	64	42	0	0	100
fixed	2	4	7	278990	3	1	1	1	0	686	1	4	0	40	43	0	0	100
fixed	2	4	8	280395	2	3	3	1	0	978	1	4	0	56	44	0	0	100
fixed	2	4	9	281827	3	2	2	1	0	789	1	4	0	48	45	0	0	100
fixed	2	4	10	283358	1	4	4	1	0	805	1	4	0	64	46	0	0	100
fixed	2	4	11	284851	5	2	2	1	0	1405	1	4	0	48	47	0	0	100
fixed	2	4	12	287183	4	3	3	1	0	1227	1	4	0	56	48	0	0	100
fixed	2	5	1	289428	4	1	1	1	0	771	1	4	0	40	49	0	0	100
fixed	2	5	2	291102	1	2	2	1	0	1165	1	4	0	48	50	0	0	100
fixed	2	5	3	293163	6	4	4	2	0	2222	2	4	0	64	51	0	0	100
fixed	2	5	4	295688	2	1	1	1	0	771	1	4	0	40	52	0	0	100
fixed	2	5	5	297045	5	3	3	1	0	1449	1	4	0	56	53	0	0	100
fixed	2	5	6	299103	6	4	4	1	0	762	1	4	0	64	54	0	0	100
fixed	2	5	7	300506	3	1	1	1	0	702	1	4	0	40	55	0	0	100
fixed	2	5	8	301581	2	3	3	1	0	1201	1	4	0	56	56	0	0	100
fixed	2	5	9	303620	3	2	2	1	0	779	1	4	0	48	57	0	0	100
fixed	2	5	10	304824	1	4	4	1	0	1088	1	4	0	64	58	0	0	100
fixed	2	5	11	306861	5	2	2	1	0	1105	1	4	0	48	59	0	0	100
fixed	2	5	12	309008	4	3	3	1	0	814	1	4	0	56	60	0	0	100
fixed	2	6	1	311082	4	1	1	1	0	1054	1	4	0	40	61	0	0	100
fixed	2	6	2	312977	1	2	2	1	0	1342	1	4	0	48	62	0	0	100
fixed	2	6	3	314631	6	4	4	1	0	1784	1	4	0	64	63	0	0	100
fixed	2	6	4	316831	2	1	1	1	0	691	1	4	0	40	64	0	0	100
fixed	2	6	5	318373	5	3	3	1	0	978	1	4	0	56	65	0	0	100
fixed	2	6	6	320239	6	4	4	1	0	1770	1	4	0	64	66	0	0	100
fixed	2	6	7	322696	3	1	1	1	0	707	1	4	0	40	67	0	0	100
fixed	2	6	8	323909	2	3	3	1	0	1943	1	4	0	56	68	0	0	100
fixed	2	6	9	326384	3	2	2	1	0	790	1	4	0	48	69	0	0	100
fixed	2	6	10	328128	1	4	4	1	0	1581	1	4	0	64	70	0	0	100
fixed	2	6	11	330613	5	2	2	1	0	819	1	4	0	48	71	0	0	100
fixed	2	6	12	332465	4	3	3	1	0	1013	1	4	0	56	72	0	0	100
fixed	2	7	1	334171	4	1	1	1	0	1740	1	4	0	40	73	0	0	100
fixed	2	7	2	336814	1	2	2	1	0	933	1	4	0	48	74	0	0	100
fixed	2	7	3	338485	6	4	4	1	0	1558	1	4	0	64	75	0	0	100
fixed	2	7	4	340638	2	1	1	1	0	755	1	4	0	40	76	0	0	100
fixed	2	7	5	342167	5	3	3	1	0	1786	1	4	0	56	77	0	0	100
fixed	2	7	6	344592	6	4	0	0	2	0	3	4	0	64	77	0	1	99
fixed	2	7	7	347999	3	1	0	0	2	0	3	4	0	40	77	0	2	97
fixed	2	7	8	350974	2	3	0	1	2	0	3	4	0	56	77	0	3	96
fixed	2	7	9	353777	3	2	2	1	0	1950	1	4	0	48	78	0	3	96
fixed	2	7	10	356137	1	4	4	1	0	746	1	4	0	64	79	0	3	96
fixed	2	7	11	357402	5	2	2	1	0	1677	1	4	0	48	80	0	3	96
fixed	2	7	12	359493	4	3	3	1	0	868	1	4	0	56	81	0	3	96
fixed	2	8	1	361639	4	1	1	1	0	817	1	4	0	40	82	0	3	96
fixed	2	8	2	363348	1	2	2	1	0	961	1	4	0	48	83	0	3	97
fixed	2	8	3	364945	6	4	4	1	0	925	1	4	0	64	84	0	3	97
fixed	2	8	4	366309	2	1	1	1	0	740	1	4	0	40	85	0	3	97
fixed	2	8	5	367663	5	3	3	1	0	1258	1	4	0	56	86	0	3	97
fixed	2	8	6	369505	6	4	4	1	0	876	1	4	0	64	87	0	3	97
fixed	2	8	7	370718	3	1	1	1	0	745	1	4	0	40	88	0	3	97
fixed	2	8	8	371855	2	3	3	1	0	953	1	4	0	56	89	0	3	97
fixed	2	8	9	373413	3	2	2	1	0	903	1	4	0	48	90	0	3	97
fixed	2	8	10	374697	1	4	4	1	0	952	1	4	0	64	91	0	3	97
fixed	2	8	11	376564	5	2	2	1	0	961	1	4	0	48	92	0	3	97
fixed	2	8	12	378040	4	3	3	1	0	867	1	4	0	56	93	0	3	97
fixed	2	9	1	379951	4	1	1	1	0	889	1	4	0	40	94	0	3	97
fixed	2	9	2	381809	1	2	2	1	0	1235	1	4	0	48	95	0	3	97
fixed	2	9	3	383343	6	4	4	1	0	866	1	4	0	64	96	0	3	97
fixed	2	9	4	384915	2	1	1	1	0	703	1	4	0	40	97	0	3	97
fixed	2	9	5	386348	5	3	3	1	0	1050	1	4	0	56	98	0	3	97
fixed	2	9	6	388335	6	4	4	1	0	782	1	4	0	64	99	0	3	97
fixed	2	9	7	389941	3	1	1	1	0	802	1	4	0	40	100	0	3	97
fixed	2	9	8	391093	2	3	3	1	0	1017	1	4	0	56	101	0	3	97
fixed	2	9	9	392681	3	2	2	1	0	790	1	4	0	48	102	0	3	97
fixed	2	9	10	393777	1	4	4	1	0	832	1	4	0	64	103	0	3	97
fixed	2	9	11	395256	5	2	2	1	0	849	1	4	0	48	104	0	3	97
fixed	2	9	12	396627	4	3	3	1	0	871	1	4	0	56	105	0	3	97
fixed	2	10	1	398312	4	1	1	1	0	896	1	4	0	40	106	0	3	97
fixed	2	10	2	399724	1	2	2	1	0	1324	1	4	0	48	107	0	3	97
fixed	2	10	3	401390	6	4	4	1	0	1245	1	4	0	64	108	0	3	97
fixed	2	10	4	403450	2	1	1	1	0	862	1	4	0	40	109	0	3	97
fixed	2	10	5	404963	5	3	3	1	0	1230	1	4	0	56	110	0	3	97
fixed	2	10	6	406910	6	4	4	1	0	1044	1	4	0	64	111	0	3	97
fixed	2	10	7	408530	3	1	1	1	0	1911	1	4	0	40	112	0	3	97
fixed	2	10	8	411427	2	3	3	1	0	980	1	4	0	56	113	0	3	97
fixed	2	10	9	412775	3	2	2	1	0	876	1	4	0	48	114	0	3	97
fixed	2	10	10	414290	1	4	4	1	0	603	1	4	0	64	115	0	3	97
fixed	2	10	11	415438	5	2	2	1	0	802	1	4	0	48	116	0	3	97
fixed	2	10	12	417215	4	3	3	1	0	767	1	4	0	56	117	0	3	98
fixed	3	1	1	418944	4	1	1	1	0	910	1	4	0	72	1	0	0	100
fixed	3	1	2	420457	1	2	2	1	0	1294	1	4	0	80	2	0	0	100
fixed	3	1	3	422775	6	4	4	1	0	1204	1	4	0	96	3	0	0	100
fixed	3	1	4	424309	2	1	1	1	0	859	1	4	0	72	4	0	0	100
fixed	3	1	5	426033	5	3	3	1	0	1258	1	4	0	88	5	0	0	100
fixed	3	1	6	427793	6	4	4	1	0	1615	1	4	0	96	6	0	0	100
fixed	3	1	7	429889	3	1	1	1	0	742	1	4	0	72	7	0	0	100
fixed	3	1	8	431021	2	3	3	1	0	903	1	4	0	88	8	0	0	100
fixed	3	1	9	432728	3	2	2	1	0	790	1	4	0	80	9	0	0	100
fixed	3	1	10	434352	1	4	4	1	0	777	1	4	0	96	10	0	0	100
fixed	3	1	11	435729	5	2	2	1	0	1207	1	4	0	80	11	0	0	100
fixed	3	1	12	437822	4	3	3	1	0	1023	1	4	0	88	12	0	0	100
fixed	3	2	1	439797	4	1	1	1	0	811	1	4	0	72	13	0	0	100
fixed	3	2	2	441650	1	2	2	1	0	2116	1	4	0	80	14	0	0	100
fixed	3	2	3	444477	6	4	4	1	0	860	1	4	0	96	15	0	0	100
fixed	3	2	4	446035	2	1	1	1	0	859	1	4	0	72	16	0	0	100
fixed	3	2	5	447741	5	3	0	1	2	0	3	4	0	88	16	0	1	94
fixed	3	2	6	450856	6	4	4	1	0	966	1	4	0	96	17	0	1	94
fixed	3	2	7	452209	3	1	1	1	0	693	1	4	0	72	18	0	1	95
fixed	3	2	8	453773	2	3	3	1	0	987	1	4	0	88	19	0	1	95
fixed	3	2	9	455503	3	2	2	1	0	993	1	4	0	80	20	0	1	95
fixed	3	2	10	456852	1	4	4	1	0	737	1	4	0	96	21	0	1	95
fixed	3	2	11	458447	5	2	2	1	0	1077	1	4	0	80	22	0	1	96
fixed	3	2	12	460159	4	3	3	1	0	797	1	4	0	88	23	0	1	96
fixed	3	3	1	461517	4	1	1	1	0	771	1	4	0	72	24	0	1	96
fixed	3	3	2	462986	1	2	2	1	0	1084	1	4	0	80	25	0	1	96
fixed	3	3	3	464868	6	4	4	1	0	1029	1	4	0	96	26	0	1	96
fixed	3	3	4	466760	2	1	1	1	0	1989	1	4	0	72	27	0	1	96
fixed	3	3	5	469496	5	3	3	1	0	1129	1	4	0	88	28	0	1	97
fixed	3	3	6	471582	6	4	4	1	0	833	1	4	0	96	29	0	1	97
fixed	3	3	7	472757	3	1	1	1	0	1967	1	4	0	72	30	0	1	97
fixed	3	3	8	475352	2	3	3	1	0	1025	1	4	0	88	31	0	1	97
fixed	3	3	9	477087	3	2	2	1	0	895	1	4	0	80	32	0	1	97
fixed	3	3	10	478649	1	4	4	1	0	749	1	4	0	96	33	0	1	97
fixed	3	3	11	479722	5	2	2	1	0	1200	1	4	0	80	34	0	1	97
fixed	3	3	12	481440	4	3	3	1	0	911	1	4	0	88	35	0	1	97
fixed	3	4	1	483187	4	1	1	1	0	1597	1	4	0	72	36	0	1	97
fixed	3	4	2	485498	1	2	2	1	0	995	1	4	0	80	37	0	1	97
fixed	3	4	3	486850	6	4	4	1	0	874	1	4	0	96	38	0	1	97
fixed	3	4	4	488415	2	1	1	1	0	1015	1	4	0	72	39	0	1	98
fixed	3	4	5	490131	5	3	0	0	2	0	3	4	0	88	39	0	2	95
fixed	3	4	6	492934	6	4	4	2	0	776	2	4	0	96	40	0	2	95
fixed	3	4	7	494071	3	1	1	1	0	624	1	4	0	72	41	0	2	95
fixed	3	4	8	495485	2	3	3	1	0	852	1	4	0	88	42	0	2	95
fixed	3	4	9	496744	3	2	2	1	0	855	1	4	0	80	43	0	2	96
fixed	3	4	10	497946	1	4	4	1	0	692	1	4	0	96	44	0	2	96
fixed	3	4	11	499495	5	2	2	1	0	778	1	4	0	80	45	0	2	96
fixed	3	4	12	501157	4	3	3	1	0	868	1	4	0	88	46	0	2	96
fixed	3	5	1	503136	4	1	1	1	0	704	1	4	0	72	47	0	2	96
fixed	3	5	2	504232	1	2	2	1	0	1026	1	4	0	80	48	0	2	96
fixed	3	5	3	505818	6	4	4	1	0	1047	1	4	0	96	49	0	2	96
fixed	3	5	4	507787	2	1	1	1	0	699	1	4	0	72	50	0	2	96
fixed	3	5	5	509138	5	3	3	1	0	986	1	4	0	88	51	0	2	96
fixed	3	5	6	510984	6	4	4	1	0	836	1	4	0	96	52	0	2	96
fixed	3	5	7	512742	3	1	1	1	0	721	1	4	0	72	53	0	2	96
fixed	3	5	8	513829	2	3	3	1	0	971	1	4	0	88	54	0	2	96
fixed	3	5	9	515403	3	2	2	1	0	888	1	4	0	80	55	0	2	96
fixed	3	5	10	517293	1	4	4	1	0	816	1	4	0	96	56	0	2	97
fixed	3	5	11	518453	5	2	2	1	0	1192	1	4	0	80	57	0	2	97
fixed	3	5	12	520653	4	3	3	1	0	962	1	4	0	88	58	0	2	97
fixed	3	6	1	522651	4	1	1	1	0	1077	1	4	0	72	59	0	2	97
fixed	3	6	2	524528	1	2	2	1	0	1150	1	4	0	80	60	0	2	97
fixed	3	6	3	526613	6	4	4	1	0	1414	1	4	0	96	61	0	2	97
fixed	3	6	4	528899	2	1	1	1	0	821	1	4	0	72	62	0	2	97
fixed	3	6	5	530425	5	3	3	1	0	1292	1	4	0	88	63	0	2	97
fixed	3	6	6	532338	6	4	4	1	0	1700	1	4	0	96	64	0	2	97
fixed	3	6	7	534782	3	1	1	1	0	748	1	4	0	72	65	0	2	97
fixed	3	6	8	536326	2	3	3	1	0	1002	1	4	0	88	66	0	2	97
fixed	3	6	9	537708	3	2	2	1	0	768	1	4	0	80	67	0	2	97
fixed	3	6	10	538943	1	4	4	1	0	787	1	4	0	96	68	0	2	97
fixed	3	6	11	540195	5	2	2	1	0	910	1	4	0	80	69	0	2	97
fixed	3	6	12	541488	4	3	3	1	0	840	1	4	0	88	70	0	2	97
fixed	3	7	1	543452	4	1	1	1	0	1060	1	4	0	72	71	0	2	97
fixed	3	7	2	545176	1	2	2	1	0	1483	1	4	0	80	72	0	2	97
fixed	3	7	3	547286	6	4	4	1	0	1002	1	4	0	96	73	0	2	97
fixed	3	7	4	548719	2	1	1	1	0	1557	1	4	0	72	74	0	2	97
fixed	3	7	5	551317	5	3	3	1	0	1144	1	4	0	88	75	0	2	97
fixed	3	7	6	553377	6	4	4	1	0	1048	1	4	0	96	76	0	2	97
fixed	3	7	7	555061	3	1	1	1	0	1353	1	4	0	72	77	0	2	97
fixed	3	7	8	556754	2	3	3	1	0	1001	1	4	0	88	78	0	2	98
fixed	3	7	9	558233	3	2	2	1	0	1363	1	4	0	80	79	0	2	98
fixed	3	7	10	559941	1	4	4	1	0	794	1	4	0	96	80	0	2	98
fixed	3	7	11	561477	5	2	2	1	0	1905	1	4	0	80	81	0	2	98
fixed	3	7	12	563781	4	3	3	1	0	920	1	4	0	88	82	0	2	98
fixed	3	8	1	565389	4	1	1	1	0	947	1	4	0	72	83	0	2	98
fixed	3	8	2	567049	1	2	0	0	2	0	3	4	0	80	83	0	3	97
fixed	3	8	3	570170	6	4	4	1	0	801	1	4	0	96	84	0	3	97
fixed	3	8	4	571500	2	1	1	1	0	769	1	4	0	72	85	0	3	97
fixed	3	8	5	572977	5	3	3	1	0	930	1	4	0	88	86	0	3	97
fixed	3	8	6	574399	6	4	4	1	0	838	1	4	0	96	87	0	3	97
fixed	3	8	7	576183	3	1	1	1	0	874	1	4	0	72	88	0	3	97
fixed	3	8	8	577926	2	3	3	1	0	976	1	4	0	88	89	0	3	97
fixed	3	8	9	579222	3	2	2	1	0	921	1	4	0	80	90	0	3	97
fixed	3	8	10	580505	1	4	4	1	0	827	1	4	0	96	91	0	3	97
fixed	3	8	11	582022	5	2	2	1	0	1115	1	4	0	80	92	0	3	97
fixed	3	8	12	583539	4	3	3	1	0	771	1	4	0	88	93	0	3	97
fixed	3	9	1	585538	4	1	1	1	0	870	1	4	0	72	94	0	3	97
fixed	3	9	2	586988	1	2	2	1	0	1345	1	4	0	80	95	0	3	97
fixed	3	9	3	589312	6	4	4	1	0	1678	1	4	0	96	96	0	3	97
fixed	3	9	4	591338	2	1	1	1	0	816	1	4	0	72	97	0	3	97
fixed	3	9	5	592656	5	3	3	1	0	936	1	4	0	88	98	0	3	97
fixed	3	9	6	593952	6	4	4	1	0	1050	1	4	0	96	99	0	3	97
fixed	3	9	7	595471	3	1	1	1	0	1961	1	4	0	72	100	0	3	97
fixed	3	9	8	598274	2	3	3	1	0	1074	1	4	0	88	101	0	3	97
fixed	3	9	9	599641	3	2	2	1	0	752	1	4	0	80	102	0	3	97
fixed	3	9	10	601149	1	4	4	1	0	593	1	4	0	96	103	0	3	97
fixed	3	9	11	602535	5	2	2	1	0	1622	1	4	0	80	104	0	3	97
fixed	3	9	12	605029	4	3	3	1	0	853	1	4	0	88	105	0	3	97
fixed	3	10	1	606790	4	1	1	1	0	938	1	4	0	72	106	0	3	97
fixed	3	10	2	608224	1	2	2	1	0	1309	1	4	0	80	107	0	3	97
fixed	3	10	3	610174	6	4	4	1	0	859	1	4	0	96	108	0	3	97
fixed	3	10	4	611414	2	1	1	1	0	1742	1	4	0	72	109	0	3	97
fixed	3	10	5	613591	5	3	3	1	0	937	1	4	0	88	110	0	3	97
fixed	3	10	6	615406	6	4	4	1	0	1461	1	4	0	96	111	0	3	97
fixed	3	10	7	617626	3	1	1	1	0	1535	1	4	0	72	112	0	3	97
fixed	3	10	8	619997	2	3	3	1	0	1002	1	4	0	88	113	0	3	97
fixed	3	10	9	621725	3	2	2	1	0	729	1	4	0	80	114	0	3	97
fixed	3	10	10	623219	1	4	4	1	0	874	1	4	0	96	115	0	3	97
fixed	3	10	11	624720	5	2	2	1	0	1114	1	4	0	80	116	0	3	97
fixed	3	10	12	626187	4	3	3	1	0	860	1	4	0	88	117	0	3	98
fixed	4	1	1	742956	4	1	1	1	0	1298	1	4	0	104	1	0	0	100
fixed	4	1	2	744868	1	2	2	1	0	881	1	4	0	112	2	0	0	100
fixed	4	1	3	746037	6	4	4	1	0	744	1	4	0	128	3	0	0	100
fixed	4	1	4	747521	2	1	1	1	0	745	1	4	0	104	4	0	0	100
fixed	4	1	5	749051	5	3	3	1	0	1257	1	4	0	120	5	0	0	100
fixed	4	1	6	750704	6	4	4	1	0	714	1	4	0	128	6	0	0	100
fixed	4	1	7	752252	3	1	1	1	0	825	1	4	0	104	7	0	0	100
fixed	4	1	8	753832	2	3	0	1	2	0	3	4	0	120	7	0	1	88
fixed	4	1	9	757274	3	2	2	1	0	828	1	4	0	112	8	0	1	89
fixed	4	1	10	758755	1	4	4	1	0	709	1	4	0	128	9	0	1	90
fixed	4	1	11	760161	5	2	2	1	0	874	1	4	0	112	10	0	1	91
fixed	4	1	12	761849	4	3	3	1	0	810	1	4	0	120	11	0	1	92
fixed	4	2	1	763842	4	1	1	1	0	742	1	4	0	104	12	0	1	92
fixed	4	2	2	765184	1	2	2	1	0	861	1	4	0	112	13	0	1	93
fixed	4	2	3	766967	6	4	4	1	0	657	1	4	0	128	14	0	1	93
fixed	4	2	4	768062	2	1	1	1	0	731	1	4	0	104	15	0	1	94
fixed	4	2	5	769747	5	3	3	1	0	908	1	4	0	120	16	0	1	94
fixed	4	2	6	771198	6	4	4	1	0	766	1	4	0	128	17	0	1	94
fixed	4	2	7	772513	3	1	1	1	0	814	1	4	0	104	18	0	1	95
fixed	4	2	8	773803	2	3	3	1	0	1008	1	4	0	120	19	0	1	95
fixed	4	2	9	775174	3	2	2	1	0	942	1	4	0	112	20	0	1	95
fixed	4	2	10	776885	1	4	4	1	0	790	1	4	0	128	21	0	1	95
fixed	4	2	11	778278	5	2	2	1	0	938	1	4	0	112	22	0	1	96
fixed	4	2	12	780033	4	3	3	1	0	944	1	4	0	120	23	0	1	96
fixed	4	3	1	781937	4	1	1	1	0	751	1	4	0	104	24	0	1	96
fixed	4	3	2	783491	1	2	2	1	0	1197	1	4	0	112	25	0	1	96
fixed	4	3	3	785468	6	4	4	1	0	746	1	4	0	128	26	0	1	96
fixed	4	3	4	786982	2	1	1	1	0	753	1	4	0	104	27	0	1	96
fixed	4	3	5	788074	5	3	3	1	0	1067	1	4	0	120	28	0	1	97
fixed	4	3	6	790062	6	4	4	1	0	863	1	4	0	128	29	0	1	97
fixed	4	3	7	791641	3	1	1	1	0	845	1	4	0	104	30	0	1	97
fixed	4	3	8	793016	2	3	3	1	0	1026	1	4	0	120	31	0	1	97
fixed	4	3	9	794849	3	2	2	1	0	965	1	4	0	112	32	0	1	97
fixed	4	3	10	796534	1	4	0	0	2	0	3	4	0	128	32	0	2	94
fixed	4	3	11	799953	5	2	0	0	2	0	3	4	0	112	32	0	3	91
fixed	4	3	12	802749	4	3	0	0	2	0	3	4	0	120	32	0	4	89
fixed	4	4	1	805996	4	1	1	1	0	1052	1	4	0	104	33	0	4	89
fixed	4	4	2	807528	1	2	2	1	0	820	1	4	0	112	34	0	4	89
fixed	4	4	3	809057	6	4	4	1	0	779	1	4	0	128	35	0	4	90
fixed	4	4	4	810246	2	1	1	2	0	1216	2	4	0	104	36	0	4	90
fixed	4	4	5	812276	5	3	3	1	0	1066	1	4	0	120	37	0	4	90
fixed	4	4	6	813638	6	4	4	1	0	1017	1	4	0	128	38	0	4	90
fixed	4	4	7	815178	3	1	1	1	0	704	1	4	0	104	39	0	4	91
fixed	4	4	8	816711	2	3	3	1	0	1102	1	4	0	120	40	0	4	91
fixed	4	4	9	818118	3	2	2	1	0	851	1	4	0	112	41	0	4	91
fixed	4	4	10	819445	1	4	4	1	0	730	1	4	0	128	42	0	4	91
fixed	4	4	11	820870	5	2	2	1	0	1006	1	4	0	112	43	0	4	91
fixed	4	4	12	822446	4	3	3	1	0	868	1	4	0	120	44	0	4	92
fixed	4	5	1	824157	4	1	1	1	0	915	1	4	0	104	45	0	4	92
fixed	4	5	2	826053	1	2	2	1	0	1195	1	4	0	112	46	0	4	92
fixed	4	5	3	828229	6	4	4	1	0	823	1	4	0	128	47	0	4	92
fixed	4	5	4	829501	2	1	1	1	0	1104	1	4	0	104	48	0	4	92
fixed	4	5	5	830986	5	3	3	1	0	2210	1	4	0	120	49	0	4	92
fixed	4	5	6	833589	6	4	4	1	0	900	1	4	0	128	50	0	4	93
fixed	4	5	7	835434	3	1	1	1	0	869	1	4	0	104	51	0	4	93
fixed	4	5	8	836853	2	3	3	1	0	1297	1	4	0	120	52	0	4	93
fixed	4	5	9	838946	3	2	2	1	0	785	1	4	0	112	53	0	4	93
fixed	4	5	10	840226	1	4	4	1	0	683	1	4	0	128	54	0	4	93
fixed	4	5	11	841732	5	2	2	1	0	986	1	4	0	112	55	0	4	93
fixed	4	5	12	843369	4	3	3	1	0	981	1	4	0	120	56	0	4	93
fixed	4	6	1	845192	4	1	1	1	0	696	1	4	0	104	57	0	4	93
fixed	4	6	2	846542	1	2	2	1	0	959	1	4	0	112	58	0	4	94
fixed	4	6	3	848153	6	4	4	1	0	723	1	4	0	128	59	0	4	94
fixed	4	6	4	849590	2	1	1	1	0	670	1	4	0	104	60	0	4	94
fixed	4	6	5	850759	5	3	3	1	0	916	1	4	0	120	61	0	4	94
fixed	4	6	6	852220	6	4	4	1	0	775	1	4	0	128	62	0	4	94
fixed	4	6	7	853746	3	1	1	1	0	710	1	4	0	104	63	0	4	94
fixed	4	6	8	854787	2	3	3	1	0	1010	1	4	0	120	64	0	4	94
fixed	4	6	9	856333	3	2	2	1	0	728	1	4	0	112	65	0	4	94
fixed	4	6	10	857945	1	4	4	1	0	1084	1	4	0	128	66	0	4	94
fixed	4	6	11	859369	5	2	2	1	0	1064	1	4	0	112	67	0	4	94
fixed	4	6	12	861025	4	3	3	1	0	1178	1	4	0	120	68	0	4	94
fixed	4	7	1	863203	4	1	1	1	0	837	1	4	0	104	69	0	4	95
fixed	4	7	2	864748	1	2	2	1	0	1356	1	4	0	112	70	0	4	95
fixed	4	7	3	866867	6	4	4	1	0	1610	1	4	0	128	71	0	4	95
fixed	4	7	4	869166	2	1	1	1	0	704	1	4	0	104	72	0	4	95
fixed	4	7	5	870622	5	3	3	1	0	819	1	4	0	120	73	0	4	95
fixed	4	7	6	872413	6	4	4	1	0	831	1	4	0	128	74	0	4	95
fixed	4	7	7	874078	3	1	1	1	0	704	1	4	0	104	75	0	4	95
fixed	4	7	8	875281	2	3	3	1	0	909	1	4	0	120	76	0	4	95
fixed	4	7	9	877205	3	2	2	1	0	884	1	4	0	112	77	0	4	95
fixed	4	7	10	878581	1	4	4	1	0	778	1	4	0	128	78	0	4	95
fixed	4	7	11	880290	5	2	2	1	0	1002	1	4	0	112	79	0	4	95
fixed	4	7	12	881818	4	3	3	1	0	713	1	4	0	120	80	0	4	95
fixed	4	8	1	883336	4	1	1	1	0	936	1	4	0	104	81	0	4	95
fixed	4	8	2	884929	1	2	2	1	0	1013	1	4	0	112	82	0	4	95
fixed	4	8	3	886724	6	4	4	1	0	713	1	4	0	128	83	0	4	95
fixed	4	8	4	888376	2	1	1	1	0	1003	1	4	0	104	84	0	4	95
fixed	4	8	5	890083	5	3	3	1	0	1202	1	4	0	120	85	0	4	96
fixed	4	8	6	892007	6	4	4	1	0	1065	1	4	0	128	86	0	4	96
fixed	4	8	7	894068	3	1	1	1	0	682	1	4	0	104	87	0	4	96
fixed	4	8	8	895337	2	3	3	1	0	1252	1	4	0	120	88	0	4	96
fixed	4	8	9	897442	3	2	2	1	0	835	1	4	0	112	89	0	4	96
fixed	4	8	10	899068	1	4	4	1	0	1102	1	4	0	128	90	0	4	96
fixed	4	8	11	900489	5	2	2	1	0	970	1	4	0	112	91	0	4	96
fixed	4	8	12	902395	4	3	3	1	0	898	1	4	0	120	92	0	4	96
fixed	4	9	1	904036	4	1	1	1	0	988	1	4	0	104	93	0	4	96
fixed	4	9	2	906071	1	2	2	1	0	1478	1	4	0	112	94	0	4	96
fixed	4	9	3	908344	6	4	4	1	0	734	1	4	0	128	95	0	4	96
fixed	4	9	4	909724	2	1	1	1	0	1299	1	4	0	104	96	0	4	96
fixed	4	9	5	911970	5	3	3	1	0	1427	1	4	0	120	97	0	4	96
fixed	4	9	6	914030	6	4	4	2	0	1516	2	4	0	128	98	0	4	96
fixed	4	9	7	916462	3	1	1	1	0	750	1	4	0	104	99	0	4	96
fixed	4	9	8	917838	2	3	3	1	0	947	1	4	0	120	100	0	4	96
fixed	4	9	9	919452	3	2	2	1	0	735	1	4	0	112	101	0	4	96
fixed	4	9	10	921216	1	4	4	1	0	1036	1	4	0	128	102	0	4	96
fixed	4	9	11	922584	5	2	2	1	0	858	1	4	0	112	103	0	4	96
fixed	4	9	12	923860	4	3	3	1	0	932	1	4	0	120	104	0	4	96
fixed	4	10	1	925756	4	1	1	2	0	1284	2	4	0	104	105	0	4	96
fixed	4	10	2	928037	1	2	2	1	0	851	1	4	0	112	106	0	4	96
fixed	4	10	3	929413	6	4	4	1	0	1009	1	4	0	128	107	0	4	96
fixed	4	10	4	931104	2	1	1	1	0	825	1	4	0	104	108	0	4	96
fixed	4	10	5	932627	5	3	3	1	0	913	1	4	0	120	109	0	4	96
fixed	4	10	6	933954	6	4	4	1	0	1273	1	4	0	128	110	0	4	96
fixed	4	10	7	935602	3	1	1	1	0	923	1	4	0	104	111	0	4	97
fixed	4	10	8	937308	2	3	3	2	0	2035	2	4	0	120	112	0	4	97
fixed	4	10	9	939628	3	2	2	1	0	912	1	4	0	112	113	0	4	97
fixed	4	10	10	941506	1	4	4	1	0	641	1	4	0	128	114	0	4	97
fixed	4	10	11	943141	5	2	2	1	0	916	1	4	0	112	115	0	4	97
fixed	4	10	12	944992	4	3	3	1	0	821	1	4	0	120	116	0	4	97
fixed	5	1	1	947224	4	1	1	1	0	1110	1	4	0	136	1	0	0	100
fixed	5	1	2	948730	1	2	2	1	0	1639	1	4	0	144	2	0	0	100
fixed	5	1	3	950714	6	4	4	1	0	1099	1	4	0	160	3	0	0	100
fixed	5	1	4	952363	2	1	1	1	0	773	1	4	0	136	4	0	0	100
fixed	5	1	5	953595	5	3	3	1	0	865	1	4	0	152	5	0	0	100
fixed	5	1	6	954821	6	4	4	1	0	837	1	4	0	160	6	0	0	100
fixed	5	1	7	956344	3	1	1	1	0	1653	1	4	0	136	7	0	0	100
fixed	5	1	8	958533	2	3	3	1	0	1272	1	4	0	152	8	0	0	100
fixed	5	1	9	960702	3	2	2	1	0	788	1	4	0	144	9	0	0	100
fixed	5	1	10	962144	1	4	4	1	0	1798	1	4	0	160	10	0	0	100
fixed	5	1	11	964245	5	2	2	1	0	926	1	4	0	144	11	0	0	100
fixed	5	1	12	965572	4	3	3	1	0	837	1	4	0	152	12	0	0	100
fixed	5	2	1	967693	4	1	1	1	0	763	1	4	0	136	13	0	0	100
fixed	5	2	2	969338	1	2	2	1	0	926	1	4	0	144	14	0	0	100
fixed	5	2	3	970811	6	4	4	1	0	1248	1	4	0	160	15	0	0	100
fixed	5	2	4	972446	2	1	1	1	0	754	1	4	0	136	16	0	0	100
fixed	5	2	5	973656	5	3	3	1	0	871	1	4	0	152	17	0	0	100
fixed	5	2	6	975060	6	4	4	1	0	867	1	4	0	160	18	0	0	100
fixed	5	2	7	976628	3	1	1	1	0	809	1	4	0	136	19	0	0	100
fixed	5	2	8	978268	2	3	3	1	0	2259	1	4	0	152	20	0	0	100
fixed	5	2	9	981199	3	2	2	1	0	912	1	4	0	144	21	0	0	100
fixed	5	2	10	982705	1	4	4	1	0	1976	1	4	0	160	22	0	0	100
fixed	5	2	11	985119	5	2	2	1	0	801	1	4	0	144	23	0	0	100
fixed	5	2	12	986443	4	3	3	1	0	841	1	4	0	152	24	0	0	100
fixed	5	3	1	988544	4	1	0	1	2	0	3	4	0	136	24	0	1	96
fixed	5	3	2	991456	1	2	2	1	0	829	1	4	0	144	25	0	1	96
fixed	5	3	3	992667	6	4	4	1	0	794	1	4	0	160	26	0	1	96
fixed	5	3	4	993794	2	1	1	1	0	738	1	4	0	136	27	0	1	96
fixed	5	3	5	994908	5	3	3	1	0	1027	1	4	0	152	28	0	1	97
fixed	5	3	6	996241	6	4	4	1	0	803	1	4	0	160	29	0	1	97
fixed	5	3	7	997816	3	1	1	1	0	1119	1	4	0	136	30	0	1	97
fixed	5	3	8	999921	2	3	3	1	0	1094	1	4	0	152	31	0	1	97
fixed	5	3	9	1001435	3	2	2	1	0	791	1	4	0	144	32	0	1	97
fixed	5	3	10	1002634	1	4	4	1	0	1468	1	4	0	160	33	0	1	97
fixed	5	3	11	1004669	5	2	2	1	0	1637	1	4	0	144	34	0	1	97
fixed	5	3	12	1006789	4	3	3	1	0	755	1	4	0	152	35	0	1	97
fixed	5	4	1	1008760	4	1	1	1	0	1440	1	4	0	136	36	0	1	97
fixed	5	4	2	1011081	1	2	2	1	0	1014	1	4	0	144	37	0	1	97
fixed	5	4	3	1012586	6	4	4	1	0	982	1	4	0	160	38	0	1	97
fixed	5	4	4	1014394	2	1	1	1	0	1921	1	4	0	136	39	0	1	98
fixed	5	4	5	1016704	5	3	3	1	0	1272	1	4	0	152	40	0	1	98
fixed	5	4	6	1018520	6	4	4	1	0	867	1	4	0	160	41	0	1	98
fixed	5	4	7	1020040	3	1	1	1	0	810	1	4	0	136	42	0	1	98
fixed	5	4	8	1021787	2	3	3	1	0	2209	1	4	0	152	43	0	1	98
fixed	5	4	9	1024327	3	2	2	1	0	797	1	4	0	144	44	0	1	98
fixed	5	4	10	1025491	1	4	4	1	0	908	1	4	0	160	45	0	1	98
fixed	5	4	11	1027238	5	2	2	2	0	1465	2	4	0	144	46	0	1	98
fixed	5	4	12	1029548	4	3	3	1	0	1144	1	4	0	152	47	0	1	98
fixed	5	5	1	1031967	4	1	1	1	0	1121	1	4	0	136	48	0	1	98
fixed	5	5	2	1033882	1	2	0	1	2	0	3	4	0	144	48	0	2	96
fixed	5	5	3	1036959	6	4	4	1	0	894	1	4	0	160	49	0	2	96
fixed	5	5	4	1038593	2	1	1	1	0	881	1	4	0	136	50	0	2	96
fixed	5	5	5	1039831	5	3	3	1	0	1540	1	4	0	152	51	0	2	96
fixed	5	5	6	1042055	6	4	4	1	0	870	1	4	0	160	52	0	2	96
fixed	5	5	7	1043432	3	1	1	1	0	1340	1	4	0	136	53	0	2	96
fixed	5	5	8	1045387	2	3	3	1	0	1289	1	4	0	152	54	0	2	96
fixed	5	5	9	1047534	3	2	2	1	0	926	1	4	0	144	55	0	2	96
fixed	5	5	10	1049029	1	4	4	1	0	2150	1	4	0	160	56	0	2	97
fixed	5	5	11	1051744	5	2	2	1	0	876	1	4	0	144	57	0	2	97
fixed	5	5	12	1053057	4	3	3	1	0	996	1	4	0	152	58	0	2	97
fixed	5	6	1	1055307	4	1	1	1	0	796	1	4	0	136	59	0	2	97
fixed	5	6	2	1057001	1	2	2	1	0	1221	1	4	0	144	60	0	2	97
fixed	5	6	3	1058948	6	4	4	1	0	1618	1	4	0	160	61	0	2	97
fixed	5	6	4	1060911	2	1	1	1	0	743	1	4	0	136	62	0	2	97
fixed	5	6	5	1062317	5	3	0	0	2	0	3	4	0	152	62	0	3	95
fixed	5	6	6	1065288	6	4	0	0	2	0	3	4	0	160	62	0	4	94
fixed	5	6	7	1068319	3	1	0	0	2	0	3	4	0	136	62	0	5	93
fixed	5	6	8	1071289	2	3	3	1	0	864	1	4	0	152	63	0	5	93
fixed	5	6	9	1072564	3	2	2	1	0	825	1	4	0	144	64	0	5	93
fixed	5	6	10	1074089	1	4	4	1	0	1713	1	4	0	160	65	0	5	93
fixed	5	6	11	1076093	5	2	2	1	0	900	1	4	0	144	66	0	5	93
fixed	5	6	12	1077291	4	3	3	1	0	738	1	4	0	152	67	0	5	93
fixed	5	7	1	1078815	4	1	1	1	0	817	1	4	0	136	68	0	5	93
fixed	5	7	2	1080337	1	2	0	0	2	0	3	4	0	144	68	0	6	92
fixed	5	7	3	1083455	6	4	4	1	0	749	1	4	0	160	69	0	6	92
fixed	5	7	4	1085136	2	1	1	1	0	1037	1	4	0	136	70	0	6	92
fixed	5	7	5	1086523	5	3	3	1	0	1106	1	4	0	152	71	0	6	92
fixed	5	7	6	1088086	6	4	4	1	0	768	1	4	0	160	72	0	6	92
fixed	5	7	7	1089201	3	1	1	1	0	769	1	4	0	136	73	0	6	92
fixed	5	7	8	1090635	2	3	3	1	0	1012	1	4	0	152	74	0	6	93
fixed	5	7	9	1091973	3	2	2	1	0	764	1	4	0	144	75	0	6	93
fixed	5	7	10	1093586	1	4	4	1	0	759	1	4	0	160	76	0	6	93
fixed	5	7	11	1094673	5	2	2	1	0	889	1	4	0	144	77	0	6	93
fixed	5	7	12	1096601	4	3	3	1	0	752	1	4	0	152	78	0	6	93
fixed	5	8	1	1098480	4	1	1	1	0	840	1	4	0	136	79	0	6	93
fixed	5	8	2	1099938	1	2	2	1	0	1074	1	4	0	144	80	0	6	93
fixed	5	8	3	1102032	6	4	4	1	0	746	1	4	0	160	81	0	6	93
fixed	5	8	4	1103059	2	1	1	1	0	934	1	4	0	136	82	0	6	93
fixed	5	8	5	1104835	5	3	3	1	0	1107	1	4	0	152	83	0	6	93
fixed	5	8	6	1106806	6	4	4	1	0	1463	1	4	0	160	84	0	6	93
fixed	5	8	7	1108777	3	1	1	1	0	756	1	4	0	136	85	0	6	93
fixed	5	8	8	1110394	2	3	3	1	0	1647	1	4	0	152	86	0	6	93
fixed	5	8	9	1113062	3	2	2	1	0	975	1	4	0	144	87	0	6	94
fixed	5	8	10	1114906	1	4	4	1	0	1224	1	4	0	160	88	0	6	94
fixed	5	8	11	1116818	5	2	2	1	0	2080	1	4	0	144	89	0	6	94
fixed	5	8	12	1119561	4	3	3	1	0	828	1	4	0	152	90	0	6	94
fixed	5	9	1	1121169	4	1	1	1	0	2023	1	4	0	136	91	0	6	94
fixed	5	9	2	1124191	1	2	2	1	0	975	1	4	0	144	92	0	6	94
fixed	5	9	3	1125973	6	4	4	1	0	1244	1	4	0	160	93	0	6	94
fixed	5	9	4	1127613	2	1	1	1	0	942	1	4	0	136	94	0	6	94
fixed	5	9	5	1129165	5	3	3	1	0	2357	1	4	0	152	95	0	6	94
fixed	5	9	6	1131857	6	4	4	1	0	835	1	4	0	160	96	0	6	94
fixed	5	9	7	1133651	3	1	1	1	0	790	1	4	0	136	97	0	6	94
fixed	5	9	8	1135260	2	3	3	1	0	1130	1	4	0	152	98	0	6	94
fixed	5	9	9	1136884	3	2	2	1	0	814	1	4	0	144	99	0	6	94
fixed	5	9	10	1138210	1	4	0	0	2	0	3	4	0	160	99	0	7	93
fixed	5	9	11	1141012	5	2	0	0	2	0	3	4	0	144	99	0	8	93
fixed	5	9	12	1143844	4	3	3	2	0	2007	2	4	0	152	100	0	8	93
fixed	5	10	1	1146565	4	1	1	1	0	707	1	4	0	136	101	0	8	93
fixed	5	10	2	1148235	1	2	2	1	0	1164	1	4	0	144	102	0	8	93
fixed	5	10	3	1149712	6	4	4	1	0	902	1	4	0	160	103	0	8	93
fixed	5	10	4	1151281	2	1	1	1	0	796	1	4	0	136	104	0	8	93
fixed	5	10	5	1152734	5	3	3	1	0	950	1	4	0	152	105	0	8	93
fixed	5	10	6	1153998	6	4	4	1	0	1712	1	4	0	160	106	0	8	93
fixed	5	10	7	1156741	3	1	1	1	0	788	1	4	0	136	107	0	8	93
fixed	5	10	8	1158469	2	3	3	1	0	843	1	4	0	152	108	0	8	93
fixed	5	10	9	1159932	3	2	2	1	0	805	1	4	0	144	109	0	8	93
fixed	5	10	10	1161038	1	4	4	1	0	982	1	4	0	160	110	0	8	93
fixed	5	10	11	1162728	5	2	2	1	0	1223	1	4	0	144	111	0	8	93
fixed	5	10	12	1164508	4	3	3	1	0	723	1	4	0	152	112	0	8	93
random	6	1	1	1280825	6	1	1	1	0	1108	1	4	0	168	1	0	0	100
random	6	1	2	1282617	4	4	4	1	0	841	1	4	0	192	2	0	0	100
random	6	1	3	1283782	2	2	2	1	0	1199	1	4	0	176	3	0	0	100
random	6	1	4	1285513	3	3	3	1	0	1014	1	4	0	184	4	0	0	100
random	6	1	5	1286894	5	2	2	1	0	836	1	4	0	176	5	0	0	100
random	6	1	6	1288070	1	4	4	1	0	786	1	4	0	192	6	0	0	100
random	6	1	7	1289491	6	1	1	1	0	774	1	4	0	168	7	0	0	100
random	6	1	8	1291295	2	3	3	1	0	906	1	4	0	184	8	0	0	100
random	6	1	9	1292898	4	2	2	1	0	606	1	4	0	176	9	0	0	100
random	6	1	10	1294445	1	1	1	1	0	940	1	4	0	168	10	0	0	100
random	6	1	11	1296021	5	4	4	1	0	673	1	4	0	192	11	0	0	100
random	6	1	12	1297119	3	3	3	1	0	907	1	4	0	184	12	0	0	100
random	6	1	13	1298788	5	2	2	1	0	708	1	4	0	176	13	0	0	100
random	6	1	14	1300264	1	4	4	1	0	949	1	4	0	192	14	0	0	100
random	6	1	15	1301530	3	1	1	1	0	1008	1	4	0	168	15	0	0	100
random	6	1	16	1302867	4	3	3	1	0	919	1	4	0	184	16	0	0	100
random	6	1	17	1304278	6	4	4	1	0	804	1	4	0	192	17	0	0	100
random	6	1	18	1305905	2	1	1	1	0	766	1	4	0	168	18	0	0	100
random	6	1	19	1307153	5	3	3	1	0	946	1	4	0	184	19	0	0	100
random	6	1	20	1308650	2	2	2	1	0	746	1	4	0	176	20	0	0	100
random	6	1	21	1310087	3	3	3	1	0	1205	1	4	0	184	21	0	0	100
random	6	1	22	1312046	6	1	1	1	0	857	1	4	0	168	22	0	0	100
random	6	1	23	1313465	4	2	2	1	0	1870	1	4	0	176	23	0	0	100
random	6	1	24	1315618	1	4	4	1	0	731	1	4	0	192	24	0	0	100
random	6	1	25	1316899	4	3	3	1	0	1277	1	4	0	184	25	0	0	100
random	6	1	26	1318945	2	1	1	1	0	822	1	4	0	168	26	0	0	100
random	6	1	27	1320733	5	2	2	1	0	1170	1	4	0	176	27	0	0	100
random	6	1	28	1322334	6	4	4	1	0	823	1	4	0	192	28	0	0	100
random	6	1	29	1323687	1	3	3	1	0	1037	1	4	0	184	29	0	0	100
random	6	1	30	1325057	5	2	2	1	0	867	1	4	0	176	30	0	0	100
random	6	1	31	1326943	2	1	1	1	0	1171	1	4	0	168	31	0	0	100
random	6	1	32	1329054	3	3	0	0	2	0	3	4	0	184	31	0	1	97
random	6	1	33	1331867	6	4	4	1	0	747	1	4	0	192	32	0	1	97
random	6	1	34	1333583	4	2	2	1	0	906	1	4	0	176	33	0	1	97
random	6	1	35	1335154	3	4	4	1	0	936	1	4	0	192	34	0	1	97
random	6	1	36	1336669	1	1	1	1	0	743	1	4	0	168	35	0	1	97
random	6	1	37	1338452	3	4	4	1	0	1052	1	4	0	192	36	0	1	97
random	6	1	38	1340166	5	3	3	1	0	1236	1	4	0	184	37	0	1	97
random	6	1	39	1341996	6	1	1	1	0	1566	1	4	0	168	38	0	1	97
random	6	1	40	1343934	1	2	2	1	0	1380	1	4	0	176	39	0	1	98
random	6	1	41	1346071	2	3	3	1	0	825	1	4	0	184	40	0	1	98
random	6	1	42	1347375	4	4	4	1	0	1410	1	4	0	192	41	0	1	98
random	6	1	43	1349715	1	2	2	1	0	871	1	4	0	176	42	0	1	98
random	6	1	44	1351133	6	3	3	1	0	851	1	4	0	184	43	0	1	98
random	6	1	45	1352338	3	1	1	1	0	1728	1	4	0	168	44	0	1	98
random	6	1	46	1354655	4	4	4	1	0	1158	1	4	0	192	45	0	1	98
random	6	1	47	1356408	2	2	2	1	0	1220	1	4	0	176	46	0	1	98
random	6	1	48	1357935	5	1	1	1	0	1451	1	4	0	168	47	0	1	98
random	6	1	49	1360038	2	3	3	1	0	1561	1	4	0	184	48	0	1	98
random	6	1	50	1362593	3	1	1	1	0	1237	1	4	0	168	49	0	1	98
random	6	1	51	1364198	1	4	4	1	0	1145	1	4	0	192	50	0	1	98
random	6	1	52	1365884	5	3	3	1	0	2266	1	4	0	184	51	0	1	98
random	6	1	53	1368889	3	2	2	1	0	699	1	4	0	176	52	0	1	98
random	6	1	54	1370257	6	4	4	1	0	785	1	4	0	192	53	0	1	98
random	6	1	55	1371693	4	2	2	1	0	1532	1	4	0	176	54	0	1	98
random	6	1	56	1373855	1	1	1	1	0	1744	1	4	0	168	55	0	1	98
random	6	1	57	1376627	5	4	4	1	0	1147	1	4	0	192	56	0	1	98
random	6	1	58	1378749	2	1	0	0	2	0	3	4	0	168	56	0	2	97
random	6	1	59	1381853	6	2	0	1	2	0	3	4	0	176	56	0	3	95
random	6	1	60	1385086	4	3	0	0	2	0	3	4	0	184	56	0	4	93
random	6	1	61	1388776	1	2	2	1	0	776	1	4	0	176	57	0	4	93
random	6	1	62	1390188	6	4	4	1	0	741	1	4	0	192	58	0	4	94
random	6	1	63	1391852	4	1	1	1	0	830	1	4	0	168	59	0	4	94
random	6	1	64	1393155	2	2	2	1	0	1063	1	4	0	176	60	0	4	94
random	6	1	65	1395016	4	3	3	1	0	1160	1	4	0	184	61	0	4	94
random	6	1	66	1396504	3	1	1	1	0	729	1	4	0	168	62	0	4	94
random	6	1	67	1397521	1	3	3	1	0	1214	1	4	0	184	63	0	4	94
random	6	1	68	1399656	5	4	4	1	0	908	1	4	0	192	64	0	4	94
random	6	1	69	1401134	2	2	2	1	0	845	1	4	0	176	65	0	4	94
random	6	1	70	1402780	3	1	1	1	0	895	1	4	0	168	66	0	4	94
random	6	1	71	1404150	5	4	4	1	0	789	1	4	0	192	67	0	4	94
random	6	1	72	1405505	6	3	3	1	0	940	1	4	0	184	68	0	4	94
random	6	1	73	1407572	2	1	1	1	0	868	1	4	0	168	69	0	4	95
random	6	1	74	1409069	5	3	3	1	0	965	1	4	0	184	70	0	4	95
random	6	1	75	1410594	1	4	4	1	0	820	1	4	0	192	71	0	4	95
random	6	1	76	1412439	6	2	2	1	0	990	1	4	0	176	72	0	4	95
random	6	1	77	1414278	2	1	1	1	0	1032	1	4	0	168	73	0	4	95
random	6	1	78	1416040	4	4	4	1	0	805	1	4	0	192	74	0	4	95
random	6	1	79	1417194	3	2	2	1	0	1093	1	4	0	176	75	0	4	95
random	6	1	80	1418704	4	3	3	1	0	949	1	4	0	184	76	0	4	95
random	6	1	81	1419940	1	4	0	0	2	0	3	4	0	192	76	0	5	94
random	6	1	82	1423476	5	1	1	1	0	722	1	4	0	168	77	0	5	94
random	6	1	83	1424743	3	2	2	1	0	1461	1	4	0	176	78	0	5	94
random	6	1	84	1427137	6	3	3	1	0	968	1	4	0	184	79	0	5	94
random	6	1	85	1428957	3	2	2	1	0	1602	1	4	0	176	80	0	5	94
random	6	1	86	1430947	1	3	3	1	0	806	1	4	0	184	81	0	5	94
random	6	1	87	1432714	4	4	4	1	0	1484	1	4	0	192	82	0	5	94
random	6	1	88	1435162	2	1	1	1	0	1716	1	4	0	168	83	0	5	94
random	6	1	89	1437816	6	4	4	2	0	2123	2	4	0	192	84	0	5	94
random	6	1	90	1440288	3	3	3	1	0	963	1	4	0	184	85	0	5	94
random	6	1	91	1441779	5	4	4	1	0	844	1	4	0	192	86	0	5	95
random	6	1	92	1443356	1	2	2	1	0	817	1	4	0	176	87	0	5	95
random	6	1	93	1445158	5	1	1	2	0	1037	2	4	0	168	88	0	5	95
random	6	1	94	1446753	4	3	3	1	0	1001	1	4	0	184	89	0	5	95
random	6	1	95	1448425	6	1	1	1	0	890	1	4	0	168	90	0	5	95
random	6	1	96	1450101	2	2	2	1	0	1147	1	4	0	176	91	0	5	95
random	6	1	97	1452064	4	3	3	1	0	1816	1	4	0	184	92	0	5	95
random	6	1	98	1454334	3	2	2	1	0	791	1	4	0	176	93	0	5	95
random	6	1	99	1455648	6	3	3	1	0	1584	1	4	0	184	94	0	5	95
random	6	1	100	1457998	1	4	0	0	2	0	3	4	0	192	94	0	6	94
random	6	1	101	1461024	4	1	0	0	2	0	3	4	0	168	94	0	7	93
random	6	1	102	1464032	5	2	2	2	0	885	2	4	0	176	95	0	7	93
random	6	1	103	1465554	2	4	4	1	0	773	1	4	0	192	96	0	7	93
random	6	1	104	1466773	3	1	1	1	0	897	1	4	0	168	97	0	7	93
random	6	1	105	1468202	1	3	3	1	0	1444	1	4	0	184	98	0	7	93
random	6	1	106	1470153	2	2	2	1	0	810	1	4	0	176	99	0	7	93
random	6	1	107	1471811	5	4	4	1	0	835	1	4	0	192	100	0	7	93
random	6	1	108	1473219	6	1	1	1	0	816	1	4	0	168	101	0	7	94
random	6	1	109	1474736	5	4	4	1	0	1655	1	4	0	192	102	0	7	94
random	6	1	110	1477399	6	3	3	1	0	927	1	4	0	184	103	0	7	94
random	6	1	111	1478751	2	2	2	1	0	734	1	4	0	176	104	0	7	94
random	6	1	112	1480093	3	1	1	1	0	1029	1	4	0	168	105	0	7	94
random	6	1	113	1481486	1	2	2	1	0	1089	1	4	0	176	106	0	7	94
random	6	1	114	1483151	2	3	3	1	0	731	1	4	0	184	107	0	7	94
random	6	1	115	1484704	3	1	1	1	0	810	1	4	0	168	108	0	7	94
random	6	1	116	1486523	4	4	4	1	0	884	1	4	0	192	109	0	7	94
random	6	1	117	1487909	6	1	1	1	0	970	1	4	0	168	110	0	7	94
random	6	1	118	1489174	5	3	3	1	0	1092	1	4	0	184	111	0	7	94
random	6	1	119	1490875	1	4	4	1	0	1756	1	4	0	192	112	0	7	94
random	6	1	120	1493261	4	2	2	1	0	863	1	4	0	176	113	0	7	94
fixed	7	1	1	1495652	4	1	1	1	0	1025	1	4	0	200	1	0	0	100
fixed	7	1	2	1497444	1	2	2	1	0	1118	1	4	0	208	2	0	0	100
fixed	7	1	3	1499493	6	4	4	1	0	839	1	4	0	224	3	0	0	100
fixed	7	1	4	1501250	2	1	1	1	0	1092	1	4	0	200	4	0	0	100
fixed	7	1	5	1503196	5	3	3	1	0	1170	1	4	0	216	5	0	0	100
fixed	7	1	6	1505228	6	4	4	1	0	1604	1	4	0	224	6	0	0	100
fixed	7	1	7	1507666	3	1	1	1	0	965	1	4	0	200	7	0	0	100
fixed	7	1	8	1509396	2	3	3	1	0	956	1	4	0	216	8	0	0	100
fixed	7	1	9	1510896	3	2	2	1	0	884	1	4	0	208	9	0	0	100
fixed	7	1	10	1512548	1	4	4	1	0	1430	1	4	0	224	10	0	0	100
fixed	7	1	11	1514997	5	2	2	1	0	1455	1	4	0	208	11	0	0	100
fixed	7	1	12	1517225	4	3	0	0	2	0	3	4	0	216	11	0	1	92
fixed	7	2	1	1520499	4	1	1	1	0	1285	1	4	0	200	1	0	0	8
fixed	7	2	2	1522753	1	2	2	1	0	1278	1	4	0	208	2	0	0	14
fixed	7	2	3	1524876	6	4	4	1	0	812	1	4	0	224	3	0	0	20
fixed	7	2	4	1526274	2	1	1	1	0	817	1	4	0	200	4	0	0	25
fixed	7	2	5	1527552	5	3	3	1	0	1010	1	4	0	216	5	0	0	29
fixed	7	2	6	1529076	6	4	4	1	0	1146	1	4	0	224	6	0	0	33
fixed	7	2	7	1531147	3	1	1	1	0	1026	1	4	0	200	7	0	0	37
fixed	7	2	8	1532613	2	3	3	1	0	948	1	4	0	216	8	0	0	40
fixed	7	2	9	1534149	3	2	2	1	0	843	1	4	0	208	9	0	0	43
fixed	7	2	10	1535459	1	4	4	1	0	1260	1	4	0	224	10	0	0	45
fixed	7	2	11	1537463	5	2	2	1	0	1119	1	4	0	208	11	0	0	48
fixed	7	2	12	1538973	4	3	3	1	0	879	1	4	0	216	12	0	0	50
fixed	7	3	1	1540632	4	1	1	1	0	1144	1	4	0	200	1	0	0	4
fixed	7	3	2	1542329	1	2	2	1	0	1401	1	4	0	208	2	0	0	8
fixed	7	3	3	1544705	6	4	4	1	0	852	1	4	0	224	3	0	0	11
fixed	7	3	4	1546013	2	1	1	1	0	1437	1	4	0	200	4	0	0	14
fixed	7	3	5	1548045	5	3	3	1	0	1439	1	4	0	216	5	0	0	17
fixed	7	3	6	1550074	6	4	4	1	0	2089	1	4	0	224	6	0	0	20
fixed	7	3	7	1552673	3	1	1	1	0	883	1	4	0	200	7	0	0	23
fixed	7	3	8	1554406	2	3	3	1	0	1689	1	4	0	216	8	0	0	25
fixed	7	3	9	1557116	3	2	2	1	0	1191	1	4	0	208	9	0	0	27
fixed	7	3	10	1559215	1	4	0	0	2	0	3	4	0	224	9	0	1	26
fixed	7	3	11	1562582	5	2	0	0	2	0	3	4	0	208	9	0	2	26
fixed	7	3	12	1565839	4	3	3	1	0	1461	1	4	0	216	10	0	2	28
fixed	7	4	1	1568283	4	1	1	1	0	845	1	4	0	200	1	0	0	3
fixed	7	4	2	1570133	1	2	2	1	0	1335	1	4	0	208	2	0	0	5
fixed	7	4	3	1571858	6	4	4	1	0	774	1	4	0	224	3	0	0	8
fixed	7	4	4	1573102	2	1	1	1	0	889	1	4	0	200	4	0	0	10
fixed	7	4	5	1574366	5	3	3	1	0	948	1	4	0	216	5	0	0	12
fixed	7	4	6	1576017	6	4	4	1	0	1070	1	4	0	224	6	0	0	14
fixed	7	4	7	1577672	3	1	1	1	0	767	1	4	0	200	7	0	0	16
fixed	7	4	8	1578754	2	3	3	1	0	1306	1	4	0	216	8	0	0	18
fixed	7	4	9	1580958	3	2	2	1	0	701	1	4	0	208	9	0	0	20
fixed	7	4	10	1582658	1	4	4	1	0	997	1	4	0	224	10	0	0	22
fixed	7	4	11	1584247	5	2	2	1	0	913	1	4	0	208	11	0	0	23
fixed	7	4	12	1585508	4	3	3	1	0	820	1	4	0	216	12	0	0	25
fixed	7	5	1	1587112	4	1	1	1	0	840	1	4	0	200	1	0	0	2
fixed	7	5	2	1588912	1	2	2	1	0	1252	1	4	0	208	2	0	0	4
fixed	7	5	3	1590996	6	4	4	1	0	1403	1	4	0	224	3	0	0	6
fixed	7	5	4	1593150	2	1	1	1	0	720	1	4	0	200	4	0	0	8
fixed	7	5	5	1594244	5	3	3	1	0	849	1	4	0	216	5	0	0	9
fixed	7	5	6	1596128	6	4	4	1	0	1330	1	4	0	224	6	0	0	11
fixed	7	5	7	1598172	3	1	1	1	0	827	1	4	0	200	7	0	0	13
fixed	7	5	8	1599796	2	3	3	1	0	1223	1	4	0	216	8	0	0	14
fixed	7	5	9	1601993	3	2	2	1	0	1362	1	4	0	208	9	0	0	16
fixed	7	5	10	1603821	1	4	4	1	0	948	1	4	0	224	10	0	0	17
fixed	7	5	11	1605743	5	2	2	1	0	1363	1	4	0	208	11	0	0	19
fixed	7	5	12	1607458	4	3	3	1	0	1626	1	4	0	216	12	0	0	20
fixed	7	6	1	1609936	4	1	1	1	0	1009	1	4	0	200	1	0	0	2
fixed	7	6	2	1611707	1	2	0	0	2	0	3	4	0	208	1	0	1	2
fixed	7	6	3	1614730	6	4	0	0	2	0	3	4	0	224	1	0	2	2
fixed	7	6	4	1618055	2	1	1	1	0	2321	1	4	0	200	2	0	2	3
fixed	7	6	5	1621386	5	3	3	1	0	1708	1	4	0	216	3	0	2	5
fixed	7	6	6	1623576	6	4	4	1	0	808	1	4	0	224	4	0	2	6
fixed	7	6	7	1625020	3	1	1	1	0	738	1	4	0	200	5	0	2	7
fixed	7	6	8	1626401	2	3	3	1	0	1472	1	4	0	216	6	0	2	9
fixed	7	6	9	1628882	3	2	2	1	0	791	1	4	0	208	7	0	2	10
fixed	7	6	10	1630004	1	4	4	1	0	775	1	4	0	224	8	0	2	11
fixed	7	6	11	1631570	5	2	2	1	0	1229	1	4	0	208	9	0	2	13
fixed	7	6	12	1633388	4	3	3	1	0	824	1	4	0	216	10	0	2	14
fixed	7	7	1	1635230	4	1	1	1	0	1066	1	4	0	200	1	0	0	1
fixed	7	7	2	1636847	1	2	2	1	0	1166	1	4	0	208	2	0	0	3
fixed	7	7	3	1638315	6	4	4	1	0	775	1	4	0	224	3	0	0	4
fixed	7	7	4	1639665	2	1	1	1	0	790	1	4	0	200	4	0	0	5
fixed	7	7	5	1641255	5	3	3	2	0	1467	2	4	0	216	5	0	0	6
fixed	7	7	6	1643308	6	4	4	1	0	828	1	4	0	224	6	0	0	8
fixed	7	7	7	1644771	3	1	1	1	0	670	1	4	0	200	7	0	0	9
fixed	7	7	8	1645966	2	3	3	1	0	1251	1	4	0	216	8	0	0	10
fixed	7	7	9	1647810	3	2	2	1	0	645	1	4	0	208	9	0	0	11
fixed	7	7	10	1648880	1	4	4	1	0	807	1	4	0	224	10	0	0	12
fixed	7	7	11	1650658	5	2	0	0	2	0	3	4	0	208	10	0	1	12
fixed	7	7	12	1653856	4	3	3	1	0	949	1	4	0	216	11	0	1	13
fixed	7	8	1	1655798	4	1	1	1	0	858	1	4	0	200	1	0	0	1
fixed	7	8	2	1657557	1	2	2	1	0	1080	1	4	0	208	2	0	0	2
fixed	7	8	3	1659246	6	4	4	1	0	961	1	4	0	224	3	0	0	3
fixed	7	8	4	1661151	2	1	1	1	0	832	1	4	0	200	4	0	0	5
fixed	7	8	5	1662974	5	3	3	1	0	1219	1	4	0	216	5	0	0	6
fixed	7	8	6	1664517	6	4	4	1	0	785	1	4	0	224	6	0	0	7
fixed	7	8	7	1666203	3	1	1	1	0	1482	1	4	0	200	7	0	0	8
fixed	7	8	8	1668515	2	3	3	1	0	1040	1	4	0	216	8	0	0	9
fixed	7	8	9	1670007	3	2	2	1	0	761	1	4	0	208	9	0	0	10
fixed	7	8	10	1671482	1	4	4	1	0	1307	1	4	0	224	10	0	0	11
fixed	7	8	11	1673428	5	2	2	1	0	1272	1	4	0	208	11	0	0	12
fixed	7	8	12	1675692	4	3	3	1	0	1616	1	4	0	216	12	0	0	13
fixed	7	9	1	1678503	4	1	1	1	0	969	1	4	0	200	1	0	0	1
fixed	7	9	2	1680159	1	2	0	0	2	0	3	4	0	208	1	0	1	1
fixed	7	9	3	1683555	6	4	0	0	2	0	3	4	0	224	1	0	2	1
fixed	7	9	4	1687032	2	1	1	1	0	664	1	4	0	200	2	0	2	2
fixed	7	9	5	1688662	5	3	3	1	0	1050	1	4	0	216	3	0	2	3
fixed	7	9	6	1690087	6	4	4	1	0	806	1	4	0	224	4	0	2	4
fixed	7	9	7	1691543	3	1	1	1	0	769	1	4	0	200	5	0	2	5
fixed	7	9	8	1692670	2	3	3	1	0	865	1	4	0	216	6	0	2	6
fixed	7	9	9	1693839	3	2	2	1	0	847	1	4	0	208	7	0	2	7
fixed	7	9	10	1695413	1	4	4	1	0	677	1	4	0	224	8	0	2	8
fixed	7	9	11	1696529	5	2	2	1	0	981	1	4	0	208	9	0	2	8
fixed	7	9	12	1698168	4	3	3	1	0	928	1	4	0	216	10	0	2	9
fixed	7	10	1	1700374	4	1	1	1	0	802	1	4	0	200	1	0	0	1
fixed	7	10	2	1701681	1	2	2	1	0	1171	1	4	0	208	2	0	0	2
fixed	7	10	3	1703375	6	4	4	1	0	1068	1	4	0	224	3	0	0	3
fixed	7	10	4	1705123	2	1	1	1	0	761	1	4	0	200	4	0	0	4
fixed	7	10	5	1706685	5	3	3	1	0	968	1	4	0	216	5	0	0	4
fixed	7	10	6	1708148	6	4	4	1	0	889	1	4	0	224	6	0	0	5
fixed	7	10	7	1709715	3	1	1	1	0	1311	1	4	0	200	7	0	0	6
fixed	7	10	8	1711866	2	3	3	1	0	876	1	4	0	216	8	0	0	7
fixed	7	10	9	1713251	3	2	2	1	0	794	1	4	0	208	9	0	0	8
fixed	7	10	10	1714340	1	4	4	1	0	1043	1	4	0	224	10	0	0	8
fixed	7	10	11	1716407	5	2	2	1	0	1188	1	4	0	208	11	0	0	9
fixed	7	10	12	1717884	4	3	3	1	0	805	1	4	0	216	12	0	0	10
