type	block	sequ.	trial	time	Pos.	Color	Button	NumRsp	Resp_1	RT_1	R_Code	Resp_2	RT_2	Trigg.	n_hit	n_inc	n_miss	score_%

random	1	1	1	5519	6	1	1	1	0	1663	1	4	0	8	1	0	0	100
random	1	1	2	7630	4	4	4	1	0	1070	1	4	0	32	2	0	0	100
random	1	1	3	9255	2	2	2	1	0	1097	1	4	0	16	3	0	0	100
random	1	1	4	10748	3	3	3	1	0	921	1	4	0	24	4	0	0	100
random	1	1	5	12042	5	2	2	1	0	1355	1	4	0	16	5	0	0	100
random	1	1	6	14121	1	4	4	1	0	755	1	4	0	32	6	0	0	100
random	1	1	7	15335	6	1	1	1	0	1055	1	4	0	8	7	0	0	100
random	1	1	8	17100	2	3	3	1	0	1580	1	4	0	24	8	0	0	100
random	1	1	9	19243	4	2	2	1	0	858	1	4	0	16	9	0	0	100
random	1	1	10	20934	1	1	1	1	0	858	1	4	0	8	10	0	0	100
random	1	1	11	22649	5	4	4	1	0	770	1	4	0	32	11	0	0	100
random	1	1	12	23893	3	3	3	1	0	1205	1	4	0	24	12	0	0	100
random	1	1	13	25803	5	2	2	1	0	972	1	4	0	16	13	0	0	100
random	1	1	14	27404	1	4	4	1	0	881	1	4	0	32	14	0	0	100
random	1	1	15	29003	3	1	1	1	0	781	1	4	0	8	15	0	0	100
random	1	1	16	30790	4	3	3	1	0	1873	1	4	0	24	16	0	0	100
random	1	1	17	33279	6	4	4	1	0	927	1	4	0	32	17	0	0	100
random	1	1	18	35178	2	1	1	1	0	679	1	4	0	8	18	0	0	100
random	1	1	19	36698	5	3	3	1	0	1814	1	4	0	24	19	0	0	100
random	1	1	20	39324	2	2	2	1	0	687	1	4	0	16	20	0	0	100
random	1	1	21	40479	3	3	3	1	0	934	1	4	0	24	21	0	0	100
random	1	1	22	41846	6	1	1	1	0	884	1	4	0	8	22	0	0	100
random	1	1	23	43475	4	2	2	1	0	888	1	4	0	16	23	0	0	100
random	1	1	24	45185	1	4	4	1	0	671	1	4	0	32	24	0	0	100
random	1	1	25	46488	4	3	3	1	0	1176	1	4	0	24	25	0	0	100
random	1	1	26	48164	2	1	1	1	0	833	1	4	0	8	26	0	0	100
random	1	1	27	49755	5	2	2	1	0	1806	1	4	0	16	27	0	0	100
random	1	1	28	51968	6	4	4	1	0	712	1	4	0	32	28	0	0	100
random	1	1	29	52989	1	3	3	1	0	1156	1	4	0	24	29	0	0	100
random	1	1	30	54450	5	2	2	1	0	839	1	4	0	16	30	0	0	100
random	1	1	31	56305	2	1	1	1	0	784	1	4	0	8	31	0	0	100
random	1	1	32	57608	3	3	3	1	0	1057	1	4	0	24	32	0	0	100
random	1	1	33	59100	6	4	4	1	0	746	1	4	0	32	33	0	0	100
random	1	1	34	60788	4	2	2	1	0	826	1	4	0	16	34	0	0	100
random	1	1	35	62287	3	4	4	1	0	539	1	4	0	32	35	0	0	100
random	1	1	36	63399	1	1	1	1	0	676	1	4	0	8	36	0	0	100
random	1	1	37	64700	3	4	4	1	0	741	1	4	0	32	37	0	0	100
random	1	1	38	65839	5	3	3	1	0	1292	1	4	0	24	38	0	0	100
random	1	1	39	67850	6	1	1	1	0	671	1	4	0	8	39	0	0	100
random	1	1	40	68937	1	2	2	1	0	953	1	4	0	16	40	0	0	100
random	1	1	41	70607	2	3	3	1	0	867	1	4	0	24	41	0	0	100
random	1	1	42	72147	4	4	4	1	0	705	1	4	0	32	42	0	0	100
random	1	1	43	73525	1	2	2	1	0	903	1	4	0	16	43	0	0	100
random	1	1	44	75314	6	3	3	1	0	643	1	4	0	24	44	0	0	100
random	1	1	45	76471	3	1	1	1	0	962	1	4	0	8	45	0	0	100
random	1	1	46	77876	4	4	4	1	0	799	1	4	0	32	46	0	0	100
random	1	1	47	79491	2	2	2	1	0	1042	1	4	0	16	47	0	0	100
random	1	1	48	81114	5	1	1	1	0	885	1	4	0	8	48	0	0	100
random	1	1	49	82611	2	3	3	1	0	1110	1	4	0	24	49	0	0	100
random	1	1	50	84363	3	1	1	1	0	827	1	4	0	8	50	0	0	100
random	1	1	51	86056	1	4	4	1	0	636	1	4	0	32	51	0	0	100
random	1	1	52	87194	5	3	3	1	0	1156	1	4	0	24	52	0	0	100
random	1	1	53	89242	3	2	2	1	0	693	1	4	0	16	53	0	0	100
random	1	1	54	90254	6	4	4	1	0	850	1	4	0	32	54	0	0	100
random	1	1	55	91470	4	2	2	1	0	1303	1	4	0	16	55	0	0	100
random	1	1	56	93296	1	1	1	1	0	706	1	4	0	8	56	0	0	100
random	1	1	57	94726	5	4	4	1	0	685	1	4	0	32	57	0	0	100
random	1	1	58	96308	2	1	1	1	0	786	1	4	0	8	58	0	0	100
random	1	1	59	97407	6	2	2	1	0	1203	1	4	0	16	59	0	0	100
random	1	1	60	99332	4	3	3	1	0	794	1	4	0	24	60	0	0	100
random	1	1	61	100739	1	2	2	1	0	966	1	4	0	16	61	0	0	100
random	1	1	62	102009	6	4	4	1	0	776	1	4	0	32	62	0	0	100
random	1	1	63	103665	4	1	1	1	0	586	1	4	0	8	63	0	0	100
random	1	1	64	104696	2	2	2	1	0	982	1	4	0	16	64	0	0	100
random	1	1	65	106515	4	3	3	1	0	786	1	4	0	24	65	0	0	100
random	1	1	66	107596	3	1	1	1	0	756	1	4	0	8	66	0	0	100
random	1	1	67	108759	1	3	3	1	0	882	1	4	0	24	67	0	0	100
random	1	1	68	110159	5	4	4	1	0	663	1	4	0	32	68	0	0	100
random	1	1	69	111311	2	2	2	1	0	1039	1	4	0	16	69	0	0	100
random	1	1	70	112935	3	1	1	1	0	977	1	4	0	8	70	0	0	100
random	1	1	71	114356	5	4	4	1	0	757	1	4	0	32	71	0	0	100
random	1	1	72	115891	6	3	3	1	0	1124	1	4	0	24	72	0	0	100
random	1	1	73	118014	2	1	1	1	0	938	1	4	0	8	73	0	0	100
random	1	1	74	119401	5	3	3	1	0	1024	1	4	0	24	74	0	0	100
random	1	1	75	121168	1	4	4	1	0	685	1	4	0	32	75	0	0	100
random	1	1	76	122724	6	2	2	1	0	843	1	4	0	16	76	0	0	100
random	1	1	77	124457	2	1	1	1	0	794	1	4	0	8	77	0	0	100
random	1	1	78	126002	4	4	4	1	0	872	1	4	0	32	78	0	0	100
random	1	1	79	127385	3	2	2	1	0	901	1	4	0	16	79	0	0	100
random	1	1	80	129073	4	3	3	1	0	958	1	4	0	24	80	0	0	100
random	1	1	81	130650	1	4	4	1	0	651	1	4	0	32	81	0	0	100
random	1	1	82	131628	5	1	1	1	0	618	1	4	0	8	82	0	0	100
random	1	1	83	132902	3	2	2	1	0	988	1	4	0	16	83	0	0	100
random	1	1	84	134528	6	3	3	1	0	719	1	4	0	24	84	0	0	100
random	1	1	85	136059	3	2	2	1	0	862	1	4	0	16	85	0	0	100
random	1	1	86	137789	1	3	3	1	0	1005	1	4	0	24	86	0	0	100
random	1	1	87	139210	4	4	4	1	0	825	1	4	0	32	87	0	0	100
random	1	1	88	140336	2	1	1	1	0	593	1	4	0	8	88	0	0	100
random	1	1	89	141342	6	4	4	1	0	670	1	4	0	32	89	0	0	100
random	1	1	90	143057	3	3	3	1	0	957	1	4	0	24	90	0	0	100
random	1	1	91	144699	5	4	4	1	0	832	1	4	0	32	91	0	0	100
random	1	1	92	145974	1	2	2	1	0	898	1	4	0	16	92	0	0	100
random	1	1	93	147855	5	1	1	1	0	762	1	4	0	8	93	0	0	100
random	1	1	94	149068	4	3	3	1	0	847	1	4	0	24	94	0	0	100
random	1	1	95	150462	6	1	1	1	0	980	1	4	0	8	95	0	0	100
random	1	1	96	151768	2	2	2	1	0	1005	1	4	0	16	96	0	0	100
random	1	1	97	153368	4	3	3	1	0	849	1	4	0	24	97	0	0	100
random	1	1	98	154886	3	2	2	1	0	872	1	4	0	16	98	0	0	100
random	1	1	99	156494	6	3	3	1	0	788	1	4	0	24	99	0	0	100
random	1	1	100	157738	1	4	4	1	0	728	1	4	0	32	100	0	0	100
random	1	1	101	159185	4	1	1	1	0	747	1	4	0	8	101	0	0	100
random	1	1	102	160341	5	2	2	1	0	906	1	4	0	16	102	0	0	100
random	1	1	103	161852	2	4	4	1	0	690	1	4	0	32	103	0	0	100
random	1	1	104	162983	3	1	1	1	0	946	1	4	0	8	104	0	0	100
random	1	1	105	164427	1	3	3	1	0	940	1	4	0	24	105	0	0	100
random	1	1	106	166197	2	2	2	1	0	857	1	4	0	16	106	0	0	100
random	1	1	107	167889	5	4	4	1	0	1194	1	4	0	32	107	0	0	100
random	1	1	108	169525	6	1	1	1	0	621	1	4	0	8	108	0	0	100
random	1	1	109	171429	5	4	4	1	0	748	1	4	0	32	109	0	0	100
random	1	1	110	172831	6	3	3	1	0	1136	1	4	0	24	110	0	0	100
random	1	1	111	174736	2	2	2	1	0	800	1	4	0	16	111	0	0	100
random	1	1	112	175992	3	1	1	1	0	795	1	4	0	8	112	0	0	100
random	1	1	113	177427	1	2	2	1	0	1134	1	4	0	16	113	0	0	100
random	1	1	114	179124	2	3	3	1	0	870	1	4	0	24	114	0	0	100
random	1	1	115	180891	3	1	1	1	0	803	1	4	0	8	115	0	0	100
random	1	1	116	182702	4	4	4	1	0	615	1	4	0	32	116	0	0	100
random	1	1	117	184151	6	1	1	1	0	673	1	4	0	8	117	0	0	100
random	1	1	118	185490	5	3	3	1	0	1033	1	4	0	24	118	0	0	100
random	1	1	119	187141	1	4	4	1	0	875	1	4	0	32	119	0	0	100
random	1	1	120	188992	4	2	2	1	0	724	1	4	0	16	120	0	0	100
fixed	2	1	1	190874	4	1	1	1	0	804	1	4	0	40	1	0	0	100
fixed	2	1	2	192044	1	2	2	1	0	923	1	4	0	48	2	0	0	100
fixed	2	1	3	193742	6	4	4	1	0	739	1	4	0	64	3	0	0	100
fixed	2	1	4	194817	2	1	1	1	0	781	1	4	0	40	4	0	0	100
fixed	2	1	5	196634	5	3	3	1	0	1001	1	4	0	56	5	0	0	100
fixed	2	1	6	198242	6	4	4	1	0	732	1	4	0	64	6	0	0	100
fixed	2	1	7	199972	3	1	1	1	0	731	1	4	0	40	7	0	0	100
fixed	2	1	8	201056	2	3	3	1	0	941	1	4	0	56	8	0	0	100
fixed	2	1	9	202786	3	2	2	1	0	780	1	4	0	48	9	0	0	100
fixed	2	1	10	204223	1	4	4	1	0	919	1	4	0	64	10	0	0	100
fixed	2	1	11	206126	5	2	2	1	0	1071	1	4	0	48	11	0	0	100
fixed	2	1	12	207593	4	3	3	1	0	808	1	4	0	56	12	0	0	100
fixed	2	2	1	209555	4	1	1	1	0	789	1	4	0	40	13	0	0	100
fixed	2	2	2	211291	1	2	2	1	0	907	1	4	0	48	14	0	0	100
fixed	2	2	3	213023	6	4	4	1	0	586	1	4	0	64	15	0	0	100
fixed	2	2	4	214481	2	1	1	1	0	716	1	4	0	40	16	0	0	100
fixed	2	2	5	216069	5	3	3	1	0	889	1	4	0	56	17	0	0	100
fixed	2	2	6	217353	6	4	4	1	0	771	1	4	0	64	18	0	0	100
fixed	2	2	7	218774	3	1	1	1	0	551	1	4	0	40	19	0	0	100
fixed	2	2	8	219787	2	3	3	1	0	1036	1	4	0	56	20	0	0	100
fixed	2	2	9	221630	3	2	2	1	0	646	1	4	0	48	21	0	0	100
fixed	2	2	10	223046	1	4	4	1	0	770	1	4	0	64	22	0	0	100
fixed	2	2	11	224745	5	2	2	1	0	834	1	4	0	48	23	0	0	100
fixed	2	2	12	226179	4	3	3	1	0	629	1	4	0	56	24	0	0	100
fixed	2	3	1	228001	4	1	1	1	0	672	1	4	0	40	25	0	0	100
fixed	2	3	2	229090	1	2	2	1	0	1066	1	4	0	48	26	0	0	100
fixed	2	3	3	230765	6	4	4	1	0	667	1	4	0	64	27	0	0	100
fixed	2	3	4	231805	2	1	1	1	0	791	1	4	0	40	28	0	0	100
fixed	2	3	5	233167	5	3	3	1	0	997	1	4	0	56	29	0	0	100
fixed	2	3	6	234982	6	4	4	1	0	656	1	4	0	64	30	0	0	100
fixed	2	3	7	236640	3	1	1	1	0	666	1	4	0	40	31	0	0	100
fixed	2	3	8	238293	2	3	3	1	0	1268	1	4	0	56	32	0	0	100
fixed	2	3	9	240354	3	2	2	1	0	709	1	4	0	48	33	0	0	100
fixed	2	3	10	241505	1	4	4	1	0	828	1	4	0	64	34	0	0	100
fixed	2	3	11	242693	5	2	2	1	0	938	1	4	0	48	35	0	0	100
fixed	2	3	12	244552	4	3	3	1	0	963	1	4	0	56	36	0	0	100
fixed	2	4	1	246062	4	1	1	1	0	971	1	4	0	40	37	0	0	100
fixed	2	4	2	247669	1	2	2	1	0	1015	1	4	0	48	38	0	0	100
fixed	2	4	3	249391	6	4	4	1	0	702	1	4	0	64	39	0	0	100
fixed	2	4	4	250701	2	1	1	1	0	1231	1	4	0	40	40	0	0	100
fixed	2	4	5	252562	5	3	3	1	0	1119	1	4	0	56	41	0	0	100
fixed	2	4	6	254013	6	4	4	1	0	762	1	4	0	64	42	0	0	100
fixed	2	4	7	255433	3	1	1	1	0	798	1	4	0	40	43	0	0	100
fixed	2	4	8	256527	2	3	3	1	0	1112	1	4	0	56	44	0	0	100
fixed	2	4	9	258332	3	2	2	1	0	771	1	4	0	48	45	0	0	100
fixed	2	4	10	259846	1	4	4	1	0	755	1	4	0	64	46	0	0	100
fixed	2	4	11	261537	5	2	2	1	0	908	1	4	0	48	47	0	0	100
fixed	2	4	12	262918	4	3	3	1	0	649	1	4	0	56	48	0	0	100
fixed	2	5	1	264574	4	1	1	1	0	667	1	4	0	40	49	0	0	100
fixed	2	5	2	265540	1	2	2	2	0	2314	2	4	0	48	50	0	0	100
fixed	2	5	3	268333	6	4	4	1	0	612	1	4	0	64	51	0	0	100
fixed	2	5	4	269292	2	1	1	1	0	1355	1	4	0	40	52	0	0	100
fixed	2	5	5	271015	5	3	3	1	0	866	1	4	0	56	53	0	0	100
fixed	2	5	6	272532	6	4	4	1	0	642	1	4	0	64	54	0	0	100
fixed	2	5	7	274129	3	1	1	1	0	774	1	4	0	40	55	0	0	100
fixed	2	5	8	275899	2	3	3	1	0	1099	1	4	0	56	56	0	0	100
fixed	2	5	9	277361	3	2	2	1	0	677	1	4	0	48	57	0	0	100
fixed	2	5	10	278414	1	4	4	1	0	705	1	4	0	64	58	0	0	100
fixed	2	5	11	280085	5	2	2	1	0	1162	1	4	0	48	59	0	0	100
fixed	2	5	12	281778	4	3	3	1	0	531	1	4	0	56	60	0	0	100
fixed	2	6	1	282885	4	1	1	1	0	763	1	4	0	40	61	0	0	100
fixed	2	6	2	284043	1	2	2	1	0	1178	1	4	0	48	62	0	0	100
fixed	2	6	3	286083	6	4	4	1	0	660	1	4	0	64	63	0	0	100
fixed	2	6	4	287500	2	1	1	1	0	872	1	4	0	40	64	0	0	100
fixed	2	6	5	288819	5	3	3	1	0	1264	1	4	0	56	65	0	0	100
fixed	2	6	6	290604	6	4	4	1	0	820	1	4	0	64	66	0	0	100
fixed	2	6	7	292227	3	1	1	1	0	887	1	4	0	40	67	0	0	100
fixed	2	6	8	293541	2	3	3	1	0	856	1	4	0	56	68	0	0	100
fixed	2	6	9	295174	3	2	2	1	0	923	1	4	0	48	69	0	0	100
fixed	2	6	10	296811	1	4	4	1	0	574	1	4	0	64	70	0	0	100
fixed	2	6	11	297702	5	2	2	1	0	1040	1	4	0	48	71	0	0	100
fixed	2	6	12	299366	4	3	3	1	0	585	1	4	0	56	72	0	0	100
fixed	2	7	1	301030	4	1	1	1	0	691	1	4	0	40	73	0	0	100
fixed	2	7	2	302625	1	2	2	1	0	959	1	4	0	48	74	0	0	100
fixed	2	7	3	303965	6	4	4	1	0	775	1	4	0	64	75	0	0	100
fixed	2	7	4	305596	2	1	1	1	0	865	1	4	0	40	76	0	0	100
fixed	2	7	5	307186	5	3	3	1	0	1022	1	4	0	56	77	0	0	100
fixed	2	7	6	309222	6	4	4	1	0	848	1	4	0	64	78	0	0	100
fixed	2	7	7	310677	3	1	1	1	0	754	1	4	0	40	79	0	0	100
fixed	2	7	8	312093	2	3	3	1	0	1078	1	4	0	56	80	0	0	100
fixed	2	7	9	313836	3	2	2	1	0	741	1	4	0	48	81	0	0	100
fixed	2	7	10	315202	1	4	4	1	0	755	1	4	0	64	82	0	0	100
fixed	2	7	11	316667	5	2	2	1	0	964	1	4	0	48	83	0	0	100
fixed	2	7	12	318281	4	3	3	1	0	792	1	4	0	56	84	0	0	100
fixed	2	8	1	320177	4	1	1	1	0	736	1	4	0	40	85	0	0	100
fixed	2	8	2	321806	1	2	2	1	0	787	1	4	0	48	86	0	0	100
fixed	2	8	3	323206	6	4	4	1	0	863	1	4	0	64	87	0	0	100
fixed	2	8	4	324861	2	1	1	1	0	1058	1	4	0	40	88	0	0	100
fixed	2	8	5	326455	5	3	3	1	0	1190	1	4	0	56	89	0	0	100
fixed	2	8	6	328670	6	4	4	1	0	720	1	4	0	64	90	0	0	100
fixed	2	8	7	329793	3	1	1	1	0	841	1	4	0	40	91	0	0	100
fixed	2	8	8	331084	2	3	3	1	0	1129	1	4	0	56	92	0	0	100
fixed	2	8	9	332824	3	2	2	1	0	896	1	4	0	48	93	0	0	100
fixed	2	8	10	334738	1	4	4	1	0	847	1	4	0	64	94	0	0	100
fixed	2	8	11	336236	5	2	2	2	0	2072	2	4	0	48	95	0	0	100
fixed	2	8	12	338759	4	3	3	1	0	765	1	4	0	56	96	0	0	100
fixed	2	9	1	340694	4	1	1	1	0	875	1	4	0	40	97	0	0	100
fixed	2	9	2	342046	1	2	2	1	0	1833	1	4	0	48	98	0	0	100
fixed	2	9	3	344426	6	4	4	1	0	605	1	4	0	64	99	0	0	100
fixed	2	9	4	345750	2	1	1	1	0	789	1	4	0	40	100	0	0	100
fixed	2	9	5	347261	5	3	3	1	0	876	1	4	0	56	101	0	0	100
fixed	2	9	6	348499	6	4	4	1	0	912	1	4	0	64	102	0	0	100
fixed	2	9	7	349981	3	1	1	1	0	1065	1	4	0	40	103	0	0	100
fixed	2	9	8	351860	2	3	3	1	0	1042	1	4	0	56	104	0	0	100
fixed	2	9	9	353620	3	2	2	1	0	896	1	4	0	48	105	0	0	100
fixed	2	9	10	355262	1	4	4	1	0	914	1	4	0	64	106	0	0	100
fixed	2	9	11	356834	5	2	2	1	0	831	1	4	0	48	107	0	0	100
fixed	2	9	12	358090	4	3	3	1	0	818	1	4	0	56	108	0	0	100
fixed	2	10	1	359941	4	1	1	1	0	779	1	4	0	40	109	0	0	100
fixed	2	10	2	361310	1	2	2	1	0	953	1	4	0	48	110	0	0	100
fixed	2	10	3	362613	6	4	4	1	0	938	1	4	0	64	111	0	0	100
fixed	2	10	4	363958	2	1	1	1	0	938	1	4	0	40	112	0	0	100
fixed	2	10	5	365293	5	3	3	1	0	825	1	4	0	56	113	0	0	100
fixed	2	10	6	367111	6	4	4	1	0	636	1	4	0	64	114	0	0	100
fixed	2	10	7	368683	3	1	1	1	0	849	1	4	0	40	115	0	0	100
fixed	2	10	8	370218	2	3	3	1	0	1312	1	4	0	56	116	0	0	100
fixed	2	10	9	372275	3	2	2	1	0	601	1	4	0	48	117	0	0	100
fixed	2	10	10	373872	1	4	4	1	0	758	1	4	0	64	118	0	0	100
fixed	2	10	11	375501	5	2	2	1	0	977	1	4	0	48	119	0	0	100
fixed	2	10	12	377407	4	3	3	1	0	784	1	4	0	56	120	0	0	100
fixed	3	1	1	379019	4	1	1	1	0	739	1	4	0	72	1	0	0	100
fixed	3	1	2	380635	1	2	2	1	0	703	1	4	0	80	2	0	0	100
fixed	3	1	3	381970	6	4	4	1	0	671	1	4	0	96	3	0	0	100
fixed	3	1	4	383161	2	1	1	1	0	965	1	4	0	72	4	0	0	100
fixed	3	1	5	384584	5	3	3	1	0	952	1	4	0	88	5	0	0	100
fixed	3	1	6	386420	6	4	4	1	0	722	1	4	0	96	6	0	0	100
fixed	3	1	7	387521	3	1	1	1	0	836	1	4	0	72	7	0	0	100
fixed	3	1	8	389284	2	3	3	1	0	937	1	4	0	88	8	0	0	100
fixed	3	1	9	390899	3	2	2	1	0	996	1	4	0	80	9	0	0	100
fixed	3	1	10	392351	1	4	4	1	0	1383	1	4	0	96	10	0	0	100
fixed	3	1	11	394183	5	2	2	1	0	873	1	4	0	80	11	0	0	100
fixed	3	1	12	395794	4	3	3	1	0	909	1	4	0	88	12	0	0	100
fixed	3	2	1	397584	4	1	1	1	0	777	1	4	0	72	13	0	0	100
fixed	3	2	2	399261	1	2	2	1	0	330	1	4	0	80	14	0	0	100
fixed	3	2	3	400432	6	4	4	1	0	561	1	4	0	96	15	0	0	100
fixed	3	2	4	401704	2	1	1	1	0	803	1	4	0	72	16	0	0	100
fixed	3	2	5	403544	5	3	3	1	0	1181	1	4	0	88	17	0	0	100
fixed	3	2	6	405080	6	4	4	1	0	1004	1	4	0	96	18	0	0	100
fixed	3	2	7	406400	3	1	1	1	0	940	1	4	0	72	19	0	0	100
fixed	3	2	8	408270	2	3	3	1	0	1413	1	4	0	88	20	0	0	100
fixed	3	2	9	410385	3	2	2	1	0	667	1	4	0	80	21	0	0	100
fixed	3	2	10	411361	1	4	4	1	0	930	1	4	0	96	22	0	0	100
fixed	3	2	11	412734	5	2	2	1	0	1023	1	4	0	80	23	0	0	100
fixed	3	2	12	414149	4	3	3	1	0	1268	1	4	0	88	24	0	0	100
fixed	3	3	1	416229	4	1	1	1	0	707	1	4	0	72	25	0	0	100
fixed	3	3	2	417391	1	2	2	1	0	691	1	4	0	80	26	0	0	100
fixed	3	3	3	419001	6	4	4	1	0	614	1	4	0	96	27	0	0	100
fixed	3	3	4	419979	2	1	1	1	0	1101	1	4	0	72	28	0	0	100
fixed	3	3	5	421989	5	3	3	1	0	992	1	4	0	88	29	0	0	100
fixed	3	3	6	423630	6	4	4	1	0	730	1	4	0	96	30	0	0	100
fixed	3	3	7	425255	3	1	1	1	0	957	1	4	0	72	31	0	0	100
fixed	3	3	8	426682	2	3	3	1	0	1817	1	4	0	88	32	0	0	100
fixed	3	3	9	429138	3	2	2	1	0	713	1	4	0	80	33	0	0	100
fixed	3	3	10	430384	1	4	4	1	0	740	1	4	0	96	34	0	0	100
fixed	3	3	11	432005	5	2	2	1	0	919	1	4	0	80	35	0	0	100
fixed	3	3	12	433291	4	3	3	1	0	737	1	4	0	88	36	0	0	100
fixed	3	4	1	434775	4	1	1	1	0	682	1	4	0	72	37	0	0	100
fixed	3	4	2	435840	1	2	2	1	0	605	1	4	0	80	38	0	0	100
fixed	3	4	3	437344	6	4	4	1	0	678	1	4	0	96	39	0	0	100
fixed	3	4	4	438909	2	1	1	1	0	1099	1	4	0	72	40	0	0	100
fixed	3	4	5	440848	5	3	3	1	0	937	1	4	0	88	41	0	0	100
fixed	3	4	6	442742	6	4	4	1	0	600	1	4	0	96	42	0	0	100
fixed	3	4	7	444324	3	1	1	1	0	894	1	4	0	72	43	0	0	100
fixed	3	4	8	446250	2	3	3	1	0	892	1	4	0	88	44	0	0	100
fixed	3	4	9	448080	3	2	2	1	0	703	1	4	0	80	45	0	0	100
fixed	3	4	10	449194	1	4	4	1	0	999	1	4	0	96	46	0	0	100
fixed	3	4	11	450639	5	2	2	1	0	994	1	4	0	80	47	0	0	100
fixed	3	4	12	452185	4	3	3	1	0	824	1	4	0	88	48	0	0	100
fixed	3	5	1	453571	4	1	1	1	0	646	1	4	0	72	49	0	0	100
fixed	3	5	2	454941	1	2	2	1	0	452	1	4	0	80	50	0	0	100
fixed	3	5	3	455746	6	4	4	1	0	698	1	4	0	96	51	0	0	100
fixed	3	5	4	456994	2	1	1	1	0	717	1	4	0	72	52	0	0	100
fixed	3	5	5	458003	5	3	3	1	0	922	1	4	0	88	53	0	0	100
fixed	3	5	6	459488	6	4	4	1	0	819	1	4	0	96	54	0	0	100
fixed	3	5	7	460974	3	1	1	1	0	932	1	4	0	72	55	0	0	100
fixed	3	5	8	462562	2	3	3	1	0	1193	1	4	0	88	56	0	0	100
fixed	3	5	9	464476	3	2	2	1	0	832	1	4	0	80	57	0	0	100
fixed	3	5	10	465650	1	4	4	1	0	822	1	4	0	96	58	0	0	100
fixed	3	5	11	467512	5	2	2	1	0	920	1	4	0	80	59	0	0	100
fixed	3	5	12	469347	4	3	3	1	0	1258	1	4	0	88	60	0	0	100
fixed	3	6	1	471682	4	1	1	1	0	695	1	4	0	72	61	0	0	100
fixed	3	6	2	473191	1	2	2	1	0	1151	1	4	0	80	62	0	0	100
fixed	3	6	3	474923	6	4	4	1	0	565	1	4	0	96	63	0	0	100
fixed	3	6	4	476137	2	1	1	1	0	858	1	4	0	72	64	0	0	100
fixed	3	6	5	477959	5	3	3	1	0	693	1	4	0	88	65	0	0	100
fixed	3	6	6	479532	6	4	4	1	0	690	1	4	0	96	66	0	0	100
fixed	3	6	7	480915	3	1	1	1	0	832	1	4	0	72	67	0	0	100
fixed	3	6	8	482595	2	3	3	1	0	1137	1	4	0	88	68	0	0	100
fixed	3	6	9	484666	3	2	2	1	0	985	1	4	0	80	69	0	0	100
fixed	3	6	10	486430	1	4	4	1	0	1030	1	4	0	96	70	0	0	100
fixed	3	6	11	488031	5	2	2	1	0	811	1	4	0	80	71	0	0	100
fixed	3	6	12	489480	4	3	3	1	0	933	1	4	0	88	72	0	0	100
fixed	3	7	1	491297	4	1	1	1	0	744	1	4	0	72	73	0	0	100
fixed	3	7	2	492576	1	2	2	1	0	482	1	4	0	80	74	0	0	100
fixed	3	7	3	493558	6	4	4	1	0	432	1	4	0	96	75	0	0	100
fixed	3	7	4	494286	2	1	1	1	0	809	1	4	0	72	76	0	0	100
fixed	3	7	5	495563	5	3	3	1	0	795	1	4	0	88	77	0	0	100
fixed	3	7	6	497000	6	4	4	1	0	711	1	4	0	96	78	0	0	100
fixed	3	7	7	498089	3	1	1	1	0	969	1	4	0	72	79	0	0	100
fixed	3	7	8	499607	2	3	3	1	0	936	1	4	0	88	80	0	0	100
fixed	3	7	9	501178	3	2	2	1	0	774	1	4	0	80	81	0	0	100
fixed	3	7	10	502570	1	4	4	1	0	699	1	4	0	96	82	0	0	100
fixed	3	7	11	503968	5	2	2	1	0	807	1	4	0	80	83	0	0	100
fixed	3	7	12	505221	4	3	3	1	0	770	1	4	0	88	84	0	0	100
fixed	3	8	1	507136	4	1	1	1	0	633	1	4	0	72	85	0	0	100
fixed	3	8	2	508776	1	2	2	1	0	420	1	4	0	80	86	0	0	100
fixed	3	8	3	509926	6	4	4	1	0	459	1	4	0	96	87	0	0	100
fixed	3	8	4	510717	2	1	1	1	0	634	1	4	0	72	88	0	0	100
fixed	3	8	5	511940	5	3	3	1	0	886	1	4	0	88	89	0	0	100
fixed	3	8	6	513130	6	4	4	1	0	1044	1	4	0	96	90	0	0	100
fixed	3	8	7	514829	3	1	1	1	0	1227	1	4	0	72	91	0	0	100
fixed	3	8	8	516428	2	3	3	1	0	952	1	4	0	88	92	0	0	100
fixed	3	8	9	517915	3	2	2	1	0	761	1	4	0	80	93	0	0	100
fixed	3	8	10	519390	1	4	4	1	0	602	1	4	0	96	94	0	0	100
fixed	3	8	11	520300	5	2	2	1	0	987	1	4	0	80	95	0	0	100
fixed	3	8	12	522174	4	3	3	2	0	1868	2	4	0	88	96	0	0	100
fixed	3	9	1	524963	4	1	1	1	0	662	1	4	0	72	97	0	0	100
fixed	3	9	2	526225	1	2	2	1	0	777	1	4	0	80	98	0	0	100
fixed	3	9	3	527899	6	4	4	1	0	658	1	4	0	96	99	0	0	100
fixed	3	9	4	529305	2	1	1	1	0	662	1	4	0	72	100	0	0	100
fixed	3	9	5	530576	5	3	3	1	0	912	1	4	0	88	101	0	0	100
fixed	3	9	6	532065	6	4	4	1	0	729	1	4	0	96	102	0	0	100
fixed	3	9	7	533344	3	1	1	1	0	819	1	4	0	72	103	0	0	100
fixed	3	9	8	535014	2	3	3	1	0	1189	1	4	0	88	104	0	0	100
fixed	3	9	9	536769	3	2	2	1	0	914	1	4	0	80	105	0	0	100
fixed	3	9	10	538060	1	4	4	1	0	923	1	4	0	96	106	0	0	100
fixed	3	9	11	540011	5	2	2	1	0	913	1	4	0	80	107	0	0	100
fixed	3	9	12	541244	4	3	3	1	0	885	1	4	0	88	108	0	0	100
fixed	3	10	1	542723	4	1	1	1	0	710	1	4	0	72	109	0	0	100
fixed	3	10	2	543767	1	2	2	1	0	1626	1	4	0	80	110	0	0	100
fixed	3	10	3	546314	6	4	4	1	0	590	1	4	0	96	111	0	0	100
fixed	3	10	4	547453	2	1	1	1	0	805	1	4	0	72	112	0	0	100
fixed	3	10	5	548618	5	3	3	1	0	764	1	4	0	88	113	0	0	100
fixed	3	10	6	549771	6	4	4	1	0	979	1	4	0	96	114	0	0	100
fixed	3	10	7	551446	3	1	1	1	0	772	1	4	0	72	115	0	0	100
fixed	3	10	8	553133	2	3	3	1	0	1045	1	4	0	88	116	0	0	100
fixed	3	10	9	555159	3	2	2	1	0	943	1	4	0	80	117	0	0	100
fixed	3	10	10	556953	1	4	4	1	0	995	1	4	0	96	118	0	0	100
fixed	3	10	11	558955	5	2	2	1	0	831	1	4	0	80	119	0	0	100
fixed	3	10	12	560139	4	3	3	1	0	852	1	4	0	88	120	0	0	100
fixed	4	1	1	727708	4	1	1	1	0	1354	1	4	0	104	1	0	0	100
fixed	4	1	2	729684	1	2	2	1	0	1071	1	4	0	112	2	0	0	100
fixed	4	1	3	731489	6	4	4	1	0	563	1	4	0	128	3	0	0	100
fixed	4	1	4	732988	2	1	1	1	0	923	1	4	0	104	4	0	0	100
fixed	4	1	5	734388	5	3	3	1	0	936	1	4	0	120	5	0	0	100
fixed	4	1	6	735634	6	4	4	1	0	739	1	4	0	128	6	0	0	100
fixed	4	1	7	736860	3	1	1	1	0	967	1	4	0	104	7	0	0	100
fixed	4	1	8	738715	2	3	3	1	0	817	1	4	0	120	8	0	0	100
fixed	4	1	9	739827	3	2	2	1	0	689	1	4	0	112	9	0	0	100
fixed	4	1	10	741064	1	4	4	1	0	541	1	4	0	128	10	0	0	100
fixed	4	1	11	742486	5	2	2	1	0	953	1	4	0	112	11	0	0	100
fixed	4	1	12	744301	4	3	3	1	0	620	1	4	0	120	12	0	0	100
fixed	4	2	1	746122	4	1	1	1	0	823	1	4	0	104	13	0	0	100
fixed	4	2	2	747654	1	2	2	1	0	1342	1	4	0	112	14	0	0	100
fixed	4	2	3	749620	6	4	4	1	0	307	1	4	0	128	15	0	0	100
fixed	4	2	4	750958	2	1	1	1	0	482	1	4	0	104	16	0	0	100
fixed	4	2	5	752253	5	3	3	1	0	1003	1	4	0	120	17	0	0	100
fixed	4	2	6	753945	6	4	4	1	0	763	1	4	0	128	18	0	0	100
fixed	4	2	7	755604	3	1	1	1	0	789	1	4	0	104	19	0	0	100
fixed	4	2	8	756791	2	3	3	1	0	907	1	4	0	120	20	0	0	100
fixed	4	2	9	758607	3	2	2	1	0	742	1	4	0	112	21	0	0	100
fixed	4	2	10	759941	1	4	4	1	0	565	1	4	0	128	22	0	0	100
fixed	4	2	11	761181	5	2	2	1	0	1185	1	4	0	112	23	0	0	100
fixed	4	2	12	762969	4	3	3	1	0	653	1	4	0	120	24	0	0	100
fixed	4	3	1	764868	4	1	1	1	0	837	1	4	0	104	25	0	0	100
fixed	4	3	2	766081	1	2	2	1	0	1010	1	4	0	112	26	0	0	100
fixed	4	3	3	767946	6	4	4	1	0	642	1	4	0	128	27	0	0	100
fixed	4	3	4	768928	2	1	1	1	0	1161	1	4	0	104	28	0	0	100
fixed	4	3	5	770441	5	3	3	1	0	833	1	4	0	120	29	0	0	100
fixed	4	3	6	772003	6	4	4	1	0	1014	1	4	0	128	30	0	0	100
fixed	4	3	7	773704	3	1	1	1	0	1054	1	4	0	104	31	0	0	100
fixed	4	3	8	775249	2	3	3	1	0	989	1	4	0	120	32	0	0	100
fixed	4	3	9	776556	3	2	2	1	0	726	1	4	0	112	33	0	0	100
fixed	4	3	10	777785	1	4	4	1	0	562	1	4	0	128	34	0	0	100
fixed	4	3	11	779140	5	2	2	1	0	888	1	4	0	112	35	0	0	100
fixed	4	3	12	780615	4	3	3	1	0	978	1	4	0	120	36	0	0	100
fixed	4	4	1	782762	4	1	1	1	0	719	1	4	0	104	37	0	0	100
fixed	4	4	2	784393	1	2	2	1	0	346	1	4	0	112	38	0	0	100
fixed	4	4	3	785412	6	4	4	1	0	543	1	4	0	128	39	0	0	100
fixed	4	4	4	786321	2	1	1	1	0	808	1	4	0	104	40	0	0	100
fixed	4	4	5	787851	5	3	3	1	0	864	1	4	0	120	41	0	0	100
fixed	4	4	6	789312	6	4	4	1	0	785	1	4	0	128	42	0	0	100
fixed	4	4	7	790443	3	1	1	1	0	1306	1	4	0	104	43	0	0	100
fixed	4	4	8	792163	2	3	3	1	0	897	1	4	0	120	44	0	0	100
fixed	4	4	9	793726	3	2	2	1	0	687	1	4	0	112	45	0	0	100
fixed	4	4	10	795318	1	4	4	1	0	691	1	4	0	128	46	0	0	100
fixed	4	4	11	796585	5	2	2	2	0	1854	2	4	0	112	47	0	0	100
fixed	4	4	12	799265	4	3	3	1	0	836	1	4	0	120	48	0	0	100
fixed	4	5	1	800706	4	1	1	1	0	1047	1	4	0	104	49	0	0	100
fixed	4	5	2	802593	1	2	2	1	0	519	1	4	0	112	50	0	0	100
fixed	4	5	3	803821	6	4	4	1	0	587	1	4	0	128	51	0	0	100
fixed	4	5	4	804966	2	1	1	1	0	810	1	4	0	104	52	0	0	100
fixed	4	5	5	806197	5	3	3	1	0	951	1	4	0	120	53	0	0	100
fixed	4	5	6	807864	6	4	4	1	0	880	1	4	0	128	54	0	0	100
fixed	4	5	7	809512	3	1	1	1	0	778	1	4	0	104	55	0	0	100
fixed	4	5	8	810742	2	3	3	1	0	862	1	4	0	120	56	0	0	100
fixed	4	5	9	812217	3	2	2	1	0	631	1	4	0	112	57	0	0	100
fixed	4	5	10	813513	1	4	4	1	0	681	1	4	0	128	58	0	0	100
fixed	4	5	11	814717	5	2	2	1	0	1014	1	4	0	112	59	0	0	100
fixed	4	5	12	816395	4	3	3	1	0	670	1	4	0	120	60	0	0	100
fixed	4	6	1	818366	4	1	1	1	0	915	1	4	0	104	61	0	0	100
fixed	4	6	2	820230	1	2	2	2	0	1276	2	4	0	112	62	0	0	100
fixed	4	6	3	822062	6	4	4	1	0	606	1	4	0	128	63	0	0	100
fixed	4	6	4	822975	2	1	1	1	0	1295	1	4	0	104	64	0	0	100
fixed	4	6	5	824721	5	3	3	1	0	758	1	4	0	120	65	0	0	100
fixed	4	6	6	826480	6	4	4	1	0	844	1	4	0	128	66	0	0	100
fixed	4	6	7	827650	3	1	1	1	0	1050	1	4	0	104	67	0	0	100
fixed	4	6	8	829400	2	3	3	1	0	1032	1	4	0	120	68	0	0	100
fixed	4	6	9	830895	3	2	2	1	0	624	1	4	0	112	69	0	0	100
fixed	4	6	10	832548	1	4	4	1	0	594	1	4	0	128	70	0	0	100
fixed	4	6	11	833623	5	2	2	1	0	1093	1	4	0	112	71	0	0	100
fixed	4	6	12	835484	4	3	3	1	0	822	1	4	0	120	72	0	0	100
fixed	4	7	1	837112	4	1	1	1	0	1113	1	4	0	104	73	0	0	100
fixed	4	7	2	838655	1	2	2	1	0	1400	1	4	0	112	74	0	0	100
fixed	4	7	3	840635	6	4	4	1	0	787	1	4	0	128	75	0	0	100
fixed	4	7	4	842226	2	1	1	1	0	976	1	4	0	104	76	0	0	100
fixed	4	7	5	843949	5	3	3	1	0	719	1	4	0	120	77	0	0	100
fixed	4	7	6	845195	6	4	4	1	0	1139	1	4	0	128	78	0	0	100
fixed	4	7	7	846711	3	1	1	1	0	851	1	4	0	104	79	0	0	100
fixed	4	7	8	848404	2	3	3	2	0	1610	2	4	0	120	80	0	0	100
fixed	4	7	9	850847	3	2	2	1	0	739	1	4	0	112	81	0	0	100
fixed	4	7	10	852225	1	4	4	1	0	761	1	4	0	128	82	0	0	100
fixed	4	7	11	853701	5	2	2	1	0	834	1	4	0	112	83	0	0	100
fixed	4	7	12	855308	4	3	3	1	0	622	1	4	0	120	84	0	0	100
fixed	4	8	1	856743	4	1	1	1	0	865	1	4	0	104	85	0	0	100
fixed	4	8	2	858558	1	2	2	1	0	261	1	4	0	112	86	0	0	100
fixed	4	8	3	859165	6	4	4	1	0	611	1	4	0	128	87	0	0	100
fixed	4	8	4	860433	2	1	1	1	0	797	1	4	0	104	88	0	0	100
fixed	4	8	5	861755	5	3	3	1	0	1109	1	4	0	120	89	0	0	100
fixed	4	8	6	863695	6	4	4	1	0	651	1	4	0	128	90	0	0	100
fixed	4	8	7	864897	3	1	1	1	0	664	1	4	0	104	91	0	0	100
fixed	4	8	8	865867	2	3	3	1	0	943	1	4	0	120	92	0	0	100
fixed	4	8	9	867347	3	2	2	1	0	633	1	4	0	112	93	0	0	100
fixed	4	8	10	868877	1	4	4	1	0	703	1	4	0	128	94	0	0	100
fixed	4	8	11	870326	5	2	2	1	0	922	1	4	0	112	95	0	0	100
fixed	4	8	12	871711	4	3	3	1	0	647	1	4	0	120	96	0	0	100
fixed	4	9	1	873384	4	1	1	1	0	672	1	4	0	104	97	0	0	100
fixed	4	9	2	875061	1	2	2	1	0	786	1	4	0	112	98	0	0	100
fixed	4	9	3	876740	6	4	4	1	0	506	1	4	0	128	99	0	0	100
fixed	4	9	4	877759	2	1	1	1	0	1103	1	4	0	104	100	0	0	100
fixed	4	9	5	879808	5	3	3	2	0	1393	2	4	0	120	101	0	0	100
fixed	4	9	6	881582	6	4	4	1	0	950	1	4	0	128	102	0	0	100
fixed	4	9	7	883309	3	1	1	1	0	1148	1	4	0	104	103	0	0	100
fixed	4	9	8	885210	2	3	3	1	0	948	1	4	0	120	104	0	0	100
fixed	4	9	9	886485	3	2	2	1	0	702	1	4	0	112	105	0	0	100
fixed	4	9	10	888066	1	4	4	1	0	1147	1	4	0	128	106	0	0	100
fixed	4	9	11	889772	5	2	2	1	0	1242	1	4	0	112	107	0	0	100
fixed	4	9	12	891793	4	3	3	1	0	1485	1	4	0	120	108	0	0	100
fixed	4	10	1	893968	4	1	1	1	0	937	1	4	0	104	109	0	0	100
fixed	4	10	2	895745	1	2	2	1	0	894	1	4	0	112	110	0	0	100
fixed	4	10	3	896958	6	4	4	1	0	834	1	4	0	128	111	0	0	100
fixed	4	10	4	898481	2	1	1	1	0	818	1	4	0	104	112	0	0	100
fixed	4	10	5	900080	5	3	3	1	0	1078	1	4	0	120	113	0	0	100
fixed	4	10	6	901701	6	4	4	1	0	681	1	4	0	128	114	0	0	100
fixed	4	10	7	903252	3	1	1	1	0	904	1	4	0	104	115	0	0	100
fixed	4	10	8	904990	2	3	3	1	0	870	1	4	0	120	116	0	0	100
fixed	4	10	9	906247	3	2	2	1	0	752	1	4	0	112	117	0	0	100
fixed	4	10	10	907337	1	4	4	1	0	802	1	4	0	128	118	0	0	100
fixed	4	10	11	908960	5	2	2	1	0	942	1	4	0	112	119	0	0	100
fixed	4	10	12	910204	4	3	3	1	0	1065	1	4	0	120	120	0	0	100
fixed	5	1	1	912160	4	1	1	1	0	1206	1	4	0	136	1	0	0	100
fixed	5	1	2	913933	1	2	2	1	0	1019	1	4	0	144	2	0	0	100
fixed	5	1	3	915705	6	4	4	1	0	528	1	4	0	160	3	0	0	100
fixed	5	1	4	916976	2	1	1	1	0	738	1	4	0	136	4	0	0	100
fixed	5	1	5	918374	5	3	3	1	0	1023	1	4	0	152	5	0	0	100
fixed	5	1	6	919729	6	4	4	1	0	949	1	4	0	160	6	0	0	100
fixed	5	1	7	921233	3	1	1	1	0	894	1	4	0	136	7	0	0	100
fixed	5	1	8	922579	2	3	3	1	0	1085	1	4	0	152	8	0	0	100
fixed	5	1	9	924035	3	2	2	1	0	919	1	4	0	144	9	0	0	100
fixed	5	1	10	925911	1	4	4	1	0	1360	1	4	0	160	10	0	0	100
fixed	5	1	11	928245	5	2	2	1	0	2213	1	4	0	144	11	0	0	100
fixed	5	1	12	931407	4	3	3	1	0	631	1	4	0	152	12	0	0	100
fixed	5	2	1	932763	4	1	1	1	0	1221	1	4	0	136	13	0	0	100
fixed	5	2	2	935029	1	2	2	1	0	334	1	4	0	144	14	0	0	100
fixed	5	2	3	935890	6	4	4	1	0	585	1	4	0	160	15	0	0	100
fixed	5	2	4	937136	2	1	1	1	0	709	1	4	0	136	16	0	0	100
fixed	5	2	5	938384	5	3	3	1	0	736	1	4	0	152	17	0	0	100
fixed	5	2	6	939952	6	4	4	1	0	757	1	4	0	160	18	0	0	100
fixed	5	2	7	941359	3	1	1	1	0	850	1	4	0	136	19	0	0	100
fixed	5	2	8	943225	2	3	3	1	0	1082	1	4	0	152	20	0	0	100
fixed	5	2	9	945321	3	2	2	1	0	618	1	4	0	144	21	0	0	100
fixed	5	2	10	946955	1	4	4	1	0	773	1	4	0	160	22	0	0	100
fixed	5	2	11	948386	5	2	2	1	0	1232	1	4	0	144	23	0	0	100
fixed	5	2	12	950234	4	3	3	1	0	538	1	4	0	152	24	0	0	100
fixed	5	3	1	951927	4	1	1	1	0	666	1	4	0	136	25	0	0	100
fixed	5	3	2	953445	1	2	2	2	0	625	2	4	0	144	26	0	0	100
fixed	5	3	3	954773	6	4	4	1	0	417	1	4	0	160	27	0	0	100
fixed	5	3	4	956203	2	1	1	1	0	765	1	4	0	136	28	0	0	100
fixed	5	3	5	957769	5	3	3	1	0	963	1	4	0	152	29	0	0	100
fixed	5	3	6	959471	6	4	4	1	0	667	1	4	0	160	30	0	0	100
fixed	5	3	7	960642	3	1	1	1	0	737	1	4	0	136	31	0	0	100
fixed	5	3	8	962351	2	3	3	1	0	1224	1	4	0	152	32	0	0	100
fixed	5	3	9	964204	3	2	2	1	0	634	1	4	0	144	33	0	0	100
fixed	5	3	10	965216	1	4	4	1	0	687	1	4	0	160	34	0	0	100
fixed	5	3	11	966436	5	2	2	1	0	771	1	4	0	144	35	0	0	100
fixed	5	3	12	967540	4	3	3	1	0	429	1	4	0	152	36	0	0	100
fixed	5	4	1	968969	4	1	1	1	0	752	1	4	0	136	37	0	0	100
fixed	5	4	2	970364	1	2	2	1	0	445	1	4	0	144	38	0	0	100
fixed	5	4	3	971442	6	4	4	1	0	431	1	4	0	160	39	0	0	100
fixed	5	4	4	972790	2	1	1	1	0	799	1	4	0	136	40	0	0	100
fixed	5	4	5	974317	5	3	3	1	0	925	1	4	0	152	41	0	0	100
fixed	5	4	6	976198	6	4	4	1	0	774	1	4	0	160	42	0	0	100
fixed	5	4	7	977502	3	1	1	1	0	951	1	4	0	136	43	0	0	100
fixed	5	4	8	979360	2	3	3	1	0	1328	1	4	0	152	44	0	0	100
fixed	5	4	9	981611	3	2	2	1	0	777	1	4	0	144	45	0	0	100
fixed	5	4	10	982892	1	4	4	1	0	770	1	4	0	160	46	0	0	100
fixed	5	4	11	984533	5	2	2	1	0	925	1	4	0	144	47	0	0	100
fixed	5	4	12	986010	4	3	3	1	0	326	1	4	0	152	48	0	0	100
fixed	5	5	1	987330	4	1	1	1	0	926	1	4	0	136	49	0	0	100
fixed	5	5	2	989298	1	2	2	1	0	315	1	4	0	144	50	0	0	100
fixed	5	5	3	990291	6	4	4	1	0	409	1	4	0	160	51	0	0	100
fixed	5	5	4	991062	2	1	1	1	0	752	1	4	0	136	52	0	0	100
fixed	5	5	5	992398	5	3	3	1	0	816	1	4	0	152	53	0	0	100
fixed	5	5	6	994139	6	4	4	1	0	966	1	4	0	160	54	0	0	100
fixed	5	5	7	996047	3	1	1	1	0	1141	1	4	0	136	55	0	0	100
fixed	5	5	8	998210	2	3	3	1	0	969	1	4	0	152	56	0	0	100
fixed	5	5	9	999682	3	2	2	1	0	779	1	4	0	144	57	0	0	100
fixed	5	5	10	1001196	1	4	4	1	0	627	1	4	0	160	58	0	0	100
fixed	5	5	11	1002243	5	2	2	1	0	679	1	4	0	144	59	0	0	100
fixed	5	5	12	1003490	4	3	3	1	0	314	1	4	0	152	60	0	0	100
fixed	5	6	1	1004706	4	1	1	1	0	1334	1	4	0	136	61	0	0	100
fixed	5	6	2	1006751	1	2	2	1	0	352	1	4	0	144	62	0	0	100
fixed	5	6	3	1007667	6	4	4	1	0	409	1	4	0	160	63	0	0	100
fixed	5	6	4	1009011	2	1	1	1	0	1416	1	4	0	136	64	0	0	100
fixed	5	6	5	1010956	5	3	3	1	0	622	1	4	0	152	65	0	0	100
fixed	5	6	6	1012224	6	4	4	1	0	664	1	4	0	160	66	0	0	100
fixed	5	6	7	1013724	3	1	1	1	0	1025	1	4	0	136	67	0	0	100
fixed	5	6	8	1015131	2	3	3	2	0	2077	2	4	0	152	68	0	0	100
fixed	5	6	9	1018039	3	2	2	1	0	802	1	4	0	144	69	0	0	100
fixed	5	6	10	1019152	1	4	4	1	0	651	1	4	0	160	70	0	0	100
fixed	5	6	11	1020739	5	2	2	1	0	392	1	4	0	144	71	0	0	100
fixed	5	6	12	1021674	4	3	3	1	0	296	1	4	0	152	72	0	0	100
fixed	5	7	1	1022767	4	1	1	1	0	601	1	4	0	136	73	0	0	100
fixed	5	7	2	1023755	1	2	2	1	0	615	1	4	0	144	74	0	0	100
fixed	5	7	3	1024828	6	4	4	1	0	570	1	4	0	160	75	0	0	100
fixed	5	7	4	1025767	2	1	1	1	0	755	1	4	0	136	76	0	0	100
fixed	5	7	5	1027267	5	3	3	1	0	963	1	4	0	152	77	0	0	100
fixed	5	7	6	1028541	6	4	4	1	0	781	1	4	0	160	78	0	0	100
fixed	5	7	7	1029646	3	1	1	1	0	726	1	4	0	136	79	0	0	100
fixed	5	7	8	1031140	2	3	3	1	0	1399	1	4	0	152	80	0	0	100
fixed	5	7	9	1033185	3	2	2	1	0	568	1	4	0	144	81	0	0	100
fixed	5	7	10	1034069	1	4	4	1	0	539	1	4	0	160	82	0	0	100
fixed	5	7	11	1035264	5	2	2	1	0	368	1	4	0	144	83	0	0	100
fixed	5	7	12	1036482	4	3	3	1	0	236	1	4	0	152	84	0	0	100
fixed	5	8	1	1038005	4	1	1	1	0	764	1	4	0	136	85	0	0	100
fixed	5	8	2	1039279	1	2	2	1	0	398	1	4	0	144	86	0	0	100
fixed	5	8	3	1040143	6	4	4	1	0	385	1	4	0	160	87	0	0	100
fixed	5	8	4	1040992	2	1	1	1	0	1230	1	4	0	136	88	0	0	100
fixed	5	8	5	1042687	5	3	3	1	0	574	1	4	0	152	89	0	0	100
fixed	5	8	6	1043744	6	4	4	1	0	585	1	4	0	160	90	0	0	100
fixed	5	8	7	1044931	3	1	1	1	0	631	1	4	0	136	91	0	0	100
fixed	5	8	8	1046455	2	3	3	1	0	1102	1	4	0	152	92	0	0	100
fixed	5	8	9	1048101	3	2	2	1	0	977	1	4	0	144	93	0	0	100
fixed	5	8	10	1049838	1	4	4	1	0	511	1	4	0	160	94	0	0	100
fixed	5	8	11	1051109	5	2	2	1	0	633	1	4	0	144	95	0	0	100
fixed	5	8	12	1052219	4	3	3	1	0	314	1	4	0	152	96	0	0	100
fixed	5	9	1	1053626	4	1	1	1	0	726	1	4	0	136	97	0	0	100
fixed	5	9	2	1055356	1	2	2	1	0	1621	1	4	0	144	98	0	0	100
fixed	5	9	3	1057854	6	4	4	1	0	419	1	4	0	160	99	0	0	100
fixed	5	9	4	1059318	2	1	1	1	0	366	1	4	0	136	100	0	0	100
fixed	5	9	5	1060488	5	3	3	2	0	1028	2	4	0	152	101	0	0	100
fixed	5	9	6	1062128	6	4	4	1	0	879	1	4	0	160	102	0	0	100
fixed	5	9	7	1064015	3	1	1	1	0	319	1	4	0	136	103	0	0	100
fixed	5	9	8	1064686	2	3	3	1	0	1178	1	4	0	152	104	0	0	100
fixed	5	9	9	1066854	3	2	2	1	0	671	1	4	0	144	105	0	0	100
fixed	5	9	10	1068081	1	4	4	1	0	490	1	4	0	160	106	0	0	100
fixed	5	9	11	1069369	5	2	2	1	0	836	1	4	0	144	107	0	0	100
fixed	5	9	12	1071240	4	3	3	1	0	212	1	4	0	152	108	0	0	100
fixed	5	10	1	1072606	4	1	1	1	0	890	1	4	0	136	109	0	0	100
fixed	5	10	2	1074110	1	2	2	1	0	443	1	4	0	144	110	0	0	100
fixed	5	10	3	1075382	6	4	4	1	0	685	1	4	0	160	111	0	0	100
fixed	5	10	4	1076487	2	1	1	1	0	1334	1	4	0	136	112	0	0	100
fixed	5	10	5	1078787	5	3	3	1	0	965	1	4	0	152	113	0	0	100
fixed	5	10	6	1080503	6	4	4	1	0	668	1	4	0	160	114	0	0	100
fixed	5	10	7	1081827	3	1	1	1	0	1036	1	4	0	136	115	0	0	100
fixed	5	10	8	1083270	2	3	3	1	0	1119	1	4	0	152	116	0	0	100
fixed	5	10	9	1085082	3	2	2	1	0	906	1	4	0	144	117	0	0	100
fixed	5	10	10	1086690	1	4	4	1	0	582	1	4	0	160	118	0	0	100
fixed	5	10	11	1087920	5	2	2	1	0	418	1	4	0	144	119	0	0	100
fixed	5	10	12	1088793	4	3	3	1	0	477	1	4	0	152	120	0	0	100
random	6	1	1	1178547	6	1	1	1	0	1307	1	4	0	168	1	0	0	100
random	6	1	2	1180754	4	4	4	1	0	854	1	4	0	192	2	0	0	100
random	6	1	3	1182486	2	2	2	1	0	893	1	4	0	176	3	0	0	100
random	6	1	4	1183837	3	3	3	1	0	1364	1	4	0	184	4	0	0	100
random	6	1	5	1185512	5	2	2	1	0	1013	1	4	0	176	5	0	0	100
random	6	1	6	1187372	1	4	4	1	0	869	1	4	0	192	6	0	0	100
random	6	1	7	1188664	6	1	1	1	0	1151	1	4	0	168	7	0	0	100
random	6	1	8	1190386	2	3	3	1	0	1086	1	4	0	184	8	0	0	100
random	6	1	9	1192427	4	2	2	1	0	760	1	4	0	176	9	0	0	100
random	6	1	10	1193788	1	1	1	1	0	894	1	4	0	168	10	0	0	100
random	6	1	11	1195526	5	4	4	1	0	708	1	4	0	192	11	0	0	100
random	6	1	12	1196737	3	3	3	1	0	1009	1	4	0	184	12	0	0	100
random	6	1	13	1198599	5	2	2	1	0	850	1	4	0	176	13	0	0	100
random	6	1	14	1199820	1	4	4	1	0	766	1	4	0	192	14	0	0	100
random	6	1	15	1201559	3	1	1	1	0	685	1	4	0	168	15	0	0	100
random	6	1	16	1202810	4	3	3	1	0	1000	1	4	0	184	16	0	0	100
random	6	1	17	1204677	6	4	4	1	0	737	1	4	0	192	17	0	0	100
random	6	1	18	1206072	2	1	1	1	0	806	1	4	0	168	18	0	0	100
random	6	1	19	1207850	5	3	3	1	0	1355	1	4	0	184	19	0	0	100
random	6	1	20	1210182	2	2	2	1	0	632	1	4	0	176	20	0	0	100
random	6	1	21	1211695	3	3	3	1	0	1375	1	4	0	184	21	0	0	100
random	6	1	22	1213768	6	1	1	1	0	927	1	4	0	168	22	0	0	100
random	6	1	23	1215642	4	2	2	1	0	936	1	4	0	176	23	0	0	100
random	6	1	24	1217129	1	4	4	1	0	705	1	4	0	192	24	0	0	100
random	6	1	25	1218665	4	3	3	1	0	1040	1	4	0	184	25	0	0	100
random	6	1	26	1220585	2	1	1	1	0	1015	1	4	0	168	26	0	0	100
random	6	1	27	1222202	5	2	2	1	0	1403	1	4	0	176	27	0	0	100
random	6	1	28	1224506	6	4	4	1	0	969	1	4	0	192	28	0	0	100
random	6	1	29	1226439	1	3	3	1	0	815	1	4	0	184	29	0	0	100
random	6	1	30	1227707	5	2	2	1	0	913	1	4	0	176	30	0	0	100
random	6	1	31	1229029	2	1	1	1	0	969	1	4	0	168	31	0	0	100
random	6	1	32	1230500	3	3	3	1	0	883	1	4	0	184	32	0	0	100
random	6	1	33	1232337	6	4	4	1	0	621	1	4	0	192	33	0	0	100
random	6	1	34	1233726	4	2	2	1	0	738	1	4	0	176	34	0	0	100
random	6	1	35	1235292	3	4	4	1	0	776	1	4	0	192	35	0	0	100
random	6	1	36	1236768	1	1	1	1	0	698	1	4	0	168	36	0	0	100
random	6	1	37	1238580	3	4	4	1	0	1221	1	4	0	192	37	0	0	100
random	6	1	38	1240322	5	3	3	1	0	1147	1	4	0	184	38	0	0	100
random	6	1	39	1242046	6	1	1	1	0	746	1	4	0	168	39	0	0	100
random	6	1	40	1243719	1	2	2	1	0	851	1	4	0	176	40	0	0	100
random	6	1	41	1245505	2	3	3	1	0	640	1	4	0	184	41	0	0	100
random	6	1	42	1246573	4	4	4	1	0	746	1	4	0	192	42	0	0	100
random	6	1	43	1248324	1	2	2	1	0	896	1	4	0	176	43	0	0	100
random	6	1	44	1250123	6	3	3	1	0	956	1	4	0	184	44	0	0	100
random	6	1	45	1251717	3	1	1	1	0	792	1	4	0	168	45	0	0	100
random	6	1	46	1253428	4	4	4	1	0	880	1	4	0	192	46	0	0	100
random	6	1	47	1255210	2	2	2	1	0	804	1	4	0	176	47	0	0	100
random	6	1	48	1256795	5	1	1	1	0	857	1	4	0	168	48	0	0	100
random	6	1	49	1258563	2	3	3	1	0	1238	1	4	0	184	49	0	0	100
random	6	1	50	1260718	3	1	1	1	0	819	1	4	0	168	50	0	0	100
random	6	1	51	1262158	1	4	4	1	0	822	1	4	0	192	51	0	0	100
random	6	1	52	1263444	5	3	3	1	0	944	1	4	0	184	52	0	0	100
random	6	1	53	1265412	3	2	2	1	0	692	1	4	0	176	53	0	0	100
random	6	1	54	1266558	6	4	4	1	0	700	1	4	0	192	54	0	0	100
random	6	1	55	1268060	4	2	2	2	0	1556	2	4	0	176	55	0	0	100
random	6	1	56	1270134	1	1	1	1	0	780	1	4	0	168	56	0	0	100
random	6	1	57	1271729	5	4	4	1	0	641	1	4	0	192	57	0	0	100
random	6	1	58	1272857	2	1	1	1	0	1161	1	4	0	168	58	0	0	100
random	6	1	59	1275050	6	2	2	1	0	1772	1	4	0	176	59	0	0	100
random	6	1	60	1277811	4	3	3	1	0	679	1	4	0	184	60	0	0	100
random	6	1	61	1279447	1	2	2	1	0	1018	1	4	0	176	61	0	0	100
random	6	1	62	1281109	6	4	4	1	0	900	1	4	0	192	62	0	0	100
random	6	1	63	1282656	4	1	1	1	0	770	1	4	0	168	63	0	0	100
random	6	1	64	1284400	2	2	2	1	0	896	1	4	0	176	64	0	0	100
random	6	1	65	1285762	4	3	3	1	0	718	1	4	0	184	65	0	0	100
random	6	1	66	1286863	3	1	1	1	0	735	1	4	0	168	66	0	0	100
random	6	1	67	1288461	1	3	3	1	0	1372	1	4	0	184	67	0	0	100
random	6	1	68	1290385	5	4	4	1	0	643	1	4	0	192	68	0	0	100
random	6	1	69	1291499	2	2	2	1	0	827	1	4	0	176	69	0	0	100
random	6	1	70	1292786	3	1	1	1	0	885	1	4	0	168	70	0	0	100
random	6	1	71	1294579	5	4	4	1	0	889	1	4	0	192	71	0	0	100
random	6	1	72	1296443	6	3	3	1	0	1274	1	4	0	184	72	0	0	100
random	6	1	73	1298978	2	1	1	1	0	902	1	4	0	168	73	0	0	100
random	6	1	74	1300555	5	3	3	1	0	1252	1	4	0	184	74	0	0	100
random	6	1	75	1302350	1	4	4	1	0	832	1	4	0	192	75	0	0	100
random	6	1	76	1304171	6	2	2	1	0	1091	1	4	0	176	76	0	0	100
random	6	1	77	1305550	2	1	1	1	0	1480	1	4	0	168	77	0	0	100
random	6	1	78	1307528	4	4	4	1	0	2349	1	4	0	192	78	0	0	100
random	6	1	79	1310438	3	2	2	1	0	913	1	4	0	176	79	0	0	100
random	6	1	80	1311723	4	3	3	1	0	587	1	4	0	184	80	0	0	100
random	6	1	81	1312781	1	4	4	1	0	630	1	4	0	192	81	0	0	100
random	6	1	82	1314064	5	1	1	1	0	575	1	4	0	168	82	0	0	100
random	6	1	83	1315435	3	2	2	1	0	869	1	4	0	176	83	0	0	100
random	6	1	84	1316702	6	3	3	1	0	768	1	4	0	184	84	0	0	100
random	6	1	85	1318142	3	2	2	1	0	779	1	4	0	176	85	0	0	100
random	6	1	86	1319794	1	3	3	1	0	621	1	4	0	184	86	0	0	100
random	6	1	87	1321145	4	4	4	1	0	828	1	4	0	192	87	0	0	100
random	6	1	88	1322325	2	1	1	1	0	634	1	4	0	168	88	0	0	100
random	6	1	89	1323366	6	4	4	1	0	814	1	4	0	192	89	0	0	100
random	6	1	90	1324863	3	3	3	1	0	1214	1	4	0	184	90	0	0	100
random	6	1	91	1326490	5	4	4	1	0	810	1	4	0	192	91	0	0	100
random	6	1	92	1328060	1	2	2	1	0	719	1	4	0	176	92	0	0	100
random	6	1	93	1329524	5	1	1	1	0	809	1	4	0	168	93	0	0	100
random	6	1	94	1330870	4	3	3	1	0	936	1	4	0	184	94	0	0	100
random	6	1	95	1332404	6	1	1	1	0	671	1	4	0	168	95	0	0	100
random	6	1	96	1333474	2	2	2	1	0	906	1	4	0	176	96	0	0	100
random	6	1	97	1335451	4	3	3	1	0	837	1	4	0	184	97	0	0	100
random	6	1	98	1336839	3	2	2	1	0	755	1	4	0	176	98	0	0	100
random	6	1	99	1338575	6	3	3	1	0	681	1	4	0	184	99	0	0	100
random	6	1	100	1339771	1	4	4	1	0	615	1	4	0	192	100	0	0	100
random	6	1	101	1341027	4	1	1	1	0	858	1	4	0	168	101	0	0	100
random	6	1	102	1342613	5	2	2	1	0	975	1	4	0	176	102	0	0	100
random	6	1	103	1344568	2	4	4	1	0	1300	1	4	0	192	103	0	0	100
random	6	1	104	1346202	3	1	1	1	0	806	1	4	0	168	104	0	0	100
random	6	1	105	1347761	1	3	3	1	0	1157	1	4	0	184	105	0	0	100
random	6	1	106	1349374	2	2	2	1	0	832	1	4	0	176	106	0	0	100
random	6	1	107	1350819	5	4	4	1	0	699	1	4	0	192	107	0	0	100
random	6	1	108	1352487	6	1	1	1	0	748	1	4	0	168	108	0	0	100
random	6	1	109	1353963	5	4	4	1	0	861	1	4	0	192	109	0	0	100
random	6	1	110	1355829	6	3	3	1	0	903	1	4	0	184	110	0	0	100
random	6	1	111	1357028	2	2	2	1	0	764	1	4	0	176	111	0	0	100
random	6	1	112	1358793	3	1	1	1	0	849	1	4	0	168	112	0	0	100
random	6	1	113	1360625	1	2	2	1	0	1020	1	4	0	176	113	0	0	100
random	6	1	114	1362426	2	3	3	1	0	519	1	4	0	184	114	0	0	100
random	6	1	115	1363801	3	1	1	1	0	1037	1	4	0	168	115	0	0	100
random	6	1	116	1365328	4	4	4	1	0	756	1	4	0	192	116	0	0	100
random	6	1	117	1366482	6	1	1	1	0	995	1	4	0	168	117	0	0	100
random	6	1	118	1368216	5	3	3	1	0	1250	1	4	0	184	118	0	0	100
random	6	1	119	1370126	1	4	4	1	0	1121	1	4	0	192	119	0	0	100
random	6	1	120	1371815	4	2	2	1	0	810	1	4	0	176	120	0	0	100
fixed	7	1	1	1373476	4	1	1	1	0	611	1	4	0	200	1	0	0	100
fixed	7	1	2	1374603	1	2	2	1	0	699	1	4	0	208	2	0	0	100
fixed	7	1	3	1375617	6	4	4	1	0	664	1	4	0	224	3	0	0	100
fixed	7	1	4	1377071	2	1	1	1	0	1067	1	4	0	200	4	0	0	100
fixed	7	1	5	1378692	5	3	3	1	0	1078	1	4	0	216	5	0	0	100
fixed	7	1	6	1380144	6	4	4	1	0	2425	1	4	0	224	6	0	0	100
fixed	7	1	7	1383097	3	1	1	1	0	612	1	4	0	200	7	0	0	100
fixed	7	1	8	1384165	2	3	3	1	0	983	1	4	0	216	8	0	0	100
fixed	7	1	9	1385802	3	2	2	1	0	601	1	4	0	208	9	0	0	100
fixed	7	1	10	1386964	1	4	4	1	0	736	1	4	0	224	10	0	0	100
fixed	7	1	11	1388054	5	2	2	1	0	1162	1	4	0	208	11	0	0	100
fixed	7	1	12	1389622	4	3	3	1	0	615	1	4	0	216	12	0	0	100
fixed	7	2	1	1391522	4	1	1	1	0	703	1	4	0	200	1	0	0	8
fixed	7	2	2	1392694	1	2	2	1	0	1277	1	4	0	208	2	0	0	14
fixed	7	2	3	1394859	6	4	4	1	0	826	1	4	0	224	3	0	0	20
fixed	7	2	4	1396460	2	1	1	1	0	846	1	4	0	200	4	0	0	25
fixed	7	2	5	1397725	5	3	3	1	0	920	1	4	0	216	5	0	0	29
fixed	7	2	6	1399337	6	4	4	1	0	1108	1	4	0	224	6	0	0	33
fixed	7	2	7	1401028	3	1	1	1	0	1156	1	4	0	200	7	0	0	37
fixed	7	2	8	1402781	2	3	3	2	0	1906	2	4	0	216	8	0	0	40
fixed	7	2	9	1405489	3	2	2	1	0	567	1	4	0	208	9	0	0	43
fixed	7	2	10	1406476	1	4	4	1	0	597	1	4	0	224	10	0	0	45
fixed	7	2	11	1407763	5	2	2	1	0	871	1	4	0	208	11	0	0	48
fixed	7	2	12	1409228	4	3	3	1	0	697	1	4	0	216	12	0	0	50
fixed	7	3	1	1411120	4	1	1	1	0	833	1	4	0	200	1	0	0	4
fixed	7	3	2	1412582	1	2	2	1	0	1131	1	4	0	208	2	0	0	8
fixed	7	3	3	1414528	6	4	0	0	2	0	3	4	0	224	2	0	1	7
fixed	7	3	4	1418034	2	1	1	1	0	764	1	4	0	200	3	0	1	11
fixed	7	3	5	1419820	5	3	3	1	0	961	1	4	0	216	4	0	1	14
fixed	7	3	6	1421512	6	4	4	1	0	736	1	4	0	224	5	0	1	17
fixed	7	3	7	1422984	3	1	1	1	0	650	1	4	0	200	6	0	1	19
fixed	7	3	8	1424043	2	3	3	1	0	1037	1	4	0	216	7	0	1	22
fixed	7	3	9	1425706	3	2	2	1	0	583	1	4	0	208	8	0	1	24
fixed	7	3	10	1426645	1	4	4	1	0	583	1	4	0	224	9	0	1	26
fixed	7	3	11	1427702	5	2	2	1	0	915	1	4	0	208	10	0	1	29
fixed	7	3	12	1428976	4	3	3	1	0	517	1	4	0	216	11	0	1	31
fixed	7	4	1	1430384	4	1	1	1	0	681	1	4	0	200	1	0	0	3
fixed	7	4	2	1431596	1	2	2	1	0	366	1	4	0	208	2	0	0	5
fixed	7	4	3	1432668	6	4	4	1	0	400	1	4	0	224	3	0	0	8
fixed	7	4	4	1434055	2	1	1	1	0	310	1	4	0	200	4	0	0	10
fixed	7	4	5	1435045	5	3	3	1	0	1067	1	4	0	216	5	0	0	12
fixed	7	4	6	1436862	6	4	4	1	0	607	1	4	0	224	6	0	0	14
fixed	7	4	7	1438449	3	1	1	1	0	771	1	4	0	200	7	0	0	16
fixed	7	4	8	1439944	2	3	3	1	0	996	1	4	0	216	8	0	0	18
fixed	7	4	9	1441756	3	2	2	1	0	415	1	4	0	208	9	0	0	20
fixed	7	4	10	1442865	1	4	4	1	0	608	1	4	0	224	10	0	0	22
fixed	7	4	11	1444191	5	2	2	1	0	672	1	4	0	208	11	0	0	23
fixed	7	4	12	1445439	4	3	3	1	0	315	1	4	0	216	12	0	0	25
fixed	7	5	1	1446708	4	1	1	1	0	717	1	4	0	200	1	0	0	2
fixed	7	5	2	1447817	1	2	2	1	0	694	1	4	0	208	2	0	0	4
fixed	7	5	3	1449176	6	4	4	1	0	677	1	4	0	224	3	0	0	6
fixed	7	5	4	1450391	2	1	1	1	0	858	1	4	0	200	4	0	0	8
fixed	7	5	5	1451689	5	3	3	1	0	914	1	4	0	216	5	0	0	9
fixed	7	5	6	1453594	6	4	4	1	0	706	1	4	0	224	6	0	0	11
fixed	7	5	7	1455079	3	1	1	1	0	947	1	4	0	200	7	0	0	13
fixed	7	5	8	1457039	2	3	3	1	0	792	1	4	0	216	8	0	0	14
fixed	7	5	9	1458161	3	2	2	1	0	752	1	4	0	208	9	0	0	16
fixed	7	5	10	1459414	1	4	4	1	0	579	1	4	0	224	10	0	0	17
fixed	7	5	11	1460410	5	2	2	1	0	849	1	4	0	208	11	0	0	19
fixed	7	5	12	1461801	4	3	3	1	0	478	1	4	0	216	12	0	0	20
fixed	7	6	1	1463031	4	1	1	1	0	810	1	4	0	200	1	0	0	2
fixed	7	6	2	1464254	1	2	2	1	0	830	1	4	0	208	2	0	0	3
fixed	7	6	3	1465943	6	4	4	1	0	871	1	4	0	224	3	0	0	5
fixed	7	6	4	1467408	2	1	1	1	0	720	1	4	0	200	4	0	0	6
fixed	7	6	5	1468858	5	3	3	2	0	1196	2	4	0	216	5	0	0	8
fixed	7	6	6	1470881	6	4	4	1	0	837	1	4	0	224	6	0	0	9
fixed	7	6	7	1472111	3	1	1	1	0	1186	1	4	0	200	7	0	0	10
fixed	7	6	8	1473582	2	3	3	1	0	1307	1	4	0	216	8	0	0	12
fixed	7	6	9	1475194	3	2	2	1	0	2007	1	4	0	208	9	0	0	13
fixed	7	6	10	1478159	1	4	4	1	0	985	1	4	0	224	10	0	0	14
fixed	7	6	11	1480134	5	2	2	1	0	598	1	4	0	208	11	0	0	15
fixed	7	6	12	1481573	4	3	3	1	0	280	1	4	0	216	12	0	0	17
fixed	7	7	1	1483047	4	1	1	1	0	850	1	4	0	200	1	0	0	1
fixed	7	7	2	1484906	1	2	2	1	0	619	1	4	0	208	2	0	0	3
fixed	7	7	3	1485881	6	4	4	1	0	666	1	4	0	224	3	0	0	4
fixed	7	7	4	1487520	2	1	1	1	0	805	1	4	0	200	4	0	0	5
fixed	7	7	5	1488818	5	3	3	1	0	798	1	4	0	216	5	0	0	6
fixed	7	7	6	1490085	6	4	4	1	0	704	1	4	0	224	6	0	0	8
fixed	7	7	7	1491728	3	1	1	1	0	851	1	4	0	200	7	0	0	9
fixed	7	7	8	1493518	2	3	3	1	0	879	1	4	0	216	8	0	0	10
fixed	7	7	9	1495047	3	2	2	1	0	582	1	4	0	208	9	0	0	11
fixed	7	7	10	1496242	1	4	4	1	0	420	1	4	0	224	10	0	0	12
fixed	7	7	11	1497142	5	2	2	1	0	445	1	4	0	208	11	0	0	13
fixed	7	7	12	1498504	4	3	3	1	0	259	1	4	0	216	12	0	0	14
fixed	7	8	1	1499955	4	1	1	1	0	702	1	4	0	200	1	0	0	1
fixed	7	8	2	1501302	1	2	2	1	0	365	1	4	0	208	2	0	0	2
fixed	7	8	3	1502374	6	4	4	1	0	472	1	4	0	224	3	0	0	3
fixed	7	8	4	1503259	2	1	1	1	0	994	1	4	0	200	4	0	0	5
fixed	7	8	5	1505081	5	3	3	1	0	797	1	4	0	216	5	0	0	6
fixed	7	8	6	1506405	6	4	4	1	0	701	1	4	0	224	6	0	0	7
fixed	7	8	7	1507732	3	1	1	1	0	925	1	4	0	200	7	0	0	8
fixed	7	8	8	1509581	2	3	3	1	0	902	1	4	0	216	8	0	0	9
fixed	7	8	9	1511519	3	2	2	1	0	716	1	4	0	208	9	0	0	10
fixed	7	8	10	1513054	1	4	4	1	0	451	1	4	0	224	10	0	0	11
fixed	7	8	11	1513875	5	2	2	1	0	1064	1	4	0	208	11	0	0	12
fixed	7	8	12	1515814	4	3	3	1	0	654	1	4	0	216	12	0	0	13
fixed	7	9	1	1517147	4	1	1	1	0	934	1	4	0	200	1	0	0	1
fixed	7	9	2	1518407	1	2	2	1	0	1729	1	4	0	208	2	0	0	2
fixed	7	9	3	1521115	6	4	4	1	0	678	1	4	0	224	3	0	0	3
fixed	7	9	4	1522353	2	1	1	1	0	642	1	4	0	200	4	0	0	4
fixed	7	9	5	1523355	5	3	3	1	0	1023	1	4	0	216	5	0	0	5
fixed	7	9	6	1525152	6	4	4	1	0	763	1	4	0	224	6	0	0	6
fixed	7	9	7	1526712	3	1	1	1	0	657	1	4	0	200	7	0	0	7
fixed	7	9	8	1528372	2	3	3	1	0	1682	1	4	0	216	8	0	0	8
fixed	7	9	9	1530832	3	2	2	1	0	682	1	4	0	208	9	0	0	9
fixed	7	9	10	1531833	1	4	4	1	0	616	1	4	0	224	10	0	0	9
fixed	7	9	11	1532748	5	2	2	1	0	1073	1	4	0	208	11	0	0	10
fixed	7	9	12	1534537	4	3	3	1	0	277	1	4	0	216	12	0	0	11
fixed	7	10	1	1535609	4	1	1	1	0	792	1	4	0	200	1	0	0	1
fixed	7	10	2	1537094	1	2	2	1	0	289	1	4	0	208	2	0	0	2
fixed	7	10	3	1538363	6	4	4	1	0	891	1	4	0	224	3	0	0	3
fixed	7	10	4	1539670	2	1	1	1	0	932	1	4	0	200	4	0	0	4
fixed	7	10	5	1541050	5	3	3	1	0	1266	1	4	0	216	5	0	0	4
fixed	7	10	6	1542778	6	4	4	1	0	824	1	4	0	224	6	0	0	5
fixed	7	10	7	1543896	3	1	1	1	0	1161	1	4	0	200	7	0	0	6
fixed	7	10	8	1545864	2	3	0	0	2	0	3	4	0	216	7	0	1	6
fixed	7	10	9	1548938	3	2	2	1	0	1908	1	4	0	208	8	0	1	7
fixed	7	10	10	1551223	1	4	4	1	0	803	1	4	0	224	9	0	1	8
fixed	7	10	11	1552616	5	2	2	1	0	815	1	4	0	208	10	0	1	8
fixed	7	10	12	1554362	4	3	3	1	0	318	1	4	0	216	11	0	1	9
