type	block	sequ.	trial	time	Pos.	Color	Button	NumRsp	Resp_1	RT_1	R_Code	Resp_2	RT_2	Trigg.	n_hit	n_inc	n_miss	score_%

random	1	1	1	3141	6	1	1	1	0	865	1	4	0	8	1	0	0	100
random	1	1	2	4539	4	4	4	1	0	886	1	4	0	32	2	0	0	100
random	1	1	3	5777	2	2	2	1	0	1186	1	4	0	16	3	0	0	100
random	1	1	4	7657	3	3	3	1	0	554	1	4	0	24	4	0	0	100
random	1	1	5	9010	5	2	2	1	0	865	1	4	0	16	5	0	0	100
random	1	1	6	10772	1	4	4	1	0	622	1	4	0	32	6	0	0	100
random	1	1	7	12328	6	1	1	1	0	420	1	4	0	8	7	0	0	100
random	1	1	8	13351	2	3	3	1	0	825	1	4	0	24	8	0	0	100
random	1	1	9	14526	4	2	2	1	0	655	1	4	0	16	9	0	0	100
random	1	1	10	15607	1	1	1	1	0	1129	1	4	0	8	10	0	0	100
random	1	1	11	17131	5	4	4	1	0	569	1	4	0	32	11	0	0	100
random	1	1	12	18352	3	3	3	1	0	677	1	4	0	24	12	0	0	100
random	1	1	13	20051	5	2	2	1	0	989	1	4	0	16	13	0	0	100
random	1	1	14	21498	1	4	4	1	0	552	1	4	0	32	14	0	0	100
random	1	1	15	23081	3	1	1	1	0	805	1	4	0	8	15	0	0	100
random	1	1	16	24672	4	3	3	1	0	857	1	4	0	24	16	0	0	100
random	1	1	17	26254	6	4	4	1	0	638	1	4	0	32	17	0	0	100
random	1	1	18	27304	2	1	1	1	0	786	1	4	0	8	18	0	0	100
random	1	1	19	28956	5	3	3	1	0	1156	1	4	0	24	19	0	0	100
random	1	1	20	30453	2	2	2	1	0	613	1	4	0	16	20	0	0	100
random	1	1	21	32093	3	3	3	1	0	1279	1	4	0	24	21	0	0	100
random	1	1	22	34019	6	1	1	1	0	909	1	4	0	8	22	0	0	100
random	1	1	23	35583	4	2	2	1	0	835	1	4	0	16	23	0	0	100
random	1	1	24	37298	1	4	4	1	0	754	1	4	0	32	24	0	0	100
random	1	1	25	39015	4	3	3	1	0	1762	1	4	0	24	25	0	0	100
random	1	1	26	41317	2	1	1	1	0	689	1	4	0	8	26	0	0	100
random	1	1	27	42493	5	2	2	1	0	1030	1	4	0	16	27	0	0	100
random	1	1	28	43932	6	4	4	1	0	594	1	4	0	32	28	0	0	100
random	1	1	29	45409	1	3	3	1	0	931	1	4	0	24	29	0	0	100
random	1	1	30	47001	5	2	2	1	0	663	1	4	0	16	30	0	0	100
random	1	1	31	48320	2	1	1	1	0	1015	1	4	0	8	31	0	0	100
random	1	1	32	50350	3	3	3	1	0	978	1	4	0	24	32	0	0	100
random	1	1	33	52031	6	4	4	1	0	1082	1	4	0	32	33	0	0	100
random	1	1	34	53415	4	2	2	1	0	928	1	4	0	16	34	0	0	100
random	1	1	35	54692	3	4	4	1	0	762	1	4	0	32	35	0	0	100
random	1	1	36	56269	1	1	1	1	0	735	1	4	0	8	36	0	0	100
random	1	1	37	57978	3	4	4	1	0	1198	1	4	0	32	37	0	0	100
random	1	1	38	59933	5	3	3	1	0	1476	1	4	0	24	38	0	0	100
random	1	1	39	61938	6	1	1	1	0	679	1	4	0	8	39	0	0	100
random	1	1	40	63221	1	2	2	1	0	929	1	4	0	16	40	0	0	100
random	1	1	41	64835	2	3	3	1	0	980	1	4	0	24	41	0	0	100
random	1	1	42	66165	4	4	4	1	0	1428	1	4	0	32	42	0	0	100
random	1	1	43	68172	1	2	2	1	0	903	1	4	0	16	43	0	0	100
random	1	1	44	69508	6	3	3	1	0	902	1	4	0	24	44	0	0	100
random	1	1	45	70929	3	1	1	1	0	922	1	4	0	8	45	0	0	100
random	1	1	46	72656	4	4	4	1	0	1041	1	4	0	32	46	0	0	100
random	1	1	47	74061	2	2	2	1	0	1542	1	4	0	16	47	0	0	100
random	1	1	48	76556	5	1	1	1	0	764	1	4	0	8	48	0	0	100
random	1	1	49	77911	2	3	3	1	0	826	1	4	0	24	49	0	0	100
random	1	1	50	79512	3	1	1	1	0	934	1	4	0	8	50	0	0	100
random	1	1	51	81117	1	4	4	1	0	722	1	4	0	32	51	0	0	100
random	1	1	52	82500	5	3	3	1	0	1456	1	4	0	24	52	0	0	100
random	1	1	53	84767	3	2	2	1	0	824	1	4	0	16	53	0	0	100
random	1	1	54	86302	6	4	4	1	0	743	1	4	0	32	54	0	0	100
random	1	1	55	88022	4	2	2	1	0	1054	1	4	0	16	55	0	0	100
random	1	1	56	89686	1	1	1	1	0	976	1	4	0	8	56	0	0	100
random	1	1	57	91083	5	4	4	1	0	677	1	4	0	32	57	0	0	100
random	1	1	58	92735	2	1	1	1	0	734	1	4	0	8	58	0	0	100
random	1	1	59	94449	6	2	2	1	0	710	1	4	0	16	59	0	0	100
random	1	1	60	95872	4	3	3	1	0	1129	1	4	0	24	60	0	0	100
random	1	1	61	98027	1	2	2	1	0	1974	1	4	0	16	61	0	0	100
random	1	1	62	100781	6	4	4	1	0	657	1	4	0	32	62	0	0	100
random	1	1	63	102280	4	1	1	1	0	674	1	4	0	8	63	0	0	100
random	1	1	64	103695	2	2	2	1	0	806	1	4	0	16	64	0	0	100
random	1	1	65	104940	4	3	3	1	0	874	1	4	0	24	65	0	0	100
random	1	1	66	106824	3	1	1	1	0	690	1	4	0	8	66	0	0	100
random	1	1	67	108270	1	3	3	1	0	900	1	4	0	24	67	0	0	100
random	1	1	68	109847	5	4	4	1	0	642	1	4	0	32	68	0	0	100
random	1	1	69	111514	2	2	2	1	0	699	1	4	0	16	69	0	0	100
random	1	1	70	113027	3	1	1	1	0	747	1	4	0	8	70	0	0	100
random	1	1	71	114478	5	4	4	1	0	798	1	4	0	32	71	0	0	100
random	1	1	72	115641	6	3	3	1	0	852	1	4	0	24	72	0	0	100
random	1	1	73	117140	2	1	1	1	0	1117	1	4	0	8	73	0	0	100
random	1	1	74	118691	5	3	3	1	0	1148	1	4	0	24	74	0	0	100
random	1	1	75	120119	1	4	4	1	0	1183	1	4	0	32	75	0	0	100
random	1	1	76	122140	6	2	2	1	0	897	1	4	0	16	76	0	0	100
random	1	1	77	123500	2	1	1	1	0	1208	1	4	0	8	77	0	0	100
random	1	1	78	125707	4	4	4	1	0	706	1	4	0	32	78	0	0	100
random	1	1	79	126753	3	2	2	2	0	1486	2	4	0	16	79	0	0	100
random	1	1	80	128572	4	3	3	1	0	1025	1	4	0	24	80	0	0	100
random	1	1	81	130513	1	4	4	1	0	846	1	4	0	32	81	0	0	100
random	1	1	82	132141	5	1	1	1	0	674	1	4	0	8	82	0	0	100
random	1	1	83	133837	3	2	2	2	0	1650	2	4	0	16	83	0	0	100
random	1	1	84	135889	6	3	3	1	0	771	1	4	0	24	84	0	0	100
random	1	1	85	137640	3	2	2	1	0	960	1	4	0	16	85	0	0	100
random	1	1	86	138921	1	3	3	1	0	819	1	4	0	24	86	0	0	100
random	1	1	87	140517	4	4	4	1	0	727	1	4	0	32	87	0	0	100
random	1	1	88	141801	2	1	1	1	0	736	1	4	0	8	88	0	0	100
random	1	1	89	143508	6	4	4	1	0	1176	1	4	0	32	89	0	0	100
random	1	1	90	145031	3	3	3	1	0	712	1	4	0	24	90	0	0	100
random	1	1	91	146248	5	4	4	1	0	820	1	4	0	32	91	0	0	100
random	1	1	92	147589	1	2	2	1	0	1019	1	4	0	16	92	0	0	100
random	1	1	93	149027	5	1	1	1	0	846	1	4	0	8	93	0	0	100
random	1	1	94	150471	4	3	3	1	0	1065	1	4	0	24	94	0	0	100
random	1	1	95	152432	6	1	1	1	0	1030	1	4	0	8	95	0	0	100
random	1	1	96	153760	2	2	2	1	0	1070	1	4	0	16	96	0	0	100
random	1	1	97	155434	4	3	3	1	0	823	1	4	0	24	97	0	0	100
random	1	1	98	156764	3	2	2	1	0	727	1	4	0	16	98	0	0	100
random	1	1	99	158137	6	3	3	1	0	829	1	4	0	24	99	0	0	100
random	1	1	100	159679	1	4	4	1	0	1467	1	4	0	32	100	0	0	100
random	1	1	101	161692	4	1	1	1	0	702	1	4	0	8	101	0	0	100
random	1	1	102	163340	5	2	2	1	0	992	1	4	0	16	102	0	0	100
random	1	1	103	164692	2	4	4	1	0	1023	1	4	0	32	103	0	0	100
random	1	1	104	166483	3	1	1	1	0	1155	1	4	0	8	104	0	0	100
random	1	1	105	168563	1	3	3	1	0	1067	1	4	0	24	105	0	0	100
random	1	1	106	170600	2	2	2	1	0	725	1	4	0	16	106	0	0	100
random	1	1	107	172014	5	4	4	1	0	689	1	4	0	32	107	0	0	100
random	1	1	108	173719	6	1	1	1	0	1192	1	4	0	8	108	0	0	100
random	1	1	109	175817	5	4	4	1	0	743	1	4	0	32	109	0	0	100
random	1	1	110	176930	6	3	3	1	0	921	1	4	0	24	110	0	0	100
random	1	1	111	178415	2	2	2	1	0	811	1	4	0	16	111	0	0	100
random	1	1	112	180023	3	1	1	1	0	774	1	4	0	8	112	0	0	100
random	1	1	113	181437	1	2	2	1	0	1114	1	4	0	16	113	0	0	100
random	1	1	114	183018	2	3	3	1	0	734	1	4	0	24	114	0	0	100
random	1	1	115	184042	3	1	1	1	0	883	1	4	0	8	115	0	0	100
random	1	1	116	185543	4	4	4	1	0	747	1	4	0	32	116	0	0	100
random	1	1	117	187084	6	1	1	1	0	866	1	4	0	8	117	0	0	100
random	1	1	118	188755	5	3	3	1	0	1356	1	4	0	24	118	0	0	100
random	1	1	119	190975	1	4	4	1	0	1517	1	4	0	32	119	0	0	100
random	1	1	120	193262	4	2	2	1	0	613	1	4	0	16	120	0	0	100
fixed	2	1	1	195296	4	1	1	1	0	710	1	4	0	40	1	0	0	100
fixed	2	1	2	196404	1	2	2	1	0	527	1	4	0	48	2	0	0	100
fixed	2	1	3	197801	6	4	4	1	0	325	1	4	0	64	3	0	0	100
fixed	2	1	4	199060	2	1	1	1	0	735	1	4	0	40	4	0	0	100
fixed	2	1	5	200632	5	3	3	1	0	996	1	4	0	56	5	0	0	100
fixed	2	1	6	202391	6	4	4	1	0	1082	1	4	0	64	6	0	0	100
fixed	2	1	7	203967	3	1	1	1	0	760	1	4	0	40	7	0	0	100
fixed	2	1	8	205317	2	3	3	1	0	902	1	4	0	56	8	0	0	100
fixed	2	1	9	206990	3	2	2	1	0	800	1	4	0	48	9	0	0	100
fixed	2	1	10	208585	1	4	4	1	0	316	1	4	0	64	10	0	0	100
fixed	2	1	11	209439	5	2	2	1	0	432	1	4	0	48	11	0	0	100
fixed	2	1	12	210745	4	3	3	1	0	264	1	4	0	56	12	0	0	100
fixed	2	2	1	212173	4	1	1	1	0	867	1	4	0	40	13	0	0	100
fixed	2	2	2	213756	1	2	2	1	0	321	1	4	0	48	14	0	0	100
fixed	2	2	3	214677	6	4	4	1	0	841	1	4	0	64	15	0	0	100
fixed	2	2	4	215929	2	1	1	1	0	885	1	4	0	40	16	0	0	100
fixed	2	2	5	217501	5	3	3	1	0	698	1	4	0	56	17	0	0	100
fixed	2	2	6	218901	6	4	4	1	0	887	1	4	0	64	18	0	0	100
fixed	2	2	7	220588	3	1	1	1	0	1104	1	4	0	40	19	0	0	100
fixed	2	2	8	222051	2	3	3	1	0	1337	1	4	0	56	20	0	0	100
fixed	2	2	9	224413	3	2	2	1	0	357	1	4	0	48	21	0	0	100
fixed	2	2	10	225453	1	4	4	1	0	369	1	4	0	64	22	0	0	100
fixed	2	2	11	226260	5	2	2	1	0	471	1	4	0	48	23	0	0	100
fixed	2	2	12	227245	4	3	3	1	0	349	1	4	0	56	24	0	0	100
fixed	2	3	1	228346	4	1	1	1	0	934	1	4	0	40	25	0	0	100
fixed	2	3	2	230233	1	2	2	1	0	214	1	4	0	48	26	0	0	100
fixed	2	3	3	230811	6	4	4	1	0	574	1	4	0	64	27	0	0	100
fixed	2	3	4	232286	2	1	1	1	0	752	1	4	0	40	28	0	0	100
fixed	2	3	5	233419	5	3	3	1	0	992	1	4	0	56	29	0	0	100
fixed	2	3	6	235305	6	4	4	1	0	712	1	4	0	64	30	0	0	100
fixed	2	3	7	236435	3	1	1	1	0	744	1	4	0	40	31	0	0	100
fixed	2	3	8	238030	2	3	3	1	0	949	1	4	0	56	32	0	0	100
fixed	2	3	9	239921	3	2	2	1	0	301	1	4	0	48	33	0	0	100
fixed	2	3	10	240686	1	4	4	1	0	668	1	4	0	64	34	0	0	100
fixed	2	3	11	241649	5	2	2	1	0	787	1	4	0	48	35	0	0	100
fixed	2	3	12	243120	4	3	3	1	0	357	1	4	0	56	36	0	0	100
fixed	2	4	1	244202	4	1	1	1	0	975	1	4	0	40	37	0	0	100
fixed	2	4	2	246130	1	2	2	1	0	1318	1	4	0	48	38	0	0	100
fixed	2	4	3	247934	6	4	4	1	0	601	1	4	0	64	39	0	0	100
fixed	2	4	4	249406	2	1	1	1	0	771	1	4	0	40	40	0	0	100
fixed	2	4	5	250508	5	3	3	1	0	1116	1	4	0	56	41	0	0	100
fixed	2	4	6	252396	6	4	4	1	0	788	1	4	0	64	42	0	0	100
fixed	2	4	7	253808	3	1	1	1	0	952	1	4	0	40	43	0	0	100
fixed	2	4	8	255282	2	3	3	1	0	858	1	4	0	56	44	0	0	100
fixed	2	4	9	257027	3	2	2	1	0	288	1	4	0	48	45	0	0	100
fixed	2	4	10	258062	1	4	4	1	0	740	1	4	0	64	46	0	0	100
fixed	2	4	11	259535	5	2	2	1	0	334	1	4	0	48	47	0	0	100
fixed	2	4	12	260887	4	3	3	1	0	149	1	4	0	56	48	0	0	100
fixed	2	5	1	261862	4	1	1	1	0	835	1	4	0	40	49	0	0	100
fixed	2	5	2	263122	1	2	2	1	0	878	1	4	0	48	50	0	0	100
fixed	2	5	3	264826	6	4	4	1	0	606	1	4	0	64	51	0	0	100
fixed	2	5	4	266417	2	1	1	1	0	1314	1	4	0	40	52	0	0	100
fixed	2	5	5	268464	5	3	3	1	0	1291	1	4	0	56	53	0	0	100
fixed	2	5	6	270443	6	4	4	1	0	808	1	4	0	64	54	0	0	100
fixed	2	5	7	272192	3	1	1	1	0	910	1	4	0	40	55	0	0	100
fixed	2	5	8	273910	2	3	3	1	0	957	1	4	0	56	56	0	0	100
fixed	2	5	9	275319	3	2	2	1	0	537	1	4	0	48	57	0	0	100
fixed	2	5	10	276675	1	4	4	1	0	280	1	4	0	64	58	0	0	100
fixed	2	5	11	277740	5	2	2	1	0	347	1	4	0	48	59	0	0	100
fixed	2	5	12	278577	4	3	3	1	0	583	1	4	0	56	60	0	0	100
fixed	2	6	1	279739	4	1	1	1	0	1262	1	4	0	40	61	0	0	100
fixed	2	6	2	281584	1	2	2	1	0	720	1	4	0	48	62	0	0	100
fixed	2	6	3	283220	6	4	4	1	0	347	1	4	0	64	63	0	0	100
fixed	2	6	4	283959	2	1	1	1	0	2275	1	4	0	40	64	0	0	100
fixed	2	6	5	286871	5	3	3	1	0	1920	1	4	0	56	65	0	0	100
fixed	2	6	6	289413	6	4	4	1	0	940	1	4	0	64	66	0	0	100
fixed	2	6	7	291214	3	1	1	1	0	976	1	4	0	40	67	0	0	100
fixed	2	6	8	292683	2	3	3	1	0	1338	1	4	0	56	68	0	0	100
fixed	2	6	9	294830	3	2	2	1	0	407	1	4	0	48	69	0	0	100
fixed	2	6	10	295755	1	4	4	1	0	2256	1	4	0	64	70	0	0	100
fixed	2	6	11	298585	5	2	2	1	0	735	1	4	0	48	71	0	0	100
fixed	2	6	12	299851	4	3	3	1	0	474	1	4	0	56	72	0	0	100
fixed	2	7	1	300991	4	1	1	1	0	986	1	4	0	40	73	0	0	100
fixed	2	7	2	302526	1	2	2	1	0	432	1	4	0	48	74	0	0	100
fixed	2	7	3	303620	6	4	4	1	0	514	1	4	0	64	75	0	0	100
fixed	2	7	4	304753	2	1	1	1	0	1170	1	4	0	40	76	0	0	100
fixed	2	7	5	306249	5	3	3	1	0	1331	1	4	0	56	77	0	0	100
fixed	2	7	6	308111	6	4	4	1	0	996	1	4	0	64	78	0	0	100
fixed	2	7	7	309595	3	1	1	1	0	1461	1	4	0	40	79	0	0	100
fixed	2	7	8	311721	2	3	3	1	0	963	1	4	0	56	80	0	0	100
fixed	2	7	9	313499	3	2	2	1	0	280	1	4	0	48	81	0	0	100
fixed	2	7	10	314222	1	4	4	1	0	1073	1	4	0	64	82	0	0	100
fixed	2	7	11	316258	5	2	2	1	0	283	1	4	0	48	83	0	0	100
fixed	2	7	12	317283	4	3	3	1	0	144	1	4	0	56	84	0	0	100
fixed	2	8	1	318401	4	1	1	1	0	952	1	4	0	40	85	0	0	100
fixed	2	8	2	320003	1	2	2	1	0	2364	1	4	0	48	86	0	0	100
fixed	2	8	3	322925	6	4	4	1	0	337	1	4	0	64	87	0	0	100
fixed	2	8	4	323826	2	1	1	1	0	563	1	4	0	40	88	0	0	100
fixed	2	8	5	325136	5	3	3	1	0	803	1	4	0	56	89	0	0	100
fixed	2	8	6	326430	6	4	4	2	0	2029	2	4	0	64	90	0	0	100
fixed	2	8	7	328924	3	1	1	1	0	1058	1	4	0	40	91	0	0	100
fixed	2	8	8	330311	2	3	3	1	0	728	1	4	0	56	92	0	0	100
fixed	2	8	9	332080	3	2	2	1	0	365	1	4	0	48	93	0	0	100
fixed	2	8	10	333182	1	4	4	1	0	1143	1	4	0	64	94	0	0	100
fixed	2	8	11	334647	5	2	2	1	0	712	1	4	0	48	95	0	0	100
fixed	2	8	12	336341	4	3	3	1	0	177	1	4	0	56	96	0	0	100
fixed	2	9	1	337798	4	1	1	1	0	811	1	4	0	40	97	0	0	100
fixed	2	9	2	339475	1	2	2	1	0	284	1	4	0	48	98	0	0	100
fixed	2	9	3	340495	6	4	4	1	0	537	1	4	0	64	99	0	0	100
fixed	2	9	4	341396	2	1	1	1	0	1282	1	4	0	40	100	0	0	100
fixed	2	9	5	343637	5	3	3	1	0	796	1	4	0	56	101	0	0	100
fixed	2	9	6	344793	6	4	4	1	0	819	1	4	0	64	102	0	0	100
fixed	2	9	7	345928	3	1	1	1	0	1339	1	4	0	40	103	0	0	100
fixed	2	9	8	348119	2	3	3	1	0	1846	1	4	0	56	104	0	0	100
fixed	2	9	9	350433	3	2	2	1	0	276	1	4	0	48	105	0	0	100
fixed	2	9	10	351271	1	4	4	1	0	1016	1	4	0	64	106	0	0	100
fixed	2	9	11	352794	5	2	2	1	0	1320	1	4	0	48	107	0	0	100
fixed	2	9	12	354784	4	3	3	1	0	228	1	4	0	56	108	0	0	100
fixed	2	10	1	356227	4	1	1	1	0	854	1	4	0	40	109	0	0	100
fixed	2	10	2	358070	1	2	2	1	0	1248	1	4	0	48	110	0	0	100
fixed	2	10	3	360338	6	4	4	1	0	312	1	4	0	64	111	0	0	100
fixed	2	10	4	361378	2	1	1	1	0	1204	1	4	0	40	112	0	0	100
fixed	2	10	5	363370	5	3	3	1	0	1063	1	4	0	56	113	0	0	100
fixed	2	10	6	365447	6	4	4	1	0	679	1	4	0	64	114	0	0	100
fixed	2	10	7	366846	3	1	1	1	0	1197	1	4	0	40	115	0	0	100
fixed	2	10	8	368958	2	3	3	1	0	851	1	4	0	56	116	0	0	100
fixed	2	10	9	370806	3	2	2	1	0	277	1	4	0	48	117	0	0	100
fixed	2	10	10	371693	1	4	4	1	0	943	1	4	0	64	118	0	0	100
fixed	2	10	11	373488	5	2	2	1	0	283	1	4	0	48	119	0	0	100
fixed	2	10	12	374332	4	3	3	1	0	328	1	4	0	56	120	0	0	100
fixed	3	1	1	375756	4	1	1	1	0	619	1	4	0	72	1	0	0	100
fixed	3	1	2	377342	1	2	2	1	0	392	1	4	0	80	2	0	0	100
fixed	3	1	3	378116	6	4	4	1	0	839	1	4	0	96	3	0	0	100
fixed	3	1	4	379957	2	1	1	1	0	729	1	4	0	72	4	0	0	100
fixed	3	1	5	381575	5	3	3	1	0	845	1	4	0	88	5	0	0	100
fixed	3	1	6	383039	6	4	4	1	0	631	1	4	0	96	6	0	0	100
fixed	3	1	7	384633	3	1	1	1	0	843	1	4	0	72	7	0	0	100
fixed	3	1	8	386364	2	3	3	1	0	722	1	4	0	88	8	0	0	100
fixed	3	1	9	387911	3	2	2	1	0	304	1	4	0	80	9	0	0	100
fixed	3	1	10	388986	1	4	4	1	0	1371	1	4	0	96	10	0	0	100
fixed	3	1	11	391233	5	2	2	1	0	228	1	4	0	80	11	0	0	100
fixed	3	1	12	392282	4	3	3	1	0	247	1	4	0	88	12	0	0	100
fixed	3	2	1	393251	4	1	1	1	0	742	1	4	0	72	13	0	0	100
fixed	3	2	2	394665	1	2	2	2	0	1778	2	4	0	80	14	0	0	100
fixed	3	2	3	396738	6	4	4	1	0	459	1	4	0	96	15	0	0	100
fixed	3	2	4	397862	2	1	1	1	0	763	1	4	0	72	16	0	0	100
fixed	3	2	5	399438	5	3	3	1	0	720	1	4	0	88	17	0	0	100
fixed	3	2	6	400654	6	4	4	1	0	900	1	4	0	96	18	0	0	100
fixed	3	2	7	401971	3	1	1	1	0	1396	1	4	0	72	19	0	0	100
fixed	3	2	8	403661	2	3	3	1	0	1061	1	4	0	88	20	0	0	100
fixed	3	2	9	405459	3	2	2	1	0	657	1	4	0	80	21	0	0	100
fixed	3	2	10	406999	1	4	4	1	0	983	1	4	0	96	22	0	0	100
fixed	3	2	11	408700	5	2	2	1	0	544	1	4	0	80	23	0	0	100
fixed	3	2	12	410045	4	3	3	1	0	151	1	4	0	88	24	0	0	100
fixed	3	3	1	411095	4	1	1	1	0	2410	1	4	0	72	25	0	0	100
fixed	3	3	2	413990	1	2	2	1	0	576	1	4	0	80	26	0	0	100
fixed	3	3	3	415293	6	4	4	1	0	760	1	4	0	96	27	0	0	100
fixed	3	3	4	416768	2	1	1	1	0	1074	1	4	0	72	28	0	0	100
fixed	3	3	5	418606	5	3	3	1	0	964	1	4	0	88	29	0	0	100
fixed	3	3	6	420591	6	4	4	1	0	888	1	4	0	96	30	0	0	100
fixed	3	3	7	422192	3	1	1	1	0	796	1	4	0	72	31	0	0	100
fixed	3	3	8	423885	2	3	3	1	0	1373	1	4	0	88	32	0	0	100
fixed	3	3	9	426064	3	2	2	1	0	240	1	4	0	80	33	0	0	100
fixed	3	3	10	426610	1	4	4	1	0	689	1	4	0	96	34	0	0	100
fixed	3	3	11	428216	5	2	2	1	0	253	1	4	0	80	35	0	0	100
fixed	3	3	12	429053	4	3	3	1	0	265	1	4	0	88	36	0	0	100
fixed	3	4	1	430258	4	1	1	1	0	958	1	4	0	72	37	0	0	100
fixed	3	4	2	432018	1	2	2	1	0	276	1	4	0	80	38	0	0	100
fixed	3	4	3	433312	6	4	4	1	0	94	1	4	0	96	39	0	0	100
fixed	3	4	4	434085	2	1	1	1	0	1036	1	4	0	72	40	0	0	100
fixed	3	4	5	435990	5	3	3	1	0	804	1	4	0	88	41	0	0	100
fixed	3	4	6	437547	6	4	4	1	0	1218	1	4	0	96	42	0	0	100
fixed	3	4	7	439691	3	1	1	1	0	911	1	4	0	72	43	0	0	100
fixed	3	4	8	441496	2	3	3	1	0	867	1	4	0	88	44	0	0	100
fixed	3	4	9	442957	3	2	2	1	0	309	1	4	0	80	45	0	0	100
fixed	3	4	10	444255	1	4	4	1	0	534	1	4	0	96	46	0	0	100
fixed	3	4	11	445282	5	2	2	1	0	634	1	4	0	80	47	0	0	100
fixed	3	4	12	446405	4	3	3	1	0	587	1	4	0	88	48	0	0	100
fixed	3	5	1	448002	4	1	1	1	0	1391	1	4	0	72	49	0	0	100
fixed	3	5	2	449811	1	2	2	1	0	530	1	4	0	80	50	0	0	100
fixed	3	5	3	451234	6	4	4	1	0	238	1	4	0	96	51	0	0	100
fixed	3	5	4	451976	2	1	1	1	0	1518	1	4	0	72	52	0	0	100
fixed	3	5	5	453913	5	3	3	1	0	1109	1	4	0	88	53	0	0	100
fixed	3	5	6	455810	6	4	4	1	0	668	1	4	0	96	54	0	0	100
fixed	3	5	7	456892	3	1	1	1	0	1134	1	4	0	72	55	0	0	100
fixed	3	5	8	458320	2	3	3	1	0	906	1	4	0	88	56	0	0	100
fixed	3	5	9	459868	3	2	2	1	0	416	1	4	0	80	57	0	0	100
fixed	3	5	10	460570	1	4	4	1	0	1691	1	4	0	96	58	0	0	100
fixed	3	5	11	462740	5	2	2	1	0	1367	1	4	0	80	59	0	0	100
fixed	3	5	12	465085	4	3	3	1	0	220	1	4	0	88	60	0	0	100
fixed	3	6	1	466347	4	1	1	1	0	862	1	4	0	72	61	0	0	100
fixed	3	6	2	468056	1	2	2	1	0	326	1	4	0	80	62	0	0	100
fixed	3	6	3	468738	6	4	4	1	0	409	1	4	0	96	63	0	0	100
fixed	3	6	4	469720	2	1	1	1	0	1007	1	4	0	72	64	0	0	100
fixed	3	6	5	471423	5	3	3	1	0	1143	1	4	0	88	65	0	0	100
fixed	3	6	6	473133	6	4	4	1	0	463	1	4	0	96	66	0	0	100
fixed	3	6	7	474230	3	1	1	1	0	1160	1	4	0	72	67	0	0	100
fixed	3	6	8	476354	2	3	3	1	0	846	1	4	0	88	68	0	0	100
fixed	3	6	9	477931	3	2	2	1	0	291	1	4	0	80	69	0	0	100
fixed	3	6	10	478627	1	4	4	1	0	1174	1	4	0	96	70	0	0	100
fixed	3	6	11	480357	5	2	2	1	0	549	1	4	0	80	71	0	0	100
fixed	3	6	12	481565	4	3	3	1	0	369	1	4	0	88	72	0	0	100
fixed	3	7	1	482537	4	1	1	1	0	1096	1	4	0	72	73	0	0	100
fixed	3	7	2	484419	1	2	2	1	0	289	1	4	0	80	74	0	0	100
fixed	3	7	3	485158	6	4	4	1	0	529	1	4	0	96	75	0	0	100
fixed	3	7	4	486389	2	1	1	1	0	1069	1	4	0	72	76	0	0	100
fixed	3	7	5	488216	5	3	3	1	0	256	1	4	0	88	77	0	0	100
fixed	3	7	6	488785	6	4	4	1	0	752	1	4	0	96	78	0	0	100
fixed	3	7	7	490329	3	1	1	1	0	1254	1	4	0	72	79	0	0	100
fixed	3	7	8	492432	2	3	3	1	0	1397	1	4	0	88	80	0	0	100
fixed	3	7	9	494688	3	2	2	1	0	758	1	4	0	80	81	0	0	100
fixed	3	7	10	496012	1	4	4	1	0	1614	1	4	0	96	82	0	0	100
fixed	3	7	11	498484	5	2	2	2	0	797	2	4	0	80	83	0	0	100
fixed	3	7	12	500173	4	3	3	1	0	350	1	4	0	88	84	0	0	100
fixed	3	8	1	501383	4	1	1	1	0	978	1	4	0	72	85	0	0	100
fixed	3	8	2	502911	1	2	2	1	0	882	1	4	0	80	86	0	0	100
fixed	3	8	3	504441	6	4	4	1	0	912	1	4	0	96	87	0	0	100
fixed	3	8	4	505777	2	1	1	1	0	2048	1	4	0	72	88	0	0	100
fixed	3	8	5	508752	5	3	3	2	0	1250	2	4	0	88	89	0	0	100
fixed	3	8	6	510288	6	4	4	1	0	689	1	4	0	96	90	0	0	100
fixed	3	8	7	511947	3	1	1	1	0	1043	1	4	0	72	91	0	0	100
fixed	3	8	8	513657	2	3	3	1	0	1227	1	4	0	88	92	0	0	100
fixed	3	8	9	515457	3	2	2	1	0	566	1	4	0	80	93	0	0	100
fixed	3	8	10	516941	1	4	4	1	0	1215	1	4	0	96	94	0	0	100
fixed	3	8	11	519160	5	2	2	1	0	289	1	4	0	80	95	0	0	100
fixed	3	8	12	520247	4	3	3	1	0	267	1	4	0	88	96	0	0	100
fixed	3	9	1	521599	4	1	1	1	0	762	1	4	0	72	97	0	0	100
fixed	3	9	2	523099	1	2	2	1	0	355	1	4	0	80	98	0	0	100
fixed	3	9	3	523983	6	4	4	1	0	413	1	4	0	96	99	0	0	100
fixed	3	9	4	524703	2	1	1	1	0	1095	1	4	0	72	100	0	0	100
fixed	3	9	5	526342	5	3	3	2	0	1769	2	4	0	88	101	0	0	100
fixed	3	9	6	528787	6	4	4	1	0	1369	1	4	0	96	102	0	0	100
fixed	3	9	7	530850	3	1	1	1	0	1114	1	4	0	72	103	0	0	100
fixed	3	9	8	532806	2	3	3	1	0	1184	1	4	0	88	104	0	0	100
fixed	3	9	9	534268	3	2	2	1	0	601	1	4	0	80	105	0	0	100
fixed	3	9	10	535555	1	4	4	1	0	547	1	4	0	96	106	0	0	100
fixed	3	9	11	536894	5	2	2	1	0	226	1	4	0	80	107	0	0	100
fixed	3	9	12	538069	4	3	3	2	0	1329	2	4	0	88	108	0	0	100
fixed	3	10	1	540329	4	1	1	1	0	1016	1	4	0	72	109	0	0	100
fixed	3	10	2	542251	1	2	2	1	0	311	1	4	0	80	110	0	0	100
fixed	3	10	3	543102	6	4	4	1	0	651	1	4	0	96	111	0	0	100
fixed	3	10	4	544706	2	1	1	1	0	951	1	4	0	72	112	0	0	100
fixed	3	10	5	546007	5	3	3	1	0	1104	1	4	0	88	113	0	0	100
fixed	3	10	6	548052	6	4	4	1	0	657	1	4	0	96	114	0	0	100
fixed	3	10	7	549427	3	1	1	1	0	1015	1	4	0	72	115	0	0	100
fixed	3	10	8	550737	2	3	3	1	0	1264	1	4	0	88	116	0	0	100
fixed	3	10	9	552716	3	2	2	1	0	668	1	4	0	80	117	0	0	100
fixed	3	10	10	553733	1	4	4	1	0	681	1	4	0	96	118	0	0	100
fixed	3	10	11	554732	5	2	2	1	0	1054	1	4	0	80	119	0	0	100
fixed	3	10	12	556371	4	3	3	1	0	409	1	4	0	88	120	0	0	100
fixed	4	1	1	700519	4	1	1	1	0	943	1	4	0	104	1	0	0	100
fixed	4	1	2	702506	1	2	2	1	0	324	1	4	0	112	2	0	0	100
fixed	4	1	3	703552	6	4	4	1	0	287	1	4	0	128	3	0	0	100
fixed	4	1	4	704789	2	1	1	1	0	1307	1	4	0	104	4	0	0	100
fixed	4	1	5	707061	5	3	3	1	0	283	1	4	0	120	5	0	0	100
fixed	4	1	6	708095	6	4	4	1	0	407	1	4	0	128	6	0	0	100
fixed	4	1	7	709232	3	1	1	1	0	959	1	4	0	104	7	0	0	100
fixed	4	1	8	711020	2	3	3	1	0	995	1	4	0	120	8	0	0	100
fixed	4	1	9	712759	3	2	2	1	0	545	1	4	0	112	9	0	0	100
fixed	4	1	10	713742	1	4	4	1	0	400	1	4	0	128	10	0	0	100
fixed	4	1	11	714559	5	2	2	1	0	725	1	4	0	112	11	0	0	100
fixed	4	1	12	715576	4	3	3	1	0	450	1	4	0	120	12	0	0	100
fixed	4	2	1	716577	4	1	1	1	0	839	1	4	0	104	13	0	0	100
fixed	4	2	2	718452	1	2	2	1	0	240	1	4	0	112	14	0	0	100
fixed	4	2	3	719090	6	4	4	1	0	669	1	4	0	128	15	0	0	100
fixed	4	2	4	720649	2	1	1	1	0	1427	1	4	0	104	16	0	0	100
fixed	4	2	5	722704	5	3	3	1	0	1644	1	4	0	120	17	0	0	100
fixed	4	2	6	725319	6	4	4	1	0	869	1	4	0	128	18	0	0	100
fixed	4	2	7	727058	3	1	1	1	0	1156	1	4	0	104	19	0	0	100
fixed	4	2	8	728511	2	3	3	1	0	902	1	4	0	120	20	0	0	100
fixed	4	2	9	729807	3	2	2	1	0	864	1	4	0	112	21	0	0	100
fixed	4	2	10	731111	1	4	4	1	0	408	1	4	0	128	22	0	0	100
fixed	4	2	11	732464	5	2	2	1	0	278	1	4	0	112	23	0	0	100
fixed	4	2	12	733099	4	3	3	1	0	268	1	4	0	120	24	0	0	100
fixed	4	3	1	733953	4	1	1	1	0	919	1	4	0	104	25	0	0	100
fixed	4	3	2	735277	1	2	2	1	0	360	1	4	0	112	26	0	0	100
fixed	4	3	3	736172	6	4	4	1	0	594	1	4	0	128	27	0	0	100
fixed	4	3	4	737250	2	1	1	1	0	2012	1	4	0	104	28	0	0	100
fixed	4	3	5	740296	5	3	3	2	0	699	2	4	0	120	29	0	0	100
fixed	4	3	6	741379	6	4	4	1	0	757	1	4	0	128	30	0	0	100
fixed	4	3	7	742427	3	1	1	1	0	1289	1	4	0	104	31	0	0	100
fixed	4	3	8	744113	2	3	3	1	0	2129	1	4	0	120	32	0	0	100
fixed	4	3	9	746852	3	2	2	1	0	285	1	4	0	112	33	0	0	100
fixed	4	3	10	747742	1	4	4	1	0	680	1	4	0	128	34	0	0	100
fixed	4	3	11	749281	5	2	2	1	0	183	1	4	0	112	35	0	0	100
fixed	4	3	12	750382	4	3	3	1	0	640	1	4	0	120	36	0	0	100
fixed	4	4	1	752031	4	1	1	1	0	946	1	4	0	104	37	0	0	100
fixed	4	4	2	753787	1	2	2	1	0	599	1	4	0	112	38	0	0	100
fixed	4	4	3	755182	6	4	4	1	0	325	1	4	0	128	39	0	0	100
fixed	4	4	4	755966	2	1	1	1	0	1539	1	4	0	104	40	0	0	100
fixed	4	4	5	758363	5	3	3	1	0	862	1	4	0	120	41	0	0	100
fixed	4	4	6	759797	6	4	4	1	0	497	1	4	0	128	42	0	0	100
fixed	4	4	7	760973	3	1	1	1	0	1751	1	4	0	104	43	0	0	100
fixed	4	4	8	763218	2	3	3	1	0	1024	1	4	0	120	44	0	0	100
fixed	4	4	9	765010	3	2	2	1	0	356	1	4	0	112	45	0	0	100
fixed	4	4	10	766036	1	4	4	1	0	409	1	4	0	128	46	0	0	100
fixed	4	4	11	766982	5	2	2	1	0	664	1	4	0	112	47	0	0	100
fixed	4	4	12	767948	4	3	3	1	0	632	1	4	0	120	48	0	0	100
fixed	4	5	1	769324	4	1	1	1	0	877	1	4	0	104	49	0	0	100
fixed	4	5	2	770521	1	2	2	1	0	803	1	4	0	112	50	0	0	100
fixed	4	5	3	772084	6	4	4	1	0	457	1	4	0	128	51	0	0	100
fixed	4	5	4	773483	2	1	1	2	0	1861	2	4	0	104	52	0	0	100
fixed	4	5	5	776389	5	3	3	1	0	370	1	4	0	120	53	0	0	100
fixed	4	5	6	777736	6	4	4	1	0	545	1	4	0	128	54	0	0	100
fixed	4	5	7	779165	3	1	1	1	0	461	1	4	0	104	55	0	0	100
fixed	4	5	8	780059	2	3	3	1	0	711	1	4	0	120	56	0	0	100
fixed	4	5	9	781165	3	2	2	1	0	400	1	4	0	112	57	0	0	100
fixed	4	5	10	782269	1	4	4	1	0	1634	1	4	0	128	58	0	0	100
fixed	4	5	11	784763	5	2	2	1	0	543	1	4	0	112	59	0	0	100
fixed	4	5	12	785874	4	3	3	1	0	265	1	4	0	120	60	0	0	100
fixed	4	6	1	786867	4	1	1	1	0	822	1	4	0	104	61	0	0	100
fixed	4	6	2	788657	1	2	2	1	0	379	1	4	0	112	62	0	0	100
fixed	4	6	3	789632	6	4	4	1	0	698	1	4	0	128	63	0	0	100
fixed	4	6	4	791100	2	1	1	1	0	979	1	4	0	104	64	0	0	100
fixed	4	6	5	792723	5	3	3	1	0	1343	1	4	0	120	65	0	0	100
fixed	4	6	6	794991	6	4	4	1	0	254	1	4	0	128	66	0	0	100
fixed	4	6	7	796227	3	1	1	1	0	1394	1	4	0	104	67	0	0	100
fixed	4	6	8	797941	2	3	3	1	0	1185	1	4	0	120	68	0	0	100
fixed	4	6	9	799416	3	2	2	1	0	427	1	4	0	112	69	0	0	100
fixed	4	6	10	800208	1	4	4	1	0	674	1	4	0	128	70	0	0	100
fixed	4	6	11	801482	5	2	2	1	0	404	1	4	0	112	71	0	0	100
fixed	4	6	12	802201	4	3	3	1	0	421	1	4	0	120	72	0	0	100
fixed	4	7	1	803207	4	1	1	1	0	922	1	4	0	104	73	0	0	100
fixed	4	7	2	804523	1	2	2	1	0	474	1	4	0	112	74	0	0	100
fixed	4	7	3	805632	6	4	4	1	0	308	1	4	0	128	75	0	0	100
fixed	4	7	4	806310	2	1	1	1	0	1103	1	4	0	104	76	0	0	100
fixed	4	7	5	807813	5	3	3	1	0	744	1	4	0	120	77	0	0	100
fixed	4	7	6	808991	6	4	4	1	0	853	1	4	0	128	78	0	0	100
fixed	4	7	7	810345	3	1	1	1	0	1100	1	4	0	104	79	0	0	100
fixed	4	7	8	812093	2	3	3	1	0	1170	1	4	0	120	80	0	0	100
fixed	4	7	9	814235	3	2	2	1	0	351	1	4	0	112	81	0	0	100
fixed	4	7	10	815502	1	4	4	1	0	377	1	4	0	128	82	0	0	100
fixed	4	7	11	816768	5	2	2	1	0	812	1	4	0	112	83	0	0	100
fixed	4	7	12	818511	4	3	3	1	0	282	1	4	0	120	84	0	0	100
fixed	4	8	1	819964	4	1	1	1	0	988	1	4	0	104	85	0	0	100
fixed	4	8	2	821684	1	2	2	1	0	356	1	4	0	112	86	0	0	100
fixed	4	8	3	822509	6	4	4	1	0	873	1	4	0	128	87	0	0	100
fixed	4	8	4	824410	2	1	1	1	0	1160	1	4	0	104	88	0	0	100
fixed	4	8	5	826049	5	3	3	1	0	579	1	4	0	120	89	0	0	100
fixed	4	8	6	827262	6	4	4	1	0	752	1	4	0	128	90	0	0	100
fixed	4	8	7	828320	3	1	1	1	0	1723	1	4	0	104	91	0	0	100
fixed	4	8	8	830407	2	3	3	1	0	778	1	4	0	120	92	0	0	100
fixed	4	8	9	831793	3	2	2	1	0	359	1	4	0	112	93	0	0	100
fixed	4	8	10	833155	1	4	4	1	0	670	1	4	0	128	94	0	0	100
fixed	4	8	11	834347	5	2	2	1	0	379	1	4	0	112	95	0	0	100
fixed	4	8	12	835501	4	3	3	1	0	266	1	4	0	120	96	0	0	100
fixed	4	9	1	836772	4	1	1	1	0	981	1	4	0	104	97	0	0	100
fixed	4	9	2	838151	1	2	2	1	0	2034	1	4	0	112	98	0	0	100
fixed	4	9	3	840571	6	4	4	1	0	404	1	4	0	128	99	0	0	100
fixed	4	9	4	841861	2	1	1	1	0	869	1	4	0	104	100	0	0	100
fixed	4	9	5	843748	5	3	3	1	0	949	1	4	0	120	101	0	0	100
fixed	4	9	6	845329	6	4	4	1	0	1322	1	4	0	128	102	0	0	100
fixed	4	9	7	847223	3	1	1	1	0	1170	1	4	0	104	103	0	0	100
fixed	4	9	8	849284	2	3	3	1	0	922	1	4	0	120	104	0	0	100
fixed	4	9	9	851105	3	2	2	1	0	325	1	4	0	112	105	0	0	100
fixed	4	9	10	851920	1	4	4	1	0	1859	1	4	0	128	106	0	0	100
fixed	4	9	11	854419	5	2	2	1	0	249	1	4	0	112	107	0	0	100
fixed	4	9	12	855077	4	3	3	1	0	310	1	4	0	120	108	0	0	100
fixed	4	10	1	856454	4	1	1	1	0	459	1	4	0	104	109	0	0	100
fixed	4	10	2	857900	1	2	2	1	0	366	1	4	0	112	110	0	0	100
fixed	4	10	3	858711	6	4	4	1	0	779	1	4	0	128	111	0	0	100
fixed	4	10	4	860508	2	1	1	1	0	1216	1	4	0	104	112	0	0	100
fixed	4	10	5	862120	5	3	3	1	0	1019	1	4	0	120	113	0	0	100
fixed	4	10	6	864099	6	4	4	1	0	695	1	4	0	128	114	0	0	100
fixed	4	10	7	865359	3	1	1	1	0	994	1	4	0	104	115	0	0	100
fixed	4	10	8	867002	2	3	3	1	0	1020	1	4	0	120	116	0	0	100
fixed	4	10	9	868730	3	2	2	1	0	603	1	4	0	112	117	0	0	100
fixed	4	10	10	869835	1	4	4	1	0	364	1	4	0	128	118	0	0	100
fixed	4	10	11	870534	5	2	2	1	0	431	1	4	0	112	119	0	0	100
fixed	4	10	12	871930	4	3	3	1	0	260	1	4	0	120	120	0	0	100
fixed	5	1	1	873727	4	1	1	1	0	847	1	4	0	136	1	0	0	100
fixed	5	1	2	874991	1	2	2	1	0	426	1	4	0	144	2	0	0	100
fixed	5	1	3	876099	6	4	4	2	0	1587	2	4	0	160	3	0	0	100
fixed	5	1	4	878294	2	1	1	1	0	1342	1	4	0	136	4	0	0	100
fixed	5	1	5	880585	5	3	3	1	0	653	1	4	0	152	5	0	0	100
fixed	5	1	6	882114	6	4	4	1	0	284	1	4	0	160	6	0	0	100
fixed	5	1	7	882894	3	1	1	1	0	987	1	4	0	136	7	0	0	100
fixed	5	1	8	884871	2	3	3	1	0	1119	1	4	0	152	8	0	0	100
fixed	5	1	9	886479	3	2	2	1	0	251	1	4	0	144	9	0	0	100
fixed	5	1	10	887232	1	4	4	1	0	379	1	4	0	160	10	0	0	100
fixed	5	1	11	888377	5	2	2	1	0	307	1	4	0	144	11	0	0	100
fixed	5	1	12	889026	4	3	3	1	0	504	1	4	0	152	12	0	0	100
fixed	5	2	1	890571	4	1	1	1	0	1062	1	4	0	136	13	0	0	100
fixed	5	2	2	892183	1	2	2	1	0	506	1	4	0	144	14	0	0	100
fixed	5	2	3	893404	6	4	4	1	0	334	1	4	0	160	15	0	0	100
fixed	5	2	4	894095	2	1	1	1	0	1481	1	4	0	136	16	0	0	100
fixed	5	2	5	896316	5	3	3	1	0	962	1	4	0	152	17	0	0	100
fixed	5	2	6	898080	6	4	4	1	0	144	1	4	0	160	18	0	0	100
fixed	5	2	7	898891	3	1	1	1	0	1437	1	4	0	136	19	0	0	100
fixed	5	2	8	900858	2	3	3	1	0	1027	1	4	0	152	20	0	0	100
fixed	5	2	9	902851	3	2	2	1	0	998	1	4	0	144	21	0	0	100
fixed	5	2	10	904675	1	4	4	1	0	257	1	4	0	160	22	0	0	100
fixed	5	2	11	905410	5	2	2	1	0	657	1	4	0	144	23	0	0	100
fixed	5	2	12	906876	4	3	3	1	0	195	1	4	0	152	24	0	0	100
fixed	5	3	1	907747	4	1	1	1	0	1206	1	4	0	136	25	0	0	100
fixed	5	3	2	909449	1	2	2	1	0	446	1	4	0	144	26	0	0	100
fixed	5	3	3	910669	6	4	4	1	0	2211	1	4	0	160	27	0	0	100
fixed	5	3	4	913708	2	1	1	1	0	586	1	4	0	136	28	0	0	100
fixed	5	3	5	914875	5	3	3	1	0	329	1	4	0	152	29	0	0	100
fixed	5	3	6	915639	6	4	4	1	0	728	1	4	0	160	30	0	0	100
fixed	5	3	7	917329	3	1	1	1	0	929	1	4	0	136	31	0	0	100
fixed	5	3	8	919018	2	3	3	1	0	1561	1	4	0	152	32	0	0	100
fixed	5	3	9	920953	3	2	2	1	0	903	1	4	0	144	33	0	0	100
fixed	5	3	10	922663	1	4	4	1	0	1015	1	4	0	160	34	0	0	100
fixed	5	3	11	924024	5	2	2	1	0	637	1	4	0	144	35	0	0	100
fixed	5	3	12	925657	4	3	3	1	0	592	1	4	0	152	36	0	0	100
fixed	5	4	1	926927	4	1	1	2	0	1450	2	4	0	136	37	0	0	100
fixed	5	4	2	928827	1	2	2	1	0	706	1	4	0	144	38	0	0	100
fixed	5	4	3	930360	6	4	4	1	0	649	1	4	0	160	39	0	0	100
fixed	5	4	4	931558	2	1	1	1	0	1598	1	4	0	136	40	0	0	100
fixed	5	4	5	933739	5	3	3	1	0	874	1	4	0	152	41	0	0	100
fixed	5	4	6	935641	6	4	4	1	0	1137	1	4	0	160	42	0	0	100
fixed	5	4	7	937649	3	1	1	1	0	828	1	4	0	136	43	0	0	100
fixed	5	4	8	938924	2	3	3	1	0	982	1	4	0	152	44	0	0	100
fixed	5	4	9	940509	3	2	2	1	0	651	1	4	0	144	45	0	0	100
fixed	5	4	10	941526	1	4	4	1	0	504	1	4	0	160	46	0	0	100
fixed	5	4	11	942724	5	2	2	1	0	237	1	4	0	144	47	0	0	100
fixed	5	4	12	943980	4	3	3	1	0	328	1	4	0	152	48	0	0	100
fixed	5	5	1	945372	4	1	1	1	0	957	1	4	0	136	49	0	0	100
fixed	5	5	2	946923	1	2	2	2	0	1307	2	4	0	144	50	0	0	100
fixed	5	5	3	948905	6	4	4	1	0	655	1	4	0	160	51	0	0	100
fixed	5	5	4	950489	2	1	0	1	2	0	3	4	0	136	51	0	1	98
fixed	5	5	5	953948	5	3	3	2	0	866	2	4	0	152	52	0	1	98
fixed	5	5	6	955668	6	4	4	1	0	673	1	4	0	160	53	0	1	98
fixed	5	5	7	956920	3	1	1	1	0	1004	1	4	0	136	54	0	1	98
fixed	5	5	8	958365	2	3	3	1	0	887	1	4	0	152	55	0	1	98
fixed	5	5	9	960158	3	2	2	1	0	258	1	4	0	144	56	0	1	98
fixed	5	5	10	961118	1	4	4	1	0	242	1	4	0	160	57	0	1	98
fixed	5	5	11	961975	5	2	2	1	0	246	1	4	0	144	58	0	1	98
fixed	5	5	12	962756	4	3	3	1	0	221	1	4	0	152	59	0	1	98
fixed	5	6	1	964135	4	1	1	1	0	946	1	4	0	136	60	0	1	98
fixed	5	6	2	966030	1	2	2	1	0	282	1	4	0	144	61	0	1	98
fixed	5	6	3	967218	6	4	4	1	0	56	1	4	0	160	62	0	1	98
fixed	5	6	4	967993	2	1	1	1	0	935	1	4	0	136	63	0	1	98
fixed	5	6	5	969409	5	3	3	1	0	467	1	4	0	152	64	0	1	98
fixed	5	6	6	970842	6	4	4	1	0	774	1	4	0	160	65	0	1	98
fixed	5	6	7	971967	3	1	1	1	0	1023	1	4	0	136	66	0	1	99
fixed	5	6	8	973490	2	3	3	1	0	550	1	4	0	152	67	0	1	99
fixed	5	6	9	975000	3	2	2	1	0	214	1	4	0	144	68	0	1	99
fixed	5	6	10	975629	1	4	4	1	0	643	1	4	0	160	69	0	1	99
fixed	5	6	11	976992	5	2	2	1	0	258	1	4	0	144	70	0	1	99
fixed	5	6	12	978009	4	3	3	1	0	119	1	4	0	152	71	0	1	99
fixed	5	7	1	978854	4	1	1	1	0	883	1	4	0	136	72	0	1	99
fixed	5	7	2	980554	1	2	2	1	0	411	1	4	0	144	73	0	1	99
fixed	5	7	3	981356	6	4	4	1	0	561	1	4	0	160	74	0	1	99
fixed	5	7	4	982451	2	1	1	1	0	818	1	4	0	136	75	0	1	99
fixed	5	7	5	984062	5	3	3	1	0	1015	1	4	0	152	76	0	1	99
fixed	5	7	6	985964	6	4	4	1	0	302	1	4	0	160	77	0	1	99
fixed	5	7	7	986627	3	1	1	1	0	1082	1	4	0	136	78	0	1	99
fixed	5	7	8	988500	2	3	3	1	0	530	1	4	0	152	79	0	1	99
fixed	5	7	9	989863	3	2	2	1	0	328	1	4	0	144	80	0	1	99
fixed	5	7	10	991180	1	4	4	1	0	1313	1	4	0	160	81	0	1	99
fixed	5	7	11	993126	5	2	2	1	0	518	1	4	0	144	82	0	1	99
fixed	5	7	12	994335	4	3	3	1	0	227	1	4	0	152	83	0	1	99
fixed	5	8	1	995562	4	1	1	1	0	695	1	4	0	136	84	0	1	99
fixed	5	8	2	996690	1	2	2	1	0	456	1	4	0	144	85	0	1	99
fixed	5	8	3	997957	6	4	4	1	0	682	1	4	0	160	86	0	1	99
fixed	5	8	4	998994	2	1	1	1	0	1638	1	4	0	136	87	0	1	99
fixed	5	8	5	1001003	5	3	3	1	0	1025	1	4	0	152	88	0	1	99
fixed	5	8	6	1002680	6	4	4	1	0	697	1	4	0	160	89	0	1	99
fixed	5	8	7	1004256	3	1	1	1	0	1391	1	4	0	136	90	0	1	99
fixed	5	8	8	1006132	2	3	3	2	0	1400	2	4	0	152	91	0	1	99
fixed	5	8	9	1007979	3	2	2	1	0	433	1	4	0	144	92	0	1	99
fixed	5	8	10	1009174	1	4	4	1	0	1127	1	4	0	160	93	0	1	99
fixed	5	8	11	1010761	5	2	2	1	0	332	1	4	0	144	94	0	1	99
fixed	5	8	12	1011521	4	3	3	1	0	411	1	4	0	152	95	0	1	99
fixed	5	9	1	1012637	4	1	1	1	0	1252	1	4	0	136	96	0	1	99
fixed	5	9	2	1014828	1	2	2	1	0	287	1	4	0	144	97	0	1	99
fixed	5	9	3	1015799	6	4	4	1	0	766	1	4	0	160	98	0	1	99
fixed	5	9	4	1016856	2	1	1	1	0	1809	1	4	0	136	99	0	1	99
fixed	5	9	5	1019247	5	3	3	1	0	548	1	4	0	152	100	0	1	99
fixed	5	9	6	1020425	6	4	4	1	0	450	1	4	0	160	101	0	1	99
fixed	5	9	7	1021266	3	1	1	1	0	1295	1	4	0	136	102	0	1	99
fixed	5	9	8	1023197	2	3	3	1	0	1228	1	4	0	152	103	0	1	99
fixed	5	9	9	1025069	3	2	2	1	0	277	1	4	0	144	104	0	1	99
fixed	5	9	10	1026050	1	4	4	1	0	988	1	4	0	160	105	0	1	99
fixed	5	9	11	1027493	5	2	2	1	0	775	1	4	0	144	106	0	1	99
fixed	5	9	12	1028978	4	3	3	1	0	8	1	4	0	152	107	0	1	99
fixed	5	10	1	1029846	4	1	1	1	0	1011	1	4	0	136	108	0	1	99
fixed	5	10	2	1031377	1	2	2	1	0	602	1	4	0	144	109	0	1	99
fixed	5	10	3	1032627	6	4	4	1	0	301	1	4	0	160	110	0	1	99
fixed	5	10	4	1033884	2	1	1	1	0	544	1	4	0	136	111	0	1	99
fixed	5	10	5	1034825	5	3	3	1	0	1168	1	4	0	152	112	0	1	99
fixed	5	10	6	1036785	6	4	4	1	0	693	1	4	0	160	113	0	1	99
fixed	5	10	7	1037981	3	1	1	1	0	1394	1	4	0	136	114	0	1	99
fixed	5	10	8	1039918	2	3	3	1	0	936	1	4	0	152	115	0	1	99
fixed	5	10	9	1041171	3	2	2	1	0	955	1	4	0	144	116	0	1	99
fixed	5	10	10	1042766	1	4	4	2	0	1832	2	4	0	160	117	0	1	99
fixed	5	10	11	1044886	5	2	2	1	0	534	1	4	0	144	118	0	1	99
fixed	5	10	12	1046193	4	3	3	1	0	255	1	4	0	152	119	0	1	99
random	6	1	1	1152394	6	1	1	1	0	1876	1	4	0	168	1	0	0	100
random	6	1	2	1154607	4	4	4	1	0	919	1	4	0	192	2	0	0	100
random	6	1	3	1156410	2	2	2	1	0	1074	1	4	0	176	3	0	0	100
random	6	1	4	1158366	3	3	3	1	0	840	1	4	0	184	4	0	0	100
random	6	1	5	1159686	5	2	2	1	0	1000	1	4	0	176	5	0	0	100
random	6	1	6	1161640	1	4	4	1	0	941	1	4	0	192	6	0	0	100
random	6	1	7	1163056	6	1	1	1	0	929	1	4	0	168	7	0	0	100
random	6	1	8	1164342	2	3	3	1	0	1322	1	4	0	184	8	0	0	100
random	6	1	9	1166643	4	2	2	1	0	641	1	4	0	176	9	0	0	100
random	6	1	10	1167992	1	1	1	1	0	800	1	4	0	168	10	0	0	100
random	6	1	11	1169521	5	4	4	1	0	583	1	4	0	192	11	0	0	100
random	6	1	12	1170966	3	3	3	1	0	930	1	4	0	184	12	0	0	100
random	6	1	13	1172830	5	2	2	1	0	1219	1	4	0	176	13	0	0	100
random	6	1	14	1174605	1	4	4	1	0	856	1	4	0	192	14	0	0	100
random	6	1	15	1176384	3	1	1	1	0	741	1	4	0	168	15	0	0	100
random	6	1	16	1177747	4	3	3	1	0	739	1	4	0	184	16	0	0	100
random	6	1	17	1179495	6	4	4	1	0	976	1	4	0	192	17	0	0	100
random	6	1	18	1181509	2	1	1	1	0	1051	1	4	0	168	18	0	0	100
random	6	1	19	1182878	5	3	3	1	0	1049	1	4	0	184	19	0	0	100
random	6	1	20	1184841	2	2	2	1	0	806	1	4	0	176	20	0	0	100
random	6	1	21	1186200	3	3	3	1	0	917	1	4	0	184	21	0	0	100
random	6	1	22	1187668	6	1	1	1	0	758	1	4	0	168	22	0	0	100
random	6	1	23	1188857	4	2	2	1	0	1700	1	4	0	176	23	0	0	100
random	6	1	24	1191101	1	4	4	1	0	765	1	4	0	192	24	0	0	100
random	6	1	25	1192545	4	3	3	1	0	1112	1	4	0	184	25	0	0	100
random	6	1	26	1194261	2	1	1	1	0	879	1	4	0	168	26	0	0	100
random	6	1	27	1195972	5	2	2	1	0	1863	1	4	0	176	27	0	0	100
random	6	1	28	1198286	6	4	4	1	0	717	1	4	0	192	28	0	0	100
random	6	1	29	1199807	1	3	3	1	0	1101	1	4	0	184	29	0	0	100
random	6	1	30	1201318	5	2	2	1	0	772	1	4	0	176	30	0	0	100
random	6	1	31	1203017	2	1	1	1	0	877	1	4	0	168	31	0	0	100
random	6	1	32	1204707	3	3	3	1	0	1148	1	4	0	184	32	0	0	100
random	6	1	33	1206393	6	4	0	1	2	0	3	4	0	192	32	0	1	97
random	6	1	34	1209208	4	2	2	1	0	1446	1	4	0	176	33	0	1	97
random	6	1	35	1211509	3	4	4	1	0	1148	1	4	0	192	34	0	1	97
random	6	1	36	1213193	1	1	1	1	0	789	1	4	0	168	35	0	1	97
random	6	1	37	1214716	3	4	4	1	0	981	1	4	0	192	36	0	1	97
random	6	1	38	1216478	5	3	3	1	0	802	1	4	0	184	37	0	1	97
random	6	1	39	1217739	6	1	1	1	0	917	1	4	0	168	38	0	1	97
random	6	1	40	1219423	1	2	2	1	0	958	1	4	0	176	39	0	1	98
random	6	1	41	1221059	2	3	3	1	0	752	1	4	0	184	40	0	1	98
random	6	1	42	1222185	4	4	4	1	0	800	1	4	0	192	41	0	1	98
random	6	1	43	1223876	1	2	2	1	0	961	1	4	0	176	42	0	1	98
random	6	1	44	1225422	6	3	3	1	0	720	1	4	0	184	43	0	1	98
random	6	1	45	1226517	3	1	1	1	0	817	1	4	0	168	44	0	1	98
random	6	1	46	1227675	4	4	4	1	0	1520	1	4	0	192	45	0	1	98
random	6	1	47	1229624	2	2	2	1	0	1149	1	4	0	176	46	0	1	98
random	6	1	48	1231572	5	1	1	2	0	1947	2	4	0	168	47	0	1	98
random	6	1	49	1234715	2	3	3	1	0	774	1	4	0	184	48	0	1	98
random	6	1	50	1235834	3	1	0	0	2	0	3	4	0	168	48	0	2	96
random	6	1	51	1238748	1	4	4	1	0	611	1	4	0	192	49	0	2	96
random	6	1	52	1240310	5	3	3	1	0	1072	1	4	0	184	50	0	2	96
random	6	1	53	1242149	3	2	2	1	0	691	1	4	0	176	51	0	2	96
random	6	1	54	1243163	6	4	4	1	0	648	1	4	0	192	52	0	2	96
random	6	1	55	1244802	4	2	2	1	0	635	1	4	0	176	53	0	2	96
random	6	1	56	1246269	1	1	1	1	0	717	1	4	0	168	54	0	2	96
random	6	1	57	1247975	5	4	4	1	0	980	1	4	0	192	55	0	2	96
random	6	1	58	1249896	2	1	1	1	0	787	1	4	0	168	56	0	2	97
random	6	1	59	1251503	6	2	2	1	0	799	1	4	0	176	57	0	2	97
random	6	1	60	1252696	4	3	3	1	0	636	1	4	0	184	58	0	2	97
random	6	1	61	1254247	1	2	2	1	0	1098	1	4	0	176	59	0	2	97
random	6	1	62	1256356	6	4	4	1	0	793	1	4	0	192	60	0	2	97
random	6	1	63	1258013	4	1	1	1	0	899	1	4	0	168	61	0	2	97
random	6	1	64	1259351	2	2	2	1	0	987	1	4	0	176	62	0	2	97
random	6	1	65	1261233	4	3	3	1	0	674	1	4	0	184	63	0	2	97
random	6	1	66	1262504	3	1	1	1	0	765	1	4	0	168	64	0	2	97
random	6	1	67	1264085	1	3	3	1	0	905	1	4	0	184	65	0	2	97
random	6	1	68	1265731	5	4	4	1	0	932	1	4	0	192	66	0	2	97
random	6	1	69	1267237	2	2	2	1	0	780	1	4	0	176	67	0	2	97
random	6	1	70	1268484	3	1	1	1	0	1511	1	4	0	168	68	0	2	97
random	6	1	71	1270711	5	4	4	1	0	641	1	4	0	192	69	0	2	97
random	6	1	72	1271879	6	3	3	1	0	816	1	4	0	184	70	0	2	97
random	6	1	73	1273811	2	1	1	1	0	1126	1	4	0	168	71	0	2	97
random	6	1	74	1275683	5	3	3	1	0	1246	1	4	0	184	72	0	2	97
random	6	1	75	1277647	1	4	4	1	0	724	1	4	0	192	73	0	2	97
random	6	1	76	1279077	6	2	2	1	0	703	1	4	0	176	74	0	2	97
random	6	1	77	1280263	2	1	1	1	0	828	1	4	0	168	75	0	2	97
random	6	1	78	1281990	4	4	4	1	0	948	1	4	0	192	76	0	2	97
random	6	1	79	1283458	3	2	2	1	0	1381	1	4	0	176	77	0	2	97
random	6	1	80	1285365	4	3	3	1	0	869	1	4	0	184	78	0	2	98
random	6	1	81	1286562	1	4	4	2	0	1594	2	4	0	192	79	0	2	98
random	6	1	82	1289124	5	1	1	1	0	701	1	4	0	168	80	0	2	98
random	6	1	83	1290761	3	2	2	1	0	816	1	4	0	176	81	0	2	98
random	6	1	84	1292550	6	3	3	1	0	556	1	4	0	184	82	0	2	98
random	6	1	85	1294345	3	2	2	1	0	736	1	4	0	176	83	0	2	98
random	6	1	86	1295391	1	3	3	1	0	1044	1	4	0	184	84	0	2	98
random	6	1	87	1297326	4	4	4	1	0	1122	1	4	0	192	85	0	2	98
random	6	1	88	1299060	2	1	1	1	0	776	1	4	0	168	86	0	2	98
random	6	1	89	1300386	6	4	4	1	0	688	1	4	0	192	87	0	2	98
random	6	1	90	1301819	3	3	3	1	0	932	1	4	0	184	88	0	2	98
random	6	1	91	1303587	5	4	4	1	0	1257	1	4	0	192	89	0	2	98
random	6	1	92	1305855	1	2	2	1	0	672	1	4	0	176	90	0	2	98
random	6	1	93	1307366	5	1	1	1	0	785	1	4	0	168	91	0	2	98
random	6	1	94	1308988	4	3	3	1	0	772	1	4	0	184	92	0	2	98
random	6	1	95	1310550	6	1	1	1	0	1050	1	4	0	168	93	0	2	98
random	6	1	96	1312290	2	2	2	1	0	880	1	4	0	176	94	0	2	98
random	6	1	97	1314344	4	3	3	1	0	849	1	4	0	184	95	0	2	98
random	6	1	98	1315682	3	2	2	1	0	776	1	4	0	176	96	0	2	98
random	6	1	99	1317403	6	3	3	1	0	1615	1	4	0	184	97	0	2	98
random	6	1	100	1320007	1	4	4	1	0	1161	1	4	0	192	98	0	2	98
random	6	1	101	1321838	4	1	1	1	0	732	1	4	0	168	99	0	2	98
random	6	1	102	1323414	5	2	2	2	0	1257	2	4	0	176	100	0	2	98
random	6	1	103	1325055	2	4	4	1	0	771	1	4	0	192	101	0	2	98
random	6	1	104	1326833	3	1	1	1	0	664	1	4	0	168	102	0	2	98
random	6	1	105	1327847	1	3	3	1	0	717	1	4	0	184	103	0	2	98
random	6	1	106	1329421	2	2	2	1	0	851	1	4	0	176	104	0	2	98
random	6	1	107	1330701	5	4	4	1	0	844	1	4	0	192	105	0	2	98
random	6	1	108	1332521	6	1	1	1	0	759	1	4	0	168	106	0	2	98
random	6	1	109	1333892	5	4	4	1	0	973	1	4	0	192	107	0	2	98
random	6	1	110	1335634	6	3	3	1	0	1115	1	4	0	184	108	0	2	98
random	6	1	111	1337696	2	2	2	1	0	724	1	4	0	176	109	0	2	98
random	6	1	112	1338891	3	1	1	1	0	1105	1	4	0	168	110	0	2	98
random	6	1	113	1340667	1	2	2	1	0	1022	1	4	0	176	111	0	2	98
random	6	1	114	1342659	2	3	3	1	0	730	1	4	0	184	112	0	2	98
random	6	1	115	1344161	3	1	1	1	0	826	1	4	0	168	113	0	2	98
random	6	1	116	1345515	4	4	4	1	0	841	1	4	0	192	114	0	2	98
random	6	1	117	1347119	6	1	1	2	0	1781	2	4	0	168	115	0	2	98
random	6	1	118	1349806	5	3	3	1	0	747	1	4	0	184	116	0	2	98
random	6	1	119	1351342	1	4	4	1	0	914	1	4	0	192	117	0	2	98
random	6	1	120	1352947	4	2	2	1	0	694	1	4	0	176	118	0	2	98
fixed	7	1	1	1354657	4	1	1	1	0	789	1	4	0	200	1	0	0	100
fixed	7	1	2	1356152	1	2	2	1	0	790	1	4	0	208	2	0	0	100
fixed	7	1	3	1357333	6	4	4	1	0	1012	1	4	0	224	3	0	0	100
fixed	7	1	4	1359004	2	1	1	1	0	869	1	4	0	200	4	0	0	100
fixed	7	1	5	1360613	5	3	3	1	0	881	1	4	0	216	5	0	0	100
fixed	7	1	6	1361795	6	4	4	1	0	1479	1	4	0	224	6	0	0	100
fixed	7	1	7	1363683	3	1	1	1	0	775	1	4	0	200	7	0	0	100
fixed	7	1	8	1364974	2	3	3	1	0	865	1	4	0	216	8	0	0	100
fixed	7	1	9	1366846	3	2	2	1	0	1145	1	4	0	208	9	0	0	100
fixed	7	1	10	1368303	1	4	4	1	0	1020	1	4	0	224	10	0	0	100
fixed	7	1	11	1369915	5	2	2	1	0	767	1	4	0	208	11	0	0	100
fixed	7	1	12	1371533	4	3	3	2	0	1171	2	4	0	216	12	0	0	100
fixed	7	2	1	1373790	4	1	1	1	0	827	1	4	0	200	1	0	0	8
fixed	7	2	2	1375608	1	2	2	1	0	862	1	4	0	208	2	0	0	14
fixed	7	2	3	1377279	6	4	4	1	0	743	1	4	0	224	3	0	0	20
fixed	7	2	4	1378455	2	1	1	1	0	926	1	4	0	200	4	0	0	25
fixed	7	2	5	1380292	5	3	3	1	0	632	1	4	0	216	5	0	0	29
fixed	7	2	6	1381885	6	4	4	1	0	1188	1	4	0	224	6	0	0	33
fixed	7	2	7	1383721	3	1	1	1	0	975	1	4	0	200	7	0	0	37
fixed	7	2	8	1385358	2	3	3	1	0	721	1	4	0	216	8	0	0	40
fixed	7	2	9	1386734	3	2	2	1	0	319	1	4	0	208	9	0	0	43
fixed	7	2	10	1387595	1	4	4	1	0	786	1	4	0	224	10	0	0	45
fixed	7	2	11	1388944	5	2	2	1	0	473	1	4	0	208	11	0	0	48
fixed	7	2	12	1389971	4	3	3	1	0	126	1	4	0	216	12	0	0	50
fixed	7	3	1	1390832	4	1	1	1	0	793	1	4	0	200	1	0	0	4
fixed	7	3	2	1391926	1	2	2	1	0	995	1	4	0	208	2	0	0	8
fixed	7	3	3	1393326	6	4	4	1	0	792	1	4	0	224	3	0	0	11
fixed	7	3	4	1394886	2	1	1	1	0	1118	1	4	0	200	4	0	0	14
fixed	7	3	5	1396503	5	3	3	1	0	737	1	4	0	216	5	0	0	17
fixed	7	3	6	1397883	6	4	4	1	0	583	1	4	0	224	6	0	0	20
fixed	7	3	7	1398830	3	1	1	1	0	1775	1	4	0	200	7	0	0	23
fixed	7	3	8	1401639	2	3	3	1	0	311	1	4	0	216	8	0	0	25
fixed	7	3	9	1402640	3	2	2	1	0	174	1	4	0	208	9	0	0	27
fixed	7	3	10	1403614	1	4	4	1	0	484	1	4	0	224	10	0	0	29
fixed	7	3	11	1404765	5	2	2	1	0	259	1	4	0	208	11	0	0	31
fixed	7	3	12	1405762	4	3	3	1	0	145	1	4	0	216	12	0	0	33
fixed	7	4	1	1406453	4	1	1	1	0	732	1	4	0	200	1	0	0	3
fixed	7	4	2	1407935	1	2	2	1	0	533	1	4	0	208	2	0	0	5
fixed	7	4	3	1408841	6	4	4	1	0	822	1	4	0	224	3	0	0	8
fixed	7	4	4	1410137	2	1	1	1	0	1032	1	4	0	200	4	0	0	10
fixed	7	4	5	1411916	5	3	3	1	0	844	1	4	0	216	5	0	0	12
fixed	7	4	6	1413641	6	4	4	1	0	803	1	4	0	224	6	0	0	14
fixed	7	4	7	1414780	3	1	1	1	0	1739	1	4	0	200	7	0	0	16
fixed	7	4	8	1417195	2	3	3	1	0	1285	1	4	0	216	8	0	0	18
fixed	7	4	9	1418972	3	2	2	1	0	266	1	4	0	208	9	0	0	20
fixed	7	4	10	1419720	1	4	4	1	0	386	1	4	0	224	10	0	0	22
fixed	7	4	11	1420982	5	2	2	1	0	277	1	4	0	208	11	0	0	23
fixed	7	4	12	1422145	4	3	3	1	0	523	1	4	0	216	12	0	0	25
fixed	7	5	1	1423595	4	1	1	1	0	861	1	4	0	200	1	0	0	2
fixed	7	5	2	1425092	1	2	2	1	0	375	1	4	0	208	2	0	0	4
fixed	7	5	3	1426179	6	4	4	1	0	888	1	4	0	224	3	0	0	6
fixed	7	5	4	1427391	2	1	1	1	0	965	1	4	0	200	4	0	0	8
fixed	7	5	5	1429275	5	3	3	1	0	909	1	4	0	216	5	0	0	9
fixed	7	5	6	1430608	6	4	4	1	0	1173	1	4	0	224	6	0	0	11
fixed	7	5	7	1432436	3	1	1	1	0	815	1	4	0	200	7	0	0	13
fixed	7	5	8	1434255	2	3	3	1	0	986	1	4	0	216	8	0	0	14
fixed	7	5	9	1435776	3	2	2	1	0	386	1	4	0	208	9	0	0	16
fixed	7	5	10	1436930	1	4	4	2	0	1905	2	4	0	224	10	0	0	17
fixed	7	5	11	1439440	5	2	2	1	0	935	1	4	0	208	11	0	0	19
fixed	7	5	12	1441287	4	3	3	1	0	344	1	4	0	216	12	0	0	20
fixed	7	6	1	1442859	4	1	1	1	0	790	1	4	0	200	1	0	0	2
fixed	7	6	2	1444362	1	2	2	1	0	654	1	4	0	208	2	0	0	3
fixed	7	6	3	1445548	6	4	4	1	0	772	1	4	0	224	3	0	0	5
fixed	7	6	4	1447332	2	1	1	1	0	729	1	4	0	200	4	0	0	6
fixed	7	6	5	1448434	5	3	3	1	0	1026	1	4	0	216	5	0	0	8
fixed	7	6	6	1449999	6	4	4	2	0	1519	2	4	0	224	6	0	0	9
fixed	7	6	7	1452070	3	1	1	1	0	1232	1	4	0	200	7	0	0	10
fixed	7	6	8	1454052	2	3	3	1	0	900	1	4	0	216	8	0	0	12
fixed	7	6	9	1455335	3	2	2	1	0	518	1	4	0	208	9	0	0	13
fixed	7	6	10	1456345	1	4	4	1	0	707	1	4	0	224	10	0	0	14
fixed	7	6	11	1457784	5	2	2	1	0	262	1	4	0	208	11	0	0	15
fixed	7	6	12	1458382	4	3	3	1	0	340	1	4	0	216	12	0	0	17
fixed	7	7	1	1459383	4	1	1	1	0	762	1	4	0	200	1	0	0	1
fixed	7	7	2	1460660	1	2	2	1	0	348	1	4	0	208	2	0	0	3
fixed	7	7	3	1461591	6	4	4	1	0	340	1	4	0	224	3	0	0	4
fixed	7	7	4	1462678	2	1	1	1	0	678	1	4	0	200	4	0	0	5
fixed	7	7	5	1463946	5	3	3	1	0	537	1	4	0	216	5	0	0	6
fixed	7	7	6	1465103	6	4	4	1	0	728	1	4	0	224	6	0	0	8
fixed	7	7	7	1466615	3	1	1	1	0	1047	1	4	0	200	7	0	0	9
fixed	7	7	8	1468341	2	3	3	1	0	1982	1	4	0	216	8	0	0	10
fixed	7	7	9	1470914	3	2	2	1	0	265	1	4	0	208	9	0	0	11
fixed	7	7	10	1471579	1	4	4	1	0	573	1	4	0	224	10	0	0	12
fixed	7	7	11	1472573	5	2	2	1	0	491	1	4	0	208	11	0	0	13
fixed	7	7	12	1473512	4	3	3	1	0	372	1	4	0	216	12	0	0	14
fixed	7	8	1	1474788	4	1	1	1	0	637	1	4	0	200	1	0	0	1
fixed	7	8	2	1475983	1	2	2	1	0	523	1	4	0	208	2	0	0	2
fixed	7	8	3	1477208	6	4	4	1	0	647	1	4	0	224	3	0	0	3
fixed	7	8	4	1478640	2	1	1	1	0	987	1	4	0	200	4	0	0	5
fixed	7	8	5	1480399	5	3	3	1	0	896	1	4	0	216	5	0	0	6
fixed	7	8	6	1481674	6	4	4	1	0	778	1	4	0	224	6	0	0	7
fixed	7	8	7	1483033	3	1	1	1	0	1344	1	4	0	200	7	0	0	8
fixed	7	8	8	1484892	2	3	3	1	0	1146	1	4	0	216	8	0	0	9
fixed	7	8	9	1486781	3	2	2	1	0	257	1	4	0	208	9	0	0	10
fixed	7	8	10	1487476	1	4	4	1	0	332	1	4	0	224	10	0	0	11
fixed	7	8	11	1488151	5	2	2	1	0	623	1	4	0	208	11	0	0	12
fixed	7	8	12	1489751	4	3	3	1	0	308	1	4	0	216	12	0	0	13
fixed	7	9	1	1491345	4	1	1	1	0	1032	1	4	0	200	1	0	0	1
fixed	7	9	2	1493304	1	2	2	1	0	309	1	4	0	208	2	0	0	2
fixed	7	9	3	1494624	6	4	4	1	0	733	1	4	0	224	3	0	0	3
fixed	7	9	4	1496253	2	1	1	1	0	929	1	4	0	200	4	0	0	4
fixed	7	9	5	1497709	5	3	3	1	0	1322	1	4	0	216	5	0	0	5
fixed	7	9	6	1499603	6	4	4	1	0	674	1	4	0	224	6	0	0	6
fixed	7	9	7	1500705	3	1	1	1	0	1020	1	4	0	200	7	0	0	7
fixed	7	9	8	1502459	2	3	3	1	0	713	1	4	0	216	8	0	0	8
fixed	7	9	9	1503934	3	2	2	1	0	635	1	4	0	208	9	0	0	9
fixed	7	9	10	1505257	1	4	4	1	0	1811	1	4	0	224	10	0	0	9
fixed	7	9	11	1507722	5	2	2	1	0	315	1	4	0	208	11	0	0	10
fixed	7	9	12	1508899	4	3	3	1	0	273	1	4	0	216	12	0	0	11
fixed	7	10	1	1510024	4	1	1	1	0	913	1	4	0	200	1	0	0	1
fixed	7	10	2	1511284	1	2	0	1	2	0	3	4	0	208	1	0	1	1
fixed	7	10	3	1514393	6	4	4	1	0	848	1	4	0	224	2	0	1	2
fixed	7	10	4	1516141	2	1	1	1	0	1638	1	4	0	200	3	0	1	3
fixed	7	10	5	1518081	5	3	3	1	0	836	1	4	0	216	4	0	1	4
fixed	7	10	6	1519330	6	4	4	1	0	615	1	4	0	224	5	0	1	4
fixed	7	10	7	1520301	3	1	1	1	0	862	1	4	0	200	6	0	1	5
fixed	7	10	8	1522116	2	3	3	1	0	849	1	4	0	216	7	0	1	6
fixed	7	10	9	1523374	3	2	2	1	0	363	1	4	0	208	8	0	1	7
fixed	7	10	10	1524125	1	4	4	1	0	1092	1	4	0	224	9	0	1	8
fixed	7	10	11	1525520	5	2	2	1	0	825	1	4	0	208	10	0	1	8
fixed	7	10	12	1527011	4	3	3	1	0	218	1	4	0	216	11	0	1	9
