type	block	sequ.	trial	time	Pos.	Color	Button	NumRsp	Resp_1	RT_1	R_Code	Resp_2	RT_2	Trigg.	n_hit	n_inc	n_miss	score_%

random	1	1	1	1711	6	1	1	1	0	935	1	4	0	8	1	0	0	100
random	1	1	2	3140	4	4	4	1	0	635	1	4	0	32	2	0	0	100
random	1	1	3	4187	2	2	2	1	0	806	1	4	0	16	3	0	0	100
random	1	1	4	5322	3	3	3	1	0	566	1	4	0	24	4	0	0	100
random	1	1	5	6474	5	2	2	1	0	877	1	4	0	16	5	0	0	100
random	1	1	6	7855	1	4	4	1	0	635	1	4	0	32	6	0	0	100
random	1	1	7	9209	6	1	1	1	0	618	1	4	0	8	7	0	0	100
random	1	1	8	10822	2	3	3	1	0	877	1	4	0	24	8	0	0	100
random	1	1	9	12018	4	2	2	1	0	731	1	4	0	16	9	0	0	100
random	1	1	10	13329	1	1	1	1	0	683	1	4	0	8	10	0	0	100
random	1	1	11	14766	5	4	4	1	0	542	1	4	0	32	11	0	0	100
random	1	1	12	15923	3	3	3	1	0	797	1	4	0	24	12	0	0	100
random	1	1	13	17634	5	2	2	1	0	925	1	4	0	16	13	0	0	100
random	1	1	14	18977	1	4	4	1	0	636	1	4	0	32	14	0	0	100
random	1	1	15	20062	3	1	1	1	0	670	1	4	0	8	15	0	0	100
random	1	1	16	21251	4	3	3	1	0	892	1	4	0	24	16	0	0	100
random	1	1	17	22798	6	4	4	1	0	586	1	4	0	32	17	0	0	100
random	1	1	18	24057	2	1	1	1	0	589	1	4	0	8	18	0	0	100
random	1	1	19	25329	5	3	3	1	0	807	1	4	0	24	19	0	0	100
random	1	1	20	26463	2	2	2	1	0	663	1	4	0	16	20	0	0	100
random	1	1	21	27856	3	3	3	1	0	668	1	4	0	24	21	0	0	100
random	1	1	22	29542	6	1	1	1	0	885	1	4	0	8	22	0	0	100
random	1	1	23	31194	4	2	2	1	0	767	1	4	0	16	23	0	0	100
random	1	1	24	32644	1	4	4	1	0	593	1	4	0	32	24	0	0	100
random	1	1	25	33808	4	3	3	1	0	984	1	4	0	24	25	0	0	100
random	1	1	26	35189	2	1	1	1	0	774	1	4	0	8	26	0	0	100
random	1	1	27	36273	5	2	2	1	0	800	1	4	0	16	27	0	0	100
random	1	1	28	37808	6	4	4	1	0	614	1	4	0	32	28	0	0	100
random	1	1	29	38924	1	3	3	1	0	855	1	4	0	24	29	0	0	100
random	1	1	30	40598	5	2	2	1	0	728	1	4	0	16	30	0	0	100
random	1	1	31	42120	2	1	1	1	0	904	1	4	0	8	31	0	0	100
random	1	1	32	43597	3	3	3	1	0	873	1	4	0	24	32	0	0	100
random	1	1	33	45192	6	4	4	1	0	766	1	4	0	32	33	0	0	100
random	1	1	34	46371	4	2	2	1	0	787	1	4	0	16	34	0	0	100
random	1	1	35	47909	3	4	4	1	0	970	1	4	0	32	35	0	0	100
random	1	1	36	49469	1	1	1	1	0	664	1	4	0	8	36	0	0	100
random	1	1	37	50950	3	4	4	1	0	1010	1	4	0	32	37	0	0	100
random	1	1	38	52694	5	3	3	1	0	944	1	4	0	24	38	0	0	100
random	1	1	39	54373	6	1	1	1	0	768	1	4	0	8	39	0	0	100
random	1	1	40	55900	1	2	2	1	0	912	1	4	0	16	40	0	0	100
random	1	1	41	57620	2	3	3	1	0	1359	1	4	0	24	41	0	0	100
random	1	1	42	59474	4	4	4	1	0	705	1	4	0	32	42	0	0	100
random	1	1	43	60904	1	2	2	1	0	924	1	4	0	16	43	0	0	100
random	1	1	44	62738	6	3	3	1	0	687	1	4	0	24	44	0	0	100
random	1	1	45	64435	3	1	1	1	0	710	1	4	0	8	45	0	0	100
random	1	1	46	65954	4	4	4	1	0	606	1	4	0	32	46	0	0	100
random	1	1	47	67406	2	2	2	1	0	1105	1	4	0	16	47	0	0	100
random	1	1	48	69437	5	1	1	1	0	1179	1	4	0	8	48	0	0	100
random	1	1	49	71801	2	3	3	1	0	1070	1	4	0	24	49	0	0	100
random	1	1	50	73496	3	1	1	1	0	767	1	4	0	8	50	0	0	100
random	1	1	51	75265	1	4	4	1	0	740	1	4	0	32	51	0	0	100
random	1	1	52	76661	5	3	3	1	0	920	1	4	0	24	52	0	0	100
random	1	1	53	77917	3	2	2	1	0	755	1	4	0	16	53	0	0	100
random	1	1	54	79021	6	4	4	1	0	637	1	4	0	32	54	0	0	100
random	1	1	55	80375	4	2	2	1	0	827	1	4	0	16	55	0	0	100
random	1	1	56	82210	1	1	1	1	0	605	1	4	0	8	56	0	0	100
random	1	1	57	83332	5	4	4	1	0	662	1	4	0	32	57	0	0	100
random	1	1	58	84299	2	1	1	1	0	765	1	4	0	8	58	0	0	100
random	1	1	59	85831	6	2	2	1	0	1045	1	4	0	16	59	0	0	100
random	1	1	60	87477	4	3	3	1	0	935	1	4	0	24	60	0	0	100
random	1	1	61	89227	1	2	2	1	0	900	1	4	0	16	61	0	0	100
random	1	1	62	90728	6	4	4	1	0	725	1	4	0	32	62	0	0	100
random	1	1	63	92405	4	1	1	1	0	950	1	4	0	8	63	0	0	100
random	1	1	64	93867	2	2	2	1	0	736	1	4	0	16	64	0	0	100
random	1	1	65	95359	4	3	3	1	0	689	1	4	0	24	65	0	0	100
random	1	1	66	96350	3	1	1	1	0	751	1	4	0	8	66	0	0	100
random	1	1	67	97460	1	3	3	1	0	960	1	4	0	24	67	0	0	100
random	1	1	68	99012	5	4	4	1	0	814	1	4	0	32	68	0	0	100
random	1	1	69	100412	2	2	2	1	0	675	1	4	0	16	69	0	0	100
random	1	1	70	101863	3	1	1	1	0	693	1	4	0	8	70	0	0	100
random	1	1	71	102998	5	4	4	1	0	789	1	4	0	32	71	0	0	100
random	1	1	72	104314	6	3	3	1	0	829	1	4	0	24	72	0	0	100
random	1	1	73	106236	2	1	1	1	0	908	1	4	0	8	73	0	0	100
random	1	1	74	107817	5	3	3	1	0	849	1	4	0	24	74	0	0	100
random	1	1	75	109184	1	4	4	1	0	711	1	4	0	32	75	0	0	100
random	1	1	76	110816	6	2	2	1	0	786	1	4	0	16	76	0	0	100
random	1	1	77	112125	2	1	1	1	0	691	1	4	0	8	77	0	0	100
random	1	1	78	113553	4	4	4	1	0	750	1	4	0	32	78	0	0	100
random	1	1	79	115156	3	2	2	1	0	1002	1	4	0	16	79	0	0	100
random	1	1	80	116644	4	3	3	1	0	675	1	4	0	24	80	0	0	100
random	1	1	81	117812	1	4	4	1	0	729	1	4	0	32	81	0	0	100
random	1	1	82	119410	5	1	1	1	0	502	1	4	0	8	82	0	0	100
random	1	1	83	120940	3	2	2	1	0	877	1	4	0	16	83	0	0	100
random	1	1	84	122369	6	3	3	1	0	777	1	4	0	24	84	0	0	100
random	1	1	85	123745	3	2	2	1	0	838	1	4	0	16	85	0	0	100
random	1	1	86	125624	1	3	3	1	0	983	1	4	0	24	86	0	0	100
random	1	1	87	127155	4	4	4	1	0	758	1	4	0	32	87	0	0	100
random	1	1	88	128749	2	1	1	1	0	731	1	4	0	8	88	0	0	100
random	1	1	89	129870	6	4	4	1	0	995	1	4	0	32	89	0	0	100
random	1	1	90	131853	3	3	3	1	0	911	1	4	0	24	90	0	0	100
random	1	1	91	133100	5	4	4	1	0	770	1	4	0	32	91	0	0	100
random	1	1	92	134233	1	2	2	1	0	1331	1	4	0	16	92	0	0	100
random	1	1	93	136189	5	1	1	1	0	1040	1	4	0	8	93	0	0	100
random	1	1	94	137734	4	3	3	1	0	790	1	4	0	24	94	0	0	100
random	1	1	95	139475	6	1	1	1	0	756	1	4	0	8	95	0	0	100
random	1	1	96	140549	2	2	2	1	0	895	1	4	0	16	96	0	0	100
random	1	1	97	142692	4	3	3	1	0	860	1	4	0	24	97	0	0	100
random	1	1	98	144418	3	2	2	1	0	819	1	4	0	16	98	0	0	100
random	1	1	99	146192	6	3	3	1	0	760	1	4	0	24	99	0	0	100
random	1	1	100	147632	1	4	4	1	0	971	1	4	0	32	100	0	0	100
random	1	1	101	149412	4	1	1	1	0	791	1	4	0	8	101	0	0	100
random	1	1	102	150750	5	2	2	1	0	807	1	4	0	16	102	0	0	100
random	1	1	103	152342	2	4	4	1	0	732	1	4	0	32	103	0	0	100
random	1	1	104	153486	3	1	1	1	0	891	1	4	0	8	104	0	0	100
random	1	1	105	155342	1	3	3	1	0	900	1	4	0	24	105	0	0	100
random	1	1	106	156906	2	2	2	1	0	698	1	4	0	16	106	0	0	100
random	1	1	107	158155	5	4	4	1	0	837	1	4	0	32	107	0	0	100
random	1	1	108	159874	6	1	1	1	0	660	1	4	0	8	108	0	0	100
random	1	1	109	161622	5	4	4	1	0	1050	1	4	0	32	109	0	0	100
random	1	1	110	163306	6	3	3	1	0	931	1	4	0	24	110	0	0	100
random	1	1	111	165145	2	2	2	1	0	893	1	4	0	16	111	0	0	100
random	1	1	112	166930	3	1	1	1	0	658	1	4	0	8	112	0	0	100
random	1	1	113	167874	1	2	2	1	0	993	1	4	0	16	113	0	0	100
random	1	1	114	169732	2	3	3	1	0	915	1	4	0	24	114	0	0	100
random	1	1	115	171509	3	1	1	1	0	648	1	4	0	8	115	0	0	100
random	1	1	116	172910	4	4	4	1	0	716	1	4	0	32	116	0	0	100
random	1	1	117	174608	6	1	1	1	0	708	1	4	0	8	117	0	0	100
random	1	1	118	176026	5	3	3	1	0	848	1	4	0	24	118	0	0	100
random	1	1	119	177865	1	4	4	1	0	826	1	4	0	32	119	0	0	100
random	1	1	120	179659	4	2	2	1	0	742	1	4	0	16	120	0	0	100
fixed	2	1	1	181953	4	1	1	1	0	685	1	4	0	40	1	0	0	100
fixed	2	1	2	183019	1	2	2	1	0	752	1	4	0	48	2	0	0	100
fixed	2	1	3	184509	6	4	4	1	0	569	1	4	0	64	3	0	0	100
fixed	2	1	4	185645	2	1	1	1	0	680	1	4	0	40	4	0	0	100
fixed	2	1	5	186661	5	3	3	1	0	982	1	4	0	56	5	0	0	100
fixed	2	1	6	188001	6	4	4	1	0	661	1	4	0	64	6	0	0	100
fixed	2	1	7	188970	3	1	1	1	0	644	1	4	0	40	7	0	0	100
fixed	2	1	8	190473	2	3	3	1	0	901	1	4	0	56	8	0	0	100
fixed	2	1	9	192144	3	2	2	1	0	653	1	4	0	48	9	0	0	100
fixed	2	1	10	193107	1	4	4	1	0	605	1	4	0	64	10	0	0	100
fixed	2	1	11	194376	5	2	2	1	0	743	1	4	0	48	11	0	0	100
fixed	2	1	12	195488	4	3	3	1	0	728	1	4	0	56	12	0	0	100
fixed	2	2	1	197109	4	1	1	1	0	787	1	4	0	40	13	0	0	100
fixed	2	2	2	198521	1	2	2	1	0	920	1	4	0	48	14	0	0	100
fixed	2	2	3	200342	6	4	4	1	0	890	1	4	0	64	15	0	0	100
fixed	2	2	4	202054	2	1	1	1	0	706	1	4	0	40	16	0	0	100
fixed	2	2	5	203460	5	3	3	1	0	814	1	4	0	56	17	0	0	100
fixed	2	2	6	204767	6	4	4	1	0	703	1	4	0	64	18	0	0	100
fixed	2	2	7	206494	3	1	1	1	0	670	1	4	0	40	19	0	0	100
fixed	2	2	8	208029	2	3	3	1	0	893	1	4	0	56	20	0	0	100
fixed	2	2	9	209924	3	2	2	1	0	692	1	4	0	48	21	0	0	100
fixed	2	2	10	211333	1	4	4	1	0	721	1	4	0	64	22	0	0	100
fixed	2	2	11	212932	5	2	2	1	0	717	1	4	0	48	23	0	0	100
fixed	2	2	12	214127	4	3	3	1	0	739	1	4	0	56	24	0	0	100
fixed	2	3	1	216105	4	1	1	1	0	710	1	4	0	40	25	0	0	100
fixed	2	3	2	217182	1	2	2	1	0	841	1	4	0	48	26	0	0	100
fixed	2	3	3	218753	6	4	4	1	0	871	1	4	0	64	27	0	0	100
fixed	2	3	4	220483	2	1	1	1	0	629	1	4	0	40	28	0	0	100
fixed	2	3	5	221656	5	3	3	1	0	819	1	4	0	56	29	0	0	100
fixed	2	3	6	223326	6	4	4	1	0	677	1	4	0	64	30	0	0	100
fixed	2	3	7	224861	3	1	1	1	0	684	1	4	0	40	31	0	0	100
fixed	2	3	8	226226	2	3	3	1	0	818	1	4	0	56	32	0	0	100
fixed	2	3	9	227543	3	2	2	1	0	506	1	4	0	48	33	0	0	100
fixed	2	3	10	229024	1	4	4	1	0	507	1	4	0	64	34	0	0	100
fixed	2	3	11	230002	5	2	2	1	0	826	1	4	0	48	35	0	0	100
fixed	2	3	12	231285	4	3	3	1	0	636	1	4	0	56	36	0	0	100
fixed	2	4	1	232947	4	1	1	1	0	685	1	4	0	40	37	0	0	100
fixed	2	4	2	234290	1	2	2	1	0	1484	1	4	0	48	38	0	0	100
fixed	2	4	3	236477	6	4	4	1	0	848	1	4	0	64	39	0	0	100
fixed	2	4	4	238207	2	1	1	1	0	870	1	4	0	40	40	0	0	100
fixed	2	4	5	240067	5	3	3	1	0	784	1	4	0	56	41	0	0	100
fixed	2	4	6	241394	6	4	4	1	0	632	1	4	0	64	42	0	0	100
fixed	2	4	7	242600	3	1	1	1	0	709	1	4	0	40	43	0	0	100
fixed	2	4	8	243676	2	3	3	1	0	991	1	4	0	56	44	0	0	100
fixed	2	4	9	244998	3	2	2	1	0	559	1	4	0	48	45	0	0	100
fixed	2	4	10	245955	1	4	4	1	0	599	1	4	0	64	46	0	0	100
fixed	2	4	11	247174	5	2	2	1	0	779	1	4	0	48	47	0	0	100
fixed	2	4	12	248414	4	3	3	1	0	774	1	4	0	56	48	0	0	100
fixed	2	5	1	249772	4	1	1	1	0	652	1	4	0	40	49	0	0	100
fixed	2	5	2	251200	1	2	2	1	0	872	1	4	0	48	50	0	0	100
fixed	2	5	3	252762	6	4	4	1	0	646	1	4	0	64	51	0	0	100
fixed	2	5	4	254104	2	1	1	1	0	669	1	4	0	40	52	0	0	100
fixed	2	5	5	255637	5	3	3	1	0	860	1	4	0	56	53	0	0	100
fixed	2	5	6	257461	6	4	4	1	0	703	1	4	0	64	54	0	0	100
fixed	2	5	7	258979	3	1	1	1	0	631	1	4	0	40	55	0	0	100
fixed	2	5	8	260077	2	3	3	1	0	992	1	4	0	56	56	0	0	100
fixed	2	5	9	261399	3	2	2	1	0	544	1	4	0	48	57	0	0	100
fixed	2	5	10	262954	1	4	4	1	0	622	1	4	0	64	58	0	0	100
fixed	2	5	11	264374	5	2	2	1	0	874	1	4	0	48	59	0	0	100
fixed	2	5	12	265585	4	3	3	1	0	679	1	4	0	56	60	0	0	100
fixed	2	6	1	267331	4	1	1	1	0	661	1	4	0	40	61	0	0	100
fixed	2	6	2	268856	1	2	2	1	0	1012	1	4	0	48	62	0	0	100
fixed	2	6	3	270290	6	4	4	1	0	711	1	4	0	64	63	0	0	100
fixed	2	6	4	271531	2	1	1	1	0	643	1	4	0	40	64	0	0	100
fixed	2	6	5	272823	5	3	3	1	0	765	1	4	0	56	65	0	0	100
fixed	2	6	6	274241	6	4	4	1	0	632	1	4	0	64	66	0	0	100
fixed	2	6	7	275694	3	1	1	1	0	691	1	4	0	40	67	0	0	100
fixed	2	6	8	276681	2	3	3	1	0	1089	1	4	0	56	68	0	0	100
fixed	2	6	9	278139	3	2	2	1	0	587	1	4	0	48	69	0	0	100
fixed	2	6	10	279091	1	4	4	1	0	627	1	4	0	64	70	0	0	100
fixed	2	6	11	280314	5	2	2	1	0	751	1	4	0	48	71	0	0	100
fixed	2	6	12	281907	4	3	3	1	0	652	1	4	0	56	72	0	0	100
fixed	2	7	1	283738	4	1	1	1	0	566	1	4	0	40	73	0	0	100
fixed	2	7	2	284670	1	2	2	2	0	1863	2	4	0	48	74	0	0	100
fixed	2	7	3	287180	6	4	4	1	0	588	1	4	0	64	75	0	0	100
fixed	2	7	4	288785	2	1	1	1	0	1008	1	4	0	40	76	0	0	100
fixed	2	7	5	290542	5	3	3	1	0	950	1	4	0	56	77	0	0	100
fixed	2	7	6	292221	6	4	4	1	0	775	1	4	0	64	78	0	0	100
fixed	2	7	7	293824	3	1	1	1	0	675	1	4	0	40	79	0	0	100
fixed	2	7	8	295453	2	3	3	1	0	998	1	4	0	56	80	0	0	100
fixed	2	7	9	296965	3	2	2	1	0	526	1	4	0	48	81	0	0	100
fixed	2	7	10	298244	1	4	4	1	0	800	1	4	0	64	82	0	0	100
fixed	2	7	11	299552	5	2	2	1	0	976	1	4	0	48	83	0	0	100
fixed	2	7	12	300899	4	3	3	1	0	639	1	4	0	56	84	0	0	100
fixed	2	8	1	302768	4	1	1	1	0	904	1	4	0	40	85	0	0	100
fixed	2	8	2	304718	1	2	2	1	0	822	1	4	0	48	86	0	0	100
fixed	2	8	3	306331	6	4	4	1	0	713	1	4	0	64	87	0	0	100
fixed	2	8	4	307533	2	1	1	1	0	670	1	4	0	40	88	0	0	100
fixed	2	8	5	308582	5	3	3	1	0	914	1	4	0	56	89	0	0	100
fixed	2	8	6	309993	6	4	4	1	0	918	1	4	0	64	90	0	0	100
fixed	2	8	7	311540	3	1	1	1	0	644	1	4	0	40	91	0	0	100
fixed	2	8	8	313197	2	3	3	1	0	950	1	4	0	56	92	0	0	100
fixed	2	8	9	314535	3	2	2	1	0	582	1	4	0	48	93	0	0	100
fixed	2	8	10	315543	1	4	4	1	0	667	1	4	0	64	94	0	0	100
fixed	2	8	11	316659	5	2	2	1	0	804	1	4	0	48	95	0	0	100
fixed	2	8	12	317905	4	3	3	1	0	471	1	4	0	56	96	0	0	100
fixed	2	9	1	319125	4	1	1	1	0	755	1	4	0	40	97	0	0	100
fixed	2	9	2	320648	1	2	2	1	0	891	1	4	0	48	98	0	0	100
fixed	2	9	3	321977	6	4	4	1	0	595	1	4	0	64	99	0	0	100
fixed	2	9	4	323153	2	1	1	1	0	752	1	4	0	40	100	0	0	100
fixed	2	9	5	324553	5	3	3	1	0	1061	1	4	0	56	101	0	0	100
fixed	2	9	6	326602	6	4	4	1	0	687	1	4	0	64	102	0	0	100
fixed	2	9	7	327888	3	1	1	1	0	792	1	4	0	40	103	0	0	100
fixed	2	9	8	329303	2	3	3	1	0	948	1	4	0	56	104	0	0	100
fixed	2	9	9	330853	3	2	2	1	0	370	1	4	0	48	105	0	0	100
fixed	2	9	10	331723	1	4	4	1	0	669	1	4	0	64	106	0	0	100
fixed	2	9	11	333395	5	2	2	1	0	783	1	4	0	48	107	0	0	100
fixed	2	9	12	334670	4	3	3	1	0	257	1	4	0	56	108	0	0	100
fixed	2	10	1	336133	4	1	1	1	0	675	1	4	0	40	109	0	0	100
fixed	2	10	2	337255	1	2	2	1	0	995	1	4	0	48	110	0	0	100
fixed	2	10	3	339169	6	4	4	1	0	554	1	4	0	64	111	0	0	100
fixed	2	10	4	340561	2	1	1	1	0	703	1	4	0	40	112	0	0	100
fixed	2	10	5	341801	5	3	3	1	0	779	1	4	0	56	113	0	0	100
fixed	2	10	6	342999	6	4	4	1	0	648	1	4	0	64	114	0	0	100
fixed	2	10	7	344151	3	1	1	1	0	903	1	4	0	40	115	0	0	100
fixed	2	10	8	345667	2	3	3	1	0	1127	1	4	0	56	116	0	0	100
fixed	2	10	9	347704	3	2	2	1	0	529	1	4	0	48	117	0	0	100
fixed	2	10	10	348587	1	4	4	1	0	843	1	4	0	64	118	0	0	100
fixed	2	10	11	350122	5	2	2	1	0	362	1	4	0	48	119	0	0	100
fixed	2	10	12	351176	4	3	3	1	0	278	1	4	0	56	120	0	0	100
fixed	3	1	1	352973	4	1	1	1	0	665	1	4	0	72	1	0	0	100
fixed	3	1	2	354140	1	2	2	1	0	960	1	4	0	80	2	0	0	100
fixed	3	1	3	355602	6	4	4	1	0	538	1	4	0	96	3	0	0	100
fixed	3	1	4	356907	2	1	1	1	0	675	1	4	0	72	4	0	0	100
fixed	3	1	5	358303	5	3	3	1	0	848	1	4	0	88	5	0	0	100
fixed	3	1	6	359968	6	4	4	1	0	585	1	4	0	96	6	0	0	100
fixed	3	1	7	361180	3	1	1	1	0	726	1	4	0	72	7	0	0	100
fixed	3	1	8	362627	2	3	3	1	0	913	1	4	0	88	8	0	0	100
fixed	3	1	9	364185	3	2	2	1	0	470	1	4	0	80	9	0	0	100
fixed	3	1	10	365386	1	4	4	1	0	467	1	4	0	96	10	0	0	100
fixed	3	1	11	366673	5	2	2	1	0	309	1	4	0	80	11	0	0	100
fixed	3	1	12	367517	4	3	3	1	0	330	1	4	0	88	12	0	0	100
fixed	3	2	1	368446	4	1	1	1	0	842	1	4	0	72	13	0	0	100
fixed	3	2	2	370266	1	2	2	1	0	925	1	4	0	80	14	0	0	100
fixed	3	2	3	371790	6	4	4	1	0	612	1	4	0	96	15	0	0	100
fixed	3	2	4	372990	2	1	1	1	0	817	1	4	0	72	16	0	0	100
fixed	3	2	5	374191	5	3	3	1	0	1063	1	4	0	88	17	0	0	100
fixed	3	2	6	376282	6	4	4	1	0	662	1	4	0	96	18	0	0	100
fixed	3	2	7	377371	3	1	1	1	0	768	1	4	0	72	19	0	0	100
fixed	3	2	8	378467	2	3	3	1	0	954	1	4	0	88	20	0	0	100
fixed	3	2	9	380320	3	2	2	1	0	588	1	4	0	80	21	0	0	100
fixed	3	2	10	381214	1	4	4	1	0	605	1	4	0	96	22	0	0	100
fixed	3	2	11	382497	5	2	2	1	0	383	1	4	0	80	23	0	0	100
fixed	3	2	12	383363	4	3	3	1	0	378	1	4	0	88	24	0	0	100
fixed	3	3	1	384418	4	1	1	1	0	533	1	4	0	72	25	0	0	100
fixed	3	3	2	385467	1	2	2	1	0	1170	1	4	0	80	26	0	0	100
fixed	3	3	3	387399	6	4	4	1	0	607	1	4	0	96	27	0	0	100
fixed	3	3	4	389013	2	1	1	1	0	651	1	4	0	72	28	0	0	100
fixed	3	3	5	390287	5	3	3	1	0	765	1	4	0	88	29	0	0	100
fixed	3	3	6	391780	6	4	4	1	0	678	1	4	0	96	30	0	0	100
fixed	3	3	7	392747	3	1	1	1	0	757	1	4	0	72	31	0	0	100
fixed	3	3	8	394128	2	3	3	1	0	826	1	4	0	88	32	0	0	100
fixed	3	3	9	395758	3	2	2	1	0	446	1	4	0	80	33	0	0	100
fixed	3	3	10	396979	1	4	4	1	0	522	1	4	0	96	34	0	0	100
fixed	3	3	11	398056	5	2	2	1	0	492	1	4	0	80	35	0	0	100
fixed	3	3	12	398986	4	3	3	1	0	540	1	4	0	88	36	0	0	100
fixed	3	4	1	400157	4	1	1	1	0	715	1	4	0	72	37	0	0	100
fixed	3	4	2	401304	1	2	2	1	0	1323	1	4	0	80	38	0	0	100
fixed	3	4	3	403594	6	4	4	1	0	562	1	4	0	96	39	0	0	100
fixed	3	4	4	404952	2	1	1	1	0	624	1	4	0	72	40	0	0	100
fixed	3	4	5	406420	5	3	3	1	0	617	1	4	0	88	41	0	0	100
fixed	3	4	6	407556	6	4	4	1	0	665	1	4	0	96	42	0	0	100
fixed	3	4	7	408983	3	1	1	1	0	773	1	4	0	72	43	0	0	100
fixed	3	4	8	410646	2	3	3	1	0	863	1	4	0	88	44	0	0	100
fixed	3	4	9	412321	3	2	2	1	0	368	1	4	0	80	45	0	0	100
fixed	3	4	10	413484	1	4	4	1	0	447	1	4	0	96	46	0	0	100
fixed	3	4	11	414682	5	2	2	1	0	388	1	4	0	80	47	0	0	100
fixed	3	4	12	415999	4	3	3	1	0	244	1	4	0	88	48	0	0	100
fixed	3	5	1	417483	4	1	1	1	0	501	1	4	0	72	49	0	0	100
fixed	3	5	2	418666	1	2	2	1	0	1011	1	4	0	80	50	0	0	100
fixed	3	5	3	420089	6	4	4	1	0	679	1	4	0	96	51	0	0	100
fixed	3	5	4	421194	2	1	1	1	0	624	1	4	0	72	52	0	0	100
fixed	3	5	5	422150	5	3	3	1	0	792	1	4	0	88	53	0	0	100
fixed	3	5	6	423861	6	4	4	1	0	735	1	4	0	96	54	0	0	100
fixed	3	5	7	425210	3	1	1	1	0	878	1	4	0	72	55	0	0	100
fixed	3	5	8	426941	2	3	3	1	0	892	1	4	0	88	56	0	0	100
fixed	3	5	9	428168	3	2	2	1	0	441	1	4	0	80	57	0	0	100
fixed	3	5	10	429414	1	4	4	1	0	364	1	4	0	96	58	0	0	100
fixed	3	5	11	430479	5	2	2	1	0	318	1	4	0	80	59	0	0	100
fixed	3	5	12	431826	4	3	3	1	0	302	1	4	0	88	60	0	0	100
fixed	3	6	1	433088	4	1	1	1	0	656	1	4	0	72	61	0	0	100
fixed	3	6	2	434510	1	2	2	1	0	932	1	4	0	80	62	0	0	100
fixed	3	6	3	436239	6	4	4	1	0	635	1	4	0	96	63	0	0	100
fixed	3	6	4	437455	2	1	1	1	0	671	1	4	0	72	64	0	0	100
fixed	3	6	5	438763	5	3	3	1	0	864	1	4	0	88	65	0	0	100
fixed	3	6	6	440503	6	4	4	1	0	599	1	4	0	96	66	0	0	100
fixed	3	6	7	441678	3	1	1	1	0	764	1	4	0	72	67	0	0	100
fixed	3	6	8	443411	2	3	3	1	0	475	1	4	0	88	68	0	0	100
fixed	3	6	9	444617	3	2	2	1	0	328	1	4	0	80	69	0	0	100
fixed	3	6	10	445619	1	4	4	1	0	373	1	4	0	96	70	0	0	100
fixed	3	6	11	446888	5	2	2	1	0	320	1	4	0	80	71	0	0	100
fixed	3	6	12	447956	4	3	3	1	0	274	1	4	0	88	72	0	0	100
fixed	3	7	1	449378	4	1	1	1	0	494	1	4	0	72	73	0	0	100
fixed	3	7	2	450621	1	2	2	1	0	666	1	4	0	80	74	0	0	100
fixed	3	7	3	452032	6	4	4	1	0	486	1	4	0	96	75	0	0	100
fixed	3	7	4	453106	2	1	1	1	0	584	1	4	0	72	76	0	0	100
fixed	3	7	5	454033	5	3	3	1	0	825	1	4	0	88	77	0	0	100
fixed	3	7	6	455462	6	4	4	1	0	612	1	4	0	96	78	0	0	100
fixed	3	7	7	456585	3	1	1	1	0	733	1	4	0	72	79	0	0	100
fixed	3	7	8	458078	2	3	3	1	0	398	1	4	0	88	80	0	0	100
fixed	3	7	9	458981	3	2	2	1	0	464	1	4	0	80	81	0	0	100
fixed	3	7	10	460330	1	4	4	1	0	383	1	4	0	96	82	0	0	100
fixed	3	7	11	461015	5	2	2	1	0	794	1	4	0	80	83	0	0	100
fixed	3	7	12	462478	4	3	3	1	0	267	1	4	0	88	84	0	0	100
fixed	3	8	1	463980	4	1	1	1	0	604	1	4	0	72	85	0	0	100
fixed	3	8	2	465621	1	2	2	2	0	974	2	4	0	80	86	0	0	100
fixed	3	8	3	467504	6	4	4	1	0	566	1	4	0	96	87	0	0	100
fixed	3	8	4	468415	2	1	1	1	0	728	1	4	0	72	88	0	0	100
fixed	3	8	5	469611	5	3	3	1	0	733	1	4	0	88	89	0	0	100
fixed	3	8	6	471289	6	4	4	1	0	470	1	4	0	96	90	0	0	100
fixed	3	8	7	472719	3	1	1	1	0	737	1	4	0	72	91	0	0	100
fixed	3	8	8	474328	2	3	3	1	0	350	1	4	0	88	92	0	0	100
fixed	3	8	9	475364	3	2	2	1	0	346	1	4	0	80	93	0	0	100
fixed	3	8	10	476292	1	4	4	1	0	450	1	4	0	96	94	0	0	100
fixed	3	8	11	477316	5	2	2	1	0	615	1	4	0	80	95	0	0	100
fixed	3	8	12	478828	4	3	3	1	0	288	1	4	0	88	96	0	0	100
fixed	3	9	1	479886	4	1	1	1	0	530	1	4	0	72	97	0	0	100
fixed	3	9	2	481394	1	2	2	1	0	1130	1	4	0	80	98	0	0	100
fixed	3	9	3	483093	6	4	4	1	0	658	1	4	0	96	99	0	0	100
fixed	3	9	4	484416	2	1	1	1	0	634	1	4	0	72	100	0	0	100
fixed	3	9	5	485752	5	3	3	1	0	697	1	4	0	88	101	0	0	100
fixed	3	9	6	486856	6	4	4	1	0	651	1	4	0	96	102	0	0	100
fixed	3	9	7	488267	3	1	1	1	0	1199	1	4	0	72	103	0	0	100
fixed	3	9	8	490304	2	3	3	1	0	625	1	4	0	88	104	0	0	100
fixed	3	9	9	491591	3	2	2	1	0	387	1	4	0	80	105	0	0	100
fixed	3	9	10	492611	1	4	4	1	0	367	1	4	0	96	106	0	0	100
fixed	3	9	11	493391	5	2	2	1	0	526	1	4	0	80	107	0	0	100
fixed	3	9	12	494382	4	3	3	1	0	444	1	4	0	88	108	0	0	100
fixed	3	10	1	495574	4	1	1	1	0	361	1	4	0	72	109	0	0	100
fixed	3	10	2	496702	1	2	2	1	0	866	1	4	0	80	110	0	0	100
fixed	3	10	3	497963	6	4	4	1	0	812	1	4	0	96	111	0	0	100
fixed	3	10	4	499257	2	1	1	1	0	646	1	4	0	72	112	0	0	100
fixed	3	10	5	500209	5	3	3	1	0	877	1	4	0	88	113	0	0	100
fixed	3	10	6	501600	6	4	4	1	0	603	1	4	0	96	114	0	0	100
fixed	3	10	7	503211	3	1	1	1	0	710	1	4	0	72	115	0	0	100
fixed	3	10	8	504499	2	3	3	1	0	639	1	4	0	88	116	0	0	100
fixed	3	10	9	505632	3	2	2	1	0	439	1	4	0	80	117	0	0	100
fixed	3	10	10	506597	1	4	4	1	0	407	1	4	0	96	118	0	0	100
fixed	3	10	11	507425	5	2	2	1	0	428	1	4	0	80	119	0	0	100
fixed	3	10	12	508728	4	3	3	1	0	300	1	4	0	88	120	0	0	100
fixed	4	1	1	631389	4	1	1	1	0	1025	1	4	0	104	1	0	0	100
fixed	4	1	2	632730	1	2	2	1	0	896	1	4	0	112	2	0	0	100
fixed	4	1	3	634101	6	4	4	1	0	622	1	4	0	128	3	0	0	100
fixed	4	1	4	635548	2	1	1	1	0	577	1	4	0	104	4	0	0	100
fixed	4	1	5	636976	5	3	3	1	0	716	1	4	0	120	5	0	0	100
fixed	4	1	6	638613	6	4	4	1	0	559	1	4	0	128	6	0	0	100
fixed	4	1	7	639949	3	1	1	1	0	655	1	4	0	104	7	0	0	100
fixed	4	1	8	641621	2	3	3	1	0	936	1	4	0	120	8	0	0	100
fixed	4	1	9	643029	3	2	2	1	0	548	1	4	0	112	9	0	0	100
fixed	4	1	10	643863	1	4	4	1	0	801	1	4	0	128	10	0	0	100
fixed	4	1	11	645199	5	2	2	1	0	400	1	4	0	112	11	0	0	100
fixed	4	1	12	646502	4	3	3	1	0	281	1	4	0	120	12	0	0	100
fixed	4	2	1	647798	4	1	1	1	0	778	1	4	0	104	13	0	0	100
fixed	4	2	2	648951	1	2	2	1	0	905	1	4	0	112	14	0	0	100
fixed	4	2	3	650479	6	4	4	1	0	569	1	4	0	128	15	0	0	100
fixed	4	2	4	651861	2	1	1	1	0	718	1	4	0	104	16	0	0	100
fixed	4	2	5	653288	5	3	3	1	0	642	1	4	0	120	17	0	0	100
fixed	4	2	6	654687	6	4	4	1	0	646	1	4	0	128	18	0	0	100
fixed	4	2	7	655968	3	1	1	1	0	680	1	4	0	104	19	0	0	100
fixed	4	2	8	656996	2	3	3	1	0	1085	1	4	0	120	20	0	0	100
fixed	4	2	9	658639	3	2	2	1	0	327	1	4	0	112	21	0	0	100
fixed	4	2	10	659583	1	4	4	1	0	471	1	4	0	128	22	0	0	100
fixed	4	2	11	660368	5	2	2	1	0	502	1	4	0	112	23	0	0	100
fixed	4	2	12	661833	4	3	3	1	0	279	1	4	0	120	24	0	0	100
fixed	4	3	1	662751	4	1	1	1	0	585	1	4	0	104	25	0	0	100
fixed	4	3	2	663656	1	2	2	1	0	1018	1	4	0	112	26	0	0	100
fixed	4	3	3	665372	6	4	4	1	0	569	1	4	0	128	27	0	0	100
fixed	4	3	4	666309	2	1	1	1	0	610	1	4	0	104	28	0	0	100
fixed	4	3	5	667436	5	3	3	1	0	722	1	4	0	120	29	0	0	100
fixed	4	3	6	668660	6	4	4	1	0	663	1	4	0	128	30	0	0	100
fixed	4	3	7	670318	3	1	1	1	0	744	1	4	0	104	31	0	0	100
fixed	4	3	8	671797	2	3	3	1	0	898	1	4	0	120	32	0	0	100
fixed	4	3	9	673219	3	2	2	1	0	446	1	4	0	112	33	0	0	100
fixed	4	3	10	674207	1	4	4	1	0	556	1	4	0	128	34	0	0	100
fixed	4	3	11	675549	5	2	2	1	0	627	1	4	0	112	35	0	0	100
fixed	4	3	12	676675	4	3	3	1	0	395	1	4	0	120	36	0	0	100
fixed	4	4	1	677655	4	1	1	1	0	705	1	4	0	104	37	0	0	100
fixed	4	4	2	679356	1	2	2	1	0	889	1	4	0	112	38	0	0	100
fixed	4	4	3	681189	6	4	4	1	0	652	1	4	0	128	39	0	0	100
fixed	4	4	4	682791	2	1	1	1	0	672	1	4	0	104	40	0	0	100
fixed	4	4	5	684350	5	3	3	1	0	950	1	4	0	120	41	0	0	100
fixed	4	4	6	686226	6	4	4	1	0	526	1	4	0	128	42	0	0	100
fixed	4	4	7	687525	3	1	1	1	0	808	1	4	0	104	43	0	0	100
fixed	4	4	8	688901	2	3	3	1	0	957	1	4	0	120	44	0	0	100
fixed	4	4	9	690257	3	2	2	1	0	420	1	4	0	112	45	0	0	100
fixed	4	4	10	691473	1	4	4	1	0	408	1	4	0	128	46	0	0	100
fixed	4	4	11	692499	5	2	2	1	0	301	1	4	0	112	47	0	0	100
fixed	4	4	12	693613	4	3	3	1	0	126	1	4	0	120	48	0	0	100
fixed	4	5	1	694964	4	1	1	1	0	884	1	4	0	104	49	0	0	100
fixed	4	5	2	696498	1	2	2	1	0	755	1	4	0	112	50	0	0	100
fixed	4	5	3	697717	6	4	4	1	0	712	1	4	0	128	51	0	0	100
fixed	4	5	4	698706	2	1	1	1	0	694	1	4	0	104	52	0	0	100
fixed	4	5	5	700275	5	3	3	1	0	739	1	4	0	120	53	0	0	100
fixed	4	5	6	701898	6	4	4	1	0	743	1	4	0	128	54	0	0	100
fixed	4	5	7	703672	3	1	1	1	0	724	1	4	0	104	55	0	0	100
fixed	4	5	8	705391	2	3	3	1	0	787	1	4	0	120	56	0	0	100
fixed	4	5	9	706511	3	2	2	1	0	475	1	4	0	112	57	0	0	100
fixed	4	5	10	707782	1	4	4	1	0	325	1	4	0	128	58	0	0	100
fixed	4	5	11	708707	5	2	2	1	0	391	1	4	0	112	59	0	0	100
fixed	4	5	12	709606	4	3	3	1	0	472	1	4	0	120	60	0	0	100
fixed	4	6	1	710853	4	1	1	1	0	651	1	4	0	104	61	0	0	100
fixed	4	6	2	712167	1	2	2	1	0	780	1	4	0	112	62	0	0	100
fixed	4	6	3	713456	6	4	4	1	0	462	1	4	0	128	63	0	0	100
fixed	4	6	4	714454	2	1	1	1	0	635	1	4	0	104	64	0	0	100
fixed	4	6	5	715632	5	3	3	1	0	681	1	4	0	120	65	0	0	100
fixed	4	6	6	717045	6	4	4	1	0	573	1	4	0	128	66	0	0	100
fixed	4	6	7	718259	3	1	1	1	0	826	1	4	0	104	67	0	0	100
fixed	4	6	8	719608	2	3	3	1	0	592	1	4	0	120	68	0	0	100
fixed	4	6	9	721176	3	2	2	1	0	310	1	4	0	112	69	0	0	100
fixed	4	6	10	722404	1	4	4	1	0	714	1	4	0	128	70	0	0	100
fixed	4	6	11	723668	5	2	2	1	0	540	1	4	0	112	71	0	0	100
fixed	4	6	12	724721	4	3	3	1	0	432	1	4	0	120	72	0	0	100
fixed	4	7	1	725823	4	1	1	1	0	353	1	4	0	104	73	0	0	100
fixed	4	7	2	726572	1	2	2	1	0	833	1	4	0	112	74	0	0	100
fixed	4	7	3	727710	6	4	4	1	0	481	1	4	0	128	75	0	0	100
fixed	4	7	4	728553	2	1	1	1	0	646	1	4	0	104	76	0	0	100
fixed	4	7	5	729596	5	3	3	1	0	954	1	4	0	120	77	0	0	100
fixed	4	7	6	730904	6	4	4	1	0	690	1	4	0	128	78	0	0	100
fixed	4	7	7	732498	3	1	1	1	0	807	1	4	0	104	79	0	0	100
fixed	4	7	8	733779	2	3	3	1	0	816	1	4	0	120	80	0	0	100
fixed	4	7	9	735510	3	2	2	1	0	375	1	4	0	112	81	0	0	100
fixed	4	7	10	736684	1	4	4	1	0	757	1	4	0	128	82	0	0	100
fixed	4	7	11	737988	5	2	2	1	0	486	1	4	0	112	83	0	0	100
fixed	4	7	12	739327	4	3	3	1	0	365	1	4	0	120	84	0	0	100
fixed	4	8	1	740843	4	1	1	1	0	406	1	4	0	104	85	0	0	100
fixed	4	8	2	742130	1	2	2	1	0	934	1	4	0	112	86	0	0	100
fixed	4	8	3	743677	6	4	4	1	0	645	1	4	0	128	87	0	0	100
fixed	4	8	4	745176	2	1	1	1	0	662	1	4	0	104	88	0	0	100
fixed	4	8	5	746813	5	3	3	1	0	1032	1	4	0	120	89	0	0	100
fixed	4	8	6	748664	6	4	4	1	0	778	1	4	0	128	90	0	0	100
fixed	4	8	7	750239	3	1	1	1	0	703	1	4	0	104	91	0	0	100
fixed	4	8	8	751980	2	3	3	1	0	742	1	4	0	120	92	0	0	100
fixed	4	8	9	753678	3	2	2	1	0	381	1	4	0	112	93	0	0	100
fixed	4	8	10	754900	1	4	4	1	0	538	1	4	0	128	94	0	0	100
fixed	4	8	11	755817	5	2	2	1	0	843	1	4	0	112	95	0	0	100
fixed	4	8	12	757295	4	3	3	1	0	373	1	4	0	120	96	0	0	100
fixed	4	9	1	758486	4	1	1	1	0	306	1	4	0	104	97	0	0	100
fixed	4	9	2	759288	1	2	2	1	0	600	1	4	0	112	98	0	0	100
fixed	4	9	3	760420	6	4	4	1	0	600	1	4	0	128	99	0	0	100
fixed	4	9	4	761999	2	1	1	1	0	613	1	4	0	104	100	0	0	100
fixed	4	9	5	763474	5	3	3	1	0	735	1	4	0	120	101	0	0	100
fixed	4	9	6	765033	6	4	4	1	0	572	1	4	0	128	102	0	0	100
fixed	4	9	7	766475	3	1	1	1	0	655	1	4	0	104	103	0	0	100
fixed	4	9	8	768109	2	3	3	1	0	346	1	4	0	120	104	0	0	100
fixed	4	9	9	769125	3	2	2	1	0	400	1	4	0	112	105	0	0	100
fixed	4	9	10	769945	1	4	4	1	0	732	1	4	0	128	106	0	0	100
fixed	4	9	11	771095	5	2	2	1	0	580	1	4	0	112	107	0	0	100
fixed	4	9	12	772109	4	3	3	1	0	457	1	4	0	120	108	0	0	100
fixed	4	10	1	773456	4	1	1	1	0	328	1	4	0	104	109	0	0	100
fixed	4	10	2	774672	1	2	2	1	0	741	1	4	0	112	110	0	0	100
fixed	4	10	3	775949	6	4	4	1	0	558	1	4	0	128	111	0	0	100
fixed	4	10	4	777133	2	1	1	1	0	644	1	4	0	104	112	0	0	100
fixed	4	10	5	778297	5	3	3	1	0	955	1	4	0	120	113	0	0	100
fixed	4	10	6	779730	6	4	4	1	0	766	1	4	0	128	114	0	0	100
fixed	4	10	7	781188	3	1	1	1	0	489	1	4	0	104	115	0	0	100
fixed	4	10	8	782566	2	3	3	1	0	1078	1	4	0	120	116	0	0	100
fixed	4	10	9	784193	3	2	2	1	0	329	1	4	0	112	117	0	0	100
fixed	4	10	10	785472	1	4	4	1	0	355	1	4	0	128	118	0	0	100
fixed	4	10	11	786445	5	2	2	1	0	570	1	4	0	112	119	0	0	100
fixed	4	10	12	787723	4	3	3	1	0	299	1	4	0	120	120	0	0	100
fixed	5	1	1	789260	4	1	1	1	0	474	1	4	0	136	1	0	0	100
fixed	5	1	2	790442	1	2	2	1	0	905	1	4	0	144	2	0	0	100
fixed	5	1	3	792247	6	4	4	1	0	692	1	4	0	160	3	0	0	100
fixed	5	1	4	793735	2	1	1	1	0	557	1	4	0	136	4	0	0	100
fixed	5	1	5	795178	5	3	3	1	0	928	1	4	0	152	5	0	0	100
fixed	5	1	6	796869	6	4	4	1	0	456	1	4	0	160	6	0	0	100
fixed	5	1	7	798047	3	1	1	1	0	623	1	4	0	136	7	0	0	100
fixed	5	1	8	799377	2	3	3	1	0	518	1	4	0	152	8	0	0	100
fixed	5	1	9	800775	3	2	2	1	0	299	1	4	0	144	9	0	0	100
fixed	5	1	10	801833	1	4	4	1	0	366	1	4	0	160	10	0	0	100
fixed	5	1	11	803010	5	2	2	1	0	300	1	4	0	144	11	0	0	100
fixed	5	1	12	804033	4	3	3	1	0	305	1	4	0	152	12	0	0	100
fixed	5	2	1	805535	4	1	1	1	0	329	1	4	0	136	13	0	0	100
fixed	5	2	2	806235	1	2	2	1	0	843	1	4	0	144	14	0	0	100
fixed	5	2	3	807971	6	4	4	1	0	594	1	4	0	160	15	0	0	100
fixed	5	2	4	808936	2	1	1	1	0	689	1	4	0	136	16	0	0	100
fixed	5	2	5	810338	5	3	3	1	0	822	1	4	0	152	17	0	0	100
fixed	5	2	6	811532	6	4	4	1	0	731	1	4	0	160	18	0	0	100
fixed	5	2	7	813021	3	1	1	1	0	756	1	4	0	136	19	0	0	100
fixed	5	2	8	814717	2	3	3	1	0	436	1	4	0	152	20	0	0	100
fixed	5	2	9	815879	3	2	2	1	0	379	1	4	0	144	21	0	0	100
fixed	5	2	10	817001	1	4	4	1	0	444	1	4	0	160	22	0	0	100
fixed	5	2	11	818149	5	2	2	1	0	443	1	4	0	144	23	0	0	100
fixed	5	2	12	819242	4	3	3	1	0	581	1	4	0	152	24	0	0	100
fixed	5	3	1	820990	4	1	1	1	0	370	1	4	0	136	25	0	0	100
fixed	5	3	2	822310	1	2	2	1	0	699	1	4	0	144	26	0	0	100
fixed	5	3	3	823419	6	4	4	1	0	684	1	4	0	160	27	0	0	100
fixed	5	3	4	824807	2	1	1	1	0	649	1	4	0	136	28	0	0	100
fixed	5	3	5	826325	5	3	3	1	0	985	1	4	0	152	29	0	0	100
fixed	5	3	6	828143	6	4	4	1	0	612	1	4	0	160	30	0	0	100
fixed	5	3	7	829744	3	1	1	1	0	640	1	4	0	136	31	0	0	100
fixed	5	3	8	831122	2	3	3	1	0	310	1	4	0	152	32	0	0	100
fixed	5	3	9	832370	3	2	2	1	0	281	1	4	0	144	33	0	0	100
fixed	5	3	10	833082	1	4	4	1	0	859	1	4	0	160	34	0	0	100
fixed	5	3	11	834365	5	2	2	1	0	564	1	4	0	144	35	0	0	100
fixed	5	3	12	835229	4	3	3	1	0	591	1	4	0	152	36	0	0	100
fixed	5	4	1	836511	4	1	1	1	0	345	1	4	0	136	37	0	0	100
fixed	5	4	2	837847	1	2	2	1	0	728	1	4	0	144	38	0	0	100
fixed	5	4	3	839043	6	4	4	1	0	614	1	4	0	160	39	0	0	100
fixed	5	4	4	840388	2	1	1	1	0	589	1	4	0	136	40	0	0	100
fixed	5	4	5	841673	5	3	3	1	0	918	1	4	0	152	41	0	0	100
fixed	5	4	6	843626	6	4	4	1	0	371	1	4	0	160	42	0	0	100
fixed	5	4	7	845029	3	1	1	1	0	1201	1	4	0	136	43	0	0	100
fixed	5	4	8	846728	2	3	3	1	0	1665	1	4	0	152	44	0	0	100
fixed	5	4	9	849119	3	2	2	1	0	779	1	4	0	144	45	0	0	100
fixed	5	4	10	850910	1	4	4	1	0	960	1	4	0	160	46	0	0	100
fixed	5	4	11	852684	5	2	2	1	0	868	1	4	0	144	47	0	0	100
fixed	5	4	12	854195	4	3	3	1	0	436	1	4	0	152	48	0	0	100
fixed	5	5	1	855224	4	1	1	1	0	768	1	4	0	136	49	0	0	100
fixed	5	5	2	856815	1	2	2	1	0	933	1	4	0	144	50	0	0	100
fixed	5	5	3	858193	6	4	4	1	0	867	1	4	0	160	51	0	0	100
fixed	5	5	4	859708	2	1	1	1	0	603	1	4	0	136	52	0	0	100
fixed	5	5	5	860965	5	3	3	1	0	1126	1	4	0	152	53	0	0	100
fixed	5	5	6	862702	6	4	4	1	0	756	1	4	0	160	54	0	0	100
fixed	5	5	7	864237	3	1	1	1	0	651	1	4	0	136	55	0	0	100
fixed	5	5	8	865795	2	3	3	1	0	793	1	4	0	152	56	0	0	100
fixed	5	5	9	866999	3	2	2	1	0	526	1	4	0	144	57	0	0	100
fixed	5	5	10	868047	1	4	4	1	0	498	1	4	0	160	58	0	0	100
fixed	5	5	11	869071	5	2	2	1	0	790	1	4	0	144	59	0	0	100
fixed	5	5	12	870276	4	3	3	1	0	483	1	4	0	152	60	0	0	100
fixed	5	6	1	871748	4	1	1	1	0	717	1	4	0	136	61	0	0	100
fixed	5	6	2	873200	1	2	2	1	0	767	1	4	0	144	62	0	0	100
fixed	5	6	3	874330	6	4	4	1	0	664	1	4	0	160	63	0	0	100
fixed	5	6	4	875379	2	1	1	1	0	747	1	4	0	136	64	0	0	100
fixed	5	6	5	876442	5	3	3	1	0	830	1	4	0	152	65	0	0	100
fixed	5	6	6	878209	6	4	4	1	0	635	1	4	0	160	66	0	0	100
fixed	5	6	7	879557	3	1	1	1	0	658	1	4	0	136	67	0	0	100
fixed	5	6	8	880610	2	3	3	1	0	1037	1	4	0	152	68	0	0	100
fixed	5	6	9	882440	3	2	2	1	0	360	1	4	0	144	69	0	0	100
fixed	5	6	10	883778	1	4	4	1	0	751	1	4	0	160	70	0	0	100
fixed	5	6	11	885277	5	2	2	1	0	336	1	4	0	144	71	0	0	100
fixed	5	6	12	886346	4	3	3	1	0	315	1	4	0	152	72	0	0	100
fixed	5	7	1	887436	4	1	1	1	0	588	1	4	0	136	73	0	0	100
fixed	5	7	2	888857	1	2	2	1	0	1016	1	4	0	144	74	0	0	100
fixed	5	7	3	890692	6	4	4	1	0	450	1	4	0	160	75	0	0	100
fixed	5	7	4	891609	2	1	1	1	0	620	1	4	0	136	76	0	0	100
fixed	5	7	5	892659	5	3	3	1	0	999	1	4	0	152	77	0	0	100
fixed	5	7	6	894310	6	4	4	1	0	641	1	4	0	160	78	0	0	100
fixed	5	7	7	895301	3	1	1	1	0	631	1	4	0	136	79	0	0	100
fixed	5	7	8	896493	2	3	3	1	0	477	1	4	0	152	80	0	0	100
fixed	5	7	9	897697	3	2	2	1	0	361	1	4	0	144	81	0	0	100
fixed	5	7	10	898562	1	4	4	1	0	589	1	4	0	160	82	0	0	100
fixed	5	7	11	899804	5	2	2	1	0	568	1	4	0	144	83	0	0	100
fixed	5	7	12	901296	4	3	3	1	0	273	1	4	0	152	84	0	0	100
fixed	5	8	1	902707	4	1	1	1	0	349	1	4	0	136	85	0	0	100
fixed	5	8	2	903465	1	2	2	1	0	893	1	4	0	144	86	0	0	100
fixed	5	8	3	904976	6	4	4	1	0	582	1	4	0	160	87	0	0	100
fixed	5	8	4	906174	2	1	1	1	0	579	1	4	0	136	88	0	0	100
fixed	5	8	5	907570	5	3	3	1	0	823	1	4	0	152	89	0	0	100
fixed	5	8	6	908951	6	4	4	1	0	797	1	4	0	160	90	0	0	100
fixed	5	8	7	910658	3	1	1	1	0	1220	1	4	0	136	91	0	0	100
fixed	5	8	8	912667	2	3	3	1	0	959	1	4	0	152	92	0	0	100
fixed	5	8	9	914629	3	2	2	1	0	357	1	4	0	144	93	0	0	100
fixed	5	8	10	915510	1	4	4	1	0	511	1	4	0	160	94	0	0	100
fixed	5	8	11	916361	5	2	2	1	0	699	1	4	0	144	95	0	0	100
fixed	5	8	12	917778	4	3	3	1	0	295	1	4	0	152	96	0	0	100
fixed	5	9	1	919164	4	1	1	1	0	940	1	4	0	136	97	0	0	100
fixed	5	9	2	920991	1	2	2	1	0	959	1	4	0	144	98	0	0	100
fixed	5	9	3	922375	6	4	4	1	0	604	1	4	0	160	99	0	0	100
fixed	5	9	4	924020	2	1	1	1	0	719	1	4	0	136	100	0	0	100
fixed	5	9	5	925181	5	3	3	1	0	821	1	4	0	152	101	0	0	100
fixed	5	9	6	926371	6	4	4	1	0	819	1	4	0	160	102	0	0	100
fixed	5	9	7	928214	3	1	1	1	0	861	1	4	0	136	103	0	0	100
fixed	5	9	8	929813	2	3	3	1	0	577	1	4	0	152	104	0	0	100
fixed	5	9	9	931090	3	2	2	1	0	347	1	4	0	144	105	0	0	100
fixed	5	9	10	931830	1	4	4	1	0	588	1	4	0	160	106	0	0	100
fixed	5	9	11	932937	5	2	2	1	0	773	1	4	0	144	107	0	0	100
fixed	5	9	12	934298	4	3	3	1	0	411	1	4	0	152	108	0	0	100
fixed	5	10	1	935654	4	1	1	1	0	322	1	4	0	136	109	0	0	100
fixed	5	10	2	936680	1	2	2	1	0	951	1	4	0	144	110	0	0	100
fixed	5	10	3	938333	6	4	4	1	0	457	1	4	0	160	111	0	0	100
fixed	5	10	4	939818	2	1	1	1	0	633	1	4	0	136	112	0	0	100
fixed	5	10	5	941454	5	3	3	1	0	804	1	4	0	152	113	0	0	100
fixed	5	10	6	943096	6	4	4	1	0	639	1	4	0	160	114	0	0	100
fixed	5	10	7	944261	3	1	1	1	0	661	1	4	0	136	115	0	0	100
fixed	5	10	8	945817	2	3	3	1	0	788	1	4	0	152	116	0	0	100
fixed	5	10	9	947334	3	2	2	1	0	363	1	4	0	144	117	0	0	100
fixed	5	10	10	948076	1	4	4	1	0	836	1	4	0	160	118	0	0	100
fixed	5	10	11	949242	5	2	2	1	0	474	1	4	0	144	119	0	0	100
fixed	5	10	12	950200	4	3	3	1	0	338	1	4	0	152	120	0	0	100
random	6	1	1	1041111	6	1	1	1	0	1751	1	4	0	168	1	0	0	100
random	6	1	2	1043537	4	4	4	1	0	744	1	4	0	192	2	0	0	100
random	6	1	3	1044728	2	2	2	1	0	838	1	4	0	176	3	0	0	100
random	6	1	4	1046369	3	3	3	1	0	705	1	4	0	184	4	0	0	100
random	6	1	5	1047674	5	2	2	1	0	762	1	4	0	176	5	0	0	100
random	6	1	6	1049408	1	4	4	1	0	640	1	4	0	192	6	0	0	100
random	6	1	7	1051069	6	1	1	1	0	857	1	4	0	168	7	0	0	100
random	6	1	8	1052679	2	3	3	1	0	821	1	4	0	184	8	0	0	100
random	6	1	9	1054367	4	2	2	1	0	830	1	4	0	176	9	0	0	100
random	6	1	10	1056050	1	1	1	1	0	814	1	4	0	168	10	0	0	100
random	6	1	11	1057633	5	4	4	1	0	700	1	4	0	192	11	0	0	100
random	6	1	12	1059077	3	3	3	1	0	854	1	4	0	184	12	0	0	100
random	6	1	13	1060494	5	2	2	1	0	970	1	4	0	176	13	0	0	100
random	6	1	14	1062278	1	4	4	1	0	655	1	4	0	192	14	0	0	100
random	6	1	15	1063643	3	1	1	1	0	773	1	4	0	168	15	0	0	100
random	6	1	16	1065119	4	3	3	1	0	830	1	4	0	184	16	0	0	100
random	6	1	17	1066651	6	4	4	1	0	774	1	4	0	192	17	0	0	100
random	6	1	18	1068224	2	1	1	1	0	651	1	4	0	168	18	0	0	100
random	6	1	19	1069267	5	3	3	1	0	927	1	4	0	184	19	0	0	100
random	6	1	20	1070619	2	2	2	1	0	725	1	4	0	176	20	0	0	100
random	6	1	21	1071733	3	3	3	1	0	911	1	4	0	184	21	0	0	100
random	6	1	22	1073395	6	1	1	1	0	888	1	4	0	168	22	0	0	100
random	6	1	23	1074675	4	2	2	1	0	954	1	4	0	176	23	0	0	100
random	6	1	24	1076525	1	4	4	1	0	619	1	4	0	192	24	0	0	100
random	6	1	25	1077870	4	3	3	1	0	922	1	4	0	184	25	0	0	100
random	6	1	26	1079443	2	1	1	1	0	608	1	4	0	168	26	0	0	100
random	6	1	27	1080529	5	2	2	1	0	778	1	4	0	176	27	0	0	100
random	6	1	28	1081972	6	4	4	1	0	701	1	4	0	192	28	0	0	100
random	6	1	29	1083521	1	3	3	1	0	931	1	4	0	184	29	0	0	100
random	6	1	30	1084834	5	2	2	1	0	772	1	4	0	176	30	0	0	100
random	6	1	31	1086595	2	1	1	1	0	809	1	4	0	168	31	0	0	100
random	6	1	32	1087866	3	3	3	1	0	827	1	4	0	184	32	0	0	100
random	6	1	33	1089483	6	4	4	1	0	814	1	4	0	192	33	0	0	100
random	6	1	34	1091201	4	2	2	1	0	685	1	4	0	176	34	0	0	100
random	6	1	35	1092846	3	4	4	1	0	1384	1	4	0	192	35	0	0	100
random	6	1	36	1094829	1	1	1	1	0	612	1	4	0	168	36	0	0	100
random	6	1	37	1096532	3	4	4	1	0	1132	1	4	0	192	37	0	0	100
random	6	1	38	1098032	5	3	3	1	0	845	1	4	0	184	38	0	0	100
random	6	1	39	1099638	6	1	1	1	0	856	1	4	0	168	39	0	0	100
random	6	1	40	1101099	1	2	2	1	0	979	1	4	0	176	40	0	0	100
random	6	1	41	1102605	2	3	3	1	0	835	1	4	0	184	41	0	0	100
random	6	1	42	1104288	4	4	4	1	0	667	1	4	0	192	42	0	0	100
random	6	1	43	1105387	1	2	2	1	0	853	1	4	0	176	43	0	0	100
random	6	1	44	1107042	6	3	3	1	0	831	1	4	0	184	44	0	0	100
random	6	1	45	1108816	3	1	1	1	0	780	1	4	0	168	45	0	0	100
random	6	1	46	1110332	4	4	4	1	0	683	1	4	0	192	46	0	0	100
random	6	1	47	1111926	2	2	2	1	0	824	1	4	0	176	47	0	0	100
random	6	1	48	1113153	5	1	1	1	0	1100	1	4	0	168	48	0	0	100
random	6	1	49	1114944	2	3	3	1	0	1528	1	4	0	184	49	0	0	100
random	6	1	50	1117379	3	1	1	1	0	833	1	4	0	168	50	0	0	100
random	6	1	51	1118846	1	4	4	1	0	531	1	4	0	192	51	0	0	100
random	6	1	52	1120253	5	3	3	1	0	840	1	4	0	184	52	0	0	100
random	6	1	53	1121759	3	2	2	1	0	655	1	4	0	176	53	0	0	100
random	6	1	54	1123136	6	4	4	1	0	685	1	4	0	192	54	0	0	100
random	6	1	55	1124318	4	2	2	1	0	931	1	4	0	176	55	0	0	100
random	6	1	56	1126251	1	1	1	1	0	706	1	4	0	168	56	0	0	100
random	6	1	57	1127366	5	4	4	1	0	1002	1	4	0	192	57	0	0	100
random	6	1	58	1129310	2	1	1	1	0	847	1	4	0	168	58	0	0	100
random	6	1	59	1130785	6	2	2	1	0	793	1	4	0	176	59	0	0	100
random	6	1	60	1132552	4	3	3	1	0	774	1	4	0	184	60	0	0	100
random	6	1	61	1134024	1	2	2	1	0	1216	1	4	0	176	61	0	0	100
random	6	1	62	1135630	6	4	4	1	0	660	1	4	0	192	62	0	0	100
random	6	1	63	1136838	4	1	1	1	0	761	1	4	0	168	63	0	0	100
random	6	1	64	1138150	2	2	2	1	0	761	1	4	0	176	64	0	0	100
random	6	1	65	1139404	4	3	3	1	0	972	1	4	0	184	65	0	0	100
random	6	1	66	1140857	3	1	1	1	0	750	1	4	0	168	66	0	0	100
random	6	1	67	1142409	1	3	3	1	0	1109	1	4	0	184	67	0	0	100
random	6	1	68	1144376	5	4	4	1	0	842	1	4	0	192	68	0	0	100
random	6	1	69	1145514	2	2	2	1	0	690	1	4	0	176	69	0	0	100
random	6	1	70	1146684	3	1	1	1	0	640	1	4	0	168	70	0	0	100
random	6	1	71	1147941	5	4	4	1	0	698	1	4	0	192	71	0	0	100
random	6	1	72	1148997	6	3	3	1	0	886	1	4	0	184	72	0	0	100
random	6	1	73	1151166	2	1	1	1	0	1186	1	4	0	168	73	0	0	100
random	6	1	74	1153262	5	3	3	1	0	953	1	4	0	184	74	0	0	100
random	6	1	75	1154554	1	4	4	1	0	723	1	4	0	192	75	0	0	100
random	6	1	76	1155901	6	2	2	1	0	769	1	4	0	176	76	0	0	100
random	6	1	77	1157081	2	1	1	1	0	655	1	4	0	168	77	0	0	100
random	6	1	78	1158140	4	4	4	1	0	683	1	4	0	192	78	0	0	100
random	6	1	79	1159727	3	2	2	1	0	743	1	4	0	176	79	0	0	100
random	6	1	80	1161399	4	3	3	1	0	729	1	4	0	184	80	0	0	100
random	6	1	81	1162767	1	4	4	1	0	975	1	4	0	192	81	0	0	100
random	6	1	82	1164643	5	1	1	1	0	639	1	4	0	168	82	0	0	100
random	6	1	83	1166260	3	2	2	1	0	803	1	4	0	176	83	0	0	100
random	6	1	84	1167623	6	3	3	1	0	865	1	4	0	184	84	0	0	100
random	6	1	85	1169177	3	2	2	1	0	1095	1	4	0	176	85	0	0	100
random	6	1	86	1170956	1	3	3	1	0	708	1	4	0	184	86	0	0	100
random	6	1	87	1172124	4	4	4	1	0	778	1	4	0	192	87	0	0	100
random	6	1	88	1173816	2	1	1	1	0	1059	1	4	0	168	88	0	0	100
random	6	1	89	1175746	6	4	4	1	0	665	1	4	0	192	89	0	0	100
random	6	1	90	1177064	3	3	3	1	0	865	1	4	0	184	90	0	0	100
random	6	1	91	1178272	5	4	4	1	0	894	1	4	0	192	91	0	0	100
random	6	1	92	1179472	1	2	2	1	0	779	1	4	0	176	92	0	0	100
random	6	1	93	1180857	5	1	1	1	0	992	1	4	0	168	93	0	0	100
random	6	1	94	1182865	4	3	3	1	0	859	1	4	0	184	94	0	0	100
random	6	1	95	1184146	6	1	1	1	0	1021	1	4	0	168	95	0	0	100
random	6	1	96	1185781	2	2	2	1	0	736	1	4	0	176	96	0	0	100
random	6	1	97	1187589	4	3	3	1	0	1115	1	4	0	184	97	0	0	100
random	6	1	98	1189279	3	2	2	1	0	676	1	4	0	176	98	0	0	100
random	6	1	99	1190847	6	3	3	2	0	1025	2	4	0	184	99	0	0	100
random	6	1	100	1192317	1	4	4	1	0	883	1	4	0	192	100	0	0	100
random	6	1	101	1194051	4	1	1	1	0	890	1	4	0	168	101	0	0	100
random	6	1	102	1195339	5	2	2	1	0	819	1	4	0	176	102	0	0	100
random	6	1	103	1196922	2	4	4	1	0	648	1	4	0	192	103	0	0	100
random	6	1	104	1198413	3	1	1	1	0	656	1	4	0	168	104	0	0	100
random	6	1	105	1199652	1	3	3	1	0	796	1	4	0	184	105	0	0	100
random	6	1	106	1201166	2	2	2	1	0	924	1	4	0	176	106	0	0	100
random	6	1	107	1202426	5	4	4	1	0	935	1	4	0	192	107	0	0	100
random	6	1	108	1203848	6	1	1	1	0	746	1	4	0	168	108	0	0	100
random	6	1	109	1205483	5	4	4	1	0	1053	1	4	0	192	109	0	0	100
random	6	1	110	1207437	6	3	3	1	0	1778	1	4	0	184	110	0	0	100
random	6	1	111	1209537	2	2	2	1	0	658	1	4	0	176	111	0	0	100
random	6	1	112	1211056	3	1	1	1	0	649	1	4	0	168	112	0	0	100
random	6	1	113	1212416	1	2	2	1	0	887	1	4	0	176	113	0	0	100
random	6	1	114	1214169	2	3	3	1	0	637	1	4	0	184	114	0	0	100
random	6	1	115	1215469	3	1	1	1	0	631	1	4	0	168	115	0	0	100
random	6	1	116	1216764	4	4	4	1	0	527	1	4	0	192	116	0	0	100
random	6	1	117	1217605	6	1	1	1	0	796	1	4	0	168	117	0	0	100
random	6	1	118	1219113	5	3	3	1	0	876	1	4	0	184	118	0	0	100
random	6	1	119	1220463	1	4	4	1	0	659	1	4	0	192	119	0	0	100
random	6	1	120	1221485	4	2	2	1	0	624	1	4	0	176	120	0	0	100
fixed	7	1	1	1223642	4	1	1	1	0	708	1	4	0	200	1	0	0	100
fixed	7	1	2	1225354	1	2	2	1	0	700	1	4	0	208	2	0	0	100
fixed	7	1	3	1226378	6	4	4	1	0	649	1	4	0	224	3	0	0	100
fixed	7	1	4	1227584	2	1	1	1	0	670	1	4	0	200	4	0	0	100
fixed	7	1	5	1228663	5	3	3	1	0	800	1	4	0	216	5	0	0	100
fixed	7	1	6	1230090	6	4	4	1	0	707	1	4	0	224	6	0	0	100
fixed	7	1	7	1231197	3	1	1	1	0	636	1	4	0	200	7	0	0	100
fixed	7	1	8	1232604	2	3	3	1	0	849	1	4	0	216	8	0	0	100
fixed	7	1	9	1234267	3	2	2	1	0	298	1	4	0	208	9	0	0	100
fixed	7	1	10	1235366	1	4	4	1	0	804	1	4	0	224	10	0	0	100
fixed	7	1	11	1236869	5	2	2	1	0	372	1	4	0	208	11	0	0	100
fixed	7	1	12	1238257	4	3	3	1	0	257	1	4	0	216	12	0	0	100
fixed	7	2	1	1239399	4	1	1	1	0	385	1	4	0	200	1	0	0	8
fixed	7	2	2	1240288	1	2	2	1	0	859	1	4	0	208	2	0	0	14
fixed	7	2	3	1242030	6	4	4	1	0	489	1	4	0	224	3	0	0	20
fixed	7	2	4	1243513	2	1	1	1	0	674	1	4	0	200	4	0	0	25
fixed	7	2	5	1244880	5	3	3	1	0	680	1	4	0	216	5	0	0	29
fixed	7	2	6	1246557	6	4	4	1	0	610	1	4	0	224	6	0	0	33
fixed	7	2	7	1247815	3	1	1	1	0	645	1	4	0	200	7	0	0	37
fixed	7	2	8	1248768	2	3	3	1	0	1004	1	4	0	216	8	0	0	40
fixed	7	2	9	1250202	3	2	2	1	0	343	1	4	0	208	9	0	0	43
fixed	7	2	10	1251253	1	4	4	1	0	683	1	4	0	224	10	0	0	45
fixed	7	2	11	1252531	5	2	2	1	0	412	1	4	0	208	11	0	0	48
fixed	7	2	12	1253430	4	3	3	1	0	359	1	4	0	216	12	0	0	50
fixed	7	3	1	1254837	4	1	1	1	0	331	1	4	0	200	1	0	0	4
fixed	7	3	2	1255683	1	2	2	1	0	871	1	4	0	208	2	0	0	8
fixed	7	3	3	1257208	6	4	4	1	0	454	1	4	0	224	3	0	0	11
fixed	7	3	4	1258633	2	1	1	1	0	634	1	4	0	200	4	0	0	14
fixed	7	3	5	1259699	5	3	3	1	0	1013	1	4	0	216	5	0	0	17
fixed	7	3	6	1261339	6	4	4	1	0	647	1	4	0	224	6	0	0	20
fixed	7	3	7	1262358	3	1	1	1	0	708	1	4	0	200	7	0	0	23
fixed	7	3	8	1263422	2	3	3	1	0	783	1	4	0	216	8	0	0	25
fixed	7	3	9	1265181	3	2	2	1	0	389	1	4	0	208	9	0	0	27
fixed	7	3	10	1266458	1	4	4	1	0	471	1	4	0	224	10	0	0	29
fixed	7	3	11	1267599	5	2	2	1	0	319	1	4	0	208	11	0	0	31
fixed	7	3	12	1268285	4	3	3	1	0	577	1	4	0	216	12	0	0	33
fixed	7	4	1	1269640	4	1	1	1	0	584	1	4	0	200	1	0	0	3
fixed	7	4	2	1270643	1	2	2	1	0	1029	1	4	0	208	2	0	0	5
fixed	7	4	3	1272541	6	4	4	1	0	629	1	4	0	224	3	0	0	8
fixed	7	4	4	1273817	2	1	1	1	0	559	1	4	0	200	4	0	0	10
fixed	7	4	5	1275395	5	3	3	1	0	676	1	4	0	216	5	0	0	12
fixed	7	4	6	1276751	6	4	4	1	0	667	1	4	0	224	6	0	0	14
fixed	7	4	7	1278074	3	1	1	1	0	635	1	4	0	200	7	0	0	16
fixed	7	4	8	1279532	2	3	3	1	0	733	1	4	0	216	8	0	0	18
fixed	7	4	9	1281245	3	2	2	1	0	349	1	4	0	208	9	0	0	20
fixed	7	4	10	1282308	1	4	4	1	0	983	1	4	0	224	10	0	0	22
fixed	7	4	11	1284063	5	2	2	1	0	669	1	4	0	208	11	0	0	23
fixed	7	4	12	1285703	4	3	3	1	0	320	1	4	0	216	12	0	0	25
fixed	7	5	1	1287183	4	1	1	1	0	337	1	4	0	200	1	0	0	2
fixed	7	5	2	1288293	1	2	2	1	0	802	1	4	0	208	2	0	0	4
fixed	7	5	3	1289815	6	4	4	1	0	570	1	4	0	224	3	0	0	6
fixed	7	5	4	1291390	2	1	1	1	0	615	1	4	0	200	4	0	0	8
fixed	7	5	5	1292682	5	3	3	1	0	664	1	4	0	216	5	0	0	9
fixed	7	5	6	1294203	6	4	4	1	0	703	1	4	0	224	6	0	0	11
fixed	7	5	7	1295613	3	1	1	1	0	772	1	4	0	200	7	0	0	13
fixed	7	5	8	1296870	2	3	3	1	0	863	1	4	0	216	8	0	0	14
fixed	7	5	9	1298429	3	2	2	1	0	396	1	4	0	208	9	0	0	16
fixed	7	5	10	1299830	1	4	4	1	0	289	1	4	0	224	10	0	0	17
fixed	7	5	11	1300864	5	2	2	1	0	446	1	4	0	208	11	0	0	19
fixed	7	5	12	1302054	4	3	3	1	0	467	1	4	0	216	12	0	0	20
fixed	7	6	1	1303106	4	1	1	1	0	918	1	4	0	200	1	0	0	2
fixed	7	6	2	1304490	1	2	2	1	0	1179	1	4	0	208	2	0	0	3
fixed	7	6	3	1306102	6	4	4	1	0	608	1	4	0	224	3	0	0	5
fixed	7	6	4	1307722	2	1	1	1	0	603	1	4	0	200	4	0	0	6
fixed	7	6	5	1308797	5	3	3	1	0	1014	1	4	0	216	5	0	0	8
fixed	7	6	6	1310301	6	4	4	1	0	630	1	4	0	224	6	0	0	9
fixed	7	6	7	1311263	3	1	1	1	0	805	1	4	0	200	7	0	0	10
fixed	7	6	8	1313058	2	3	3	1	0	337	1	4	0	216	8	0	0	12
fixed	7	6	9	1313750	3	2	2	1	0	531	1	4	0	208	9	0	0	13
fixed	7	6	10	1314822	1	4	4	1	0	702	1	4	0	224	10	0	0	14
fixed	7	6	11	1315824	5	2	2	1	0	684	1	4	0	208	11	0	0	15
fixed	7	6	12	1317081	4	3	3	1	0	359	1	4	0	216	12	0	0	17
fixed	7	7	1	1318109	4	1	1	1	0	419	1	4	0	200	1	0	0	1
fixed	7	7	2	1319064	1	2	2	1	0	890	1	4	0	208	2	0	0	3
fixed	7	7	3	1320702	6	4	4	1	0	565	1	4	0	224	3	0	0	4
fixed	7	7	4	1322183	2	1	1	1	0	551	1	4	0	200	4	0	0	5
fixed	7	7	5	1323697	5	3	3	1	0	726	1	4	0	216	5	0	0	6
fixed	7	7	6	1325314	6	4	4	1	0	634	1	4	0	224	6	0	0	8
fixed	7	7	7	1326887	3	1	1	1	0	623	1	4	0	200	7	0	0	9
fixed	7	7	8	1328034	2	3	3	1	0	1078	1	4	0	216	8	0	0	10
fixed	7	7	9	1329530	3	2	2	1	0	479	1	4	0	208	9	0	0	11
fixed	7	7	10	1330419	1	4	4	1	0	634	1	4	0	224	10	0	0	12
fixed	7	7	11	1331741	5	2	2	1	0	329	1	4	0	208	11	0	0	13
fixed	7	7	12	1332880	4	3	3	1	0	105	1	4	0	216	12	0	0	14
fixed	7	8	1	1333881	4	1	1	1	0	519	1	4	0	200	1	0	0	1
fixed	7	8	2	1335156	1	2	2	2	0	1401	2	4	0	208	2	0	0	2
fixed	7	8	3	1337059	6	4	4	1	0	688	1	4	0	224	3	0	0	3
fixed	7	8	4	1338048	2	1	1	1	0	719	1	4	0	200	4	0	0	5
fixed	7	8	5	1339312	5	3	3	1	0	657	1	4	0	216	5	0	0	6
fixed	7	8	6	1340444	6	4	4	1	0	569	1	4	0	224	6	0	0	7
fixed	7	8	7	1341430	3	1	1	1	0	639	1	4	0	200	7	0	0	8
fixed	7	8	8	1342502	2	3	3	1	0	810	1	4	0	216	8	0	0	9
fixed	7	8	9	1343667	3	2	2	1	0	449	1	4	0	208	9	0	0	10
fixed	7	8	10	1344689	1	4	4	1	0	541	1	4	0	224	10	0	0	11
fixed	7	8	11	1346275	5	2	2	1	0	370	1	4	0	208	11	0	0	12
fixed	7	8	12	1347374	4	3	3	1	0	260	1	4	0	216	12	0	0	13
fixed	7	9	1	1348250	4	1	1	1	0	758	1	4	0	200	1	0	0	1
fixed	7	9	2	1349795	1	2	2	1	0	973	1	4	0	208	2	0	0	2
fixed	7	9	3	1351477	6	4	4	1	0	606	1	4	0	224	3	0	0	3
fixed	7	9	4	1352840	2	1	1	1	0	1180	1	4	0	200	4	0	0	4
fixed	7	9	5	1354628	5	3	3	1	0	921	1	4	0	216	5	0	0	5
fixed	7	9	6	1356161	6	4	4	1	0	471	1	4	0	224	6	0	0	6
fixed	7	9	7	1357391	3	1	1	1	0	819	1	4	0	200	7	0	0	7
fixed	7	9	8	1358912	2	3	3	1	0	547	1	4	0	216	8	0	0	8
fixed	7	9	9	1359805	3	2	2	1	0	445	1	4	0	208	9	0	0	9
fixed	7	9	10	1361251	1	4	4	1	0	392	1	4	0	224	10	0	0	9
fixed	7	9	11	1362566	5	2	2	1	0	312	1	4	0	208	11	0	0	10
fixed	7	9	12	1363420	4	3	3	1	0	404	1	4	0	216	12	0	0	11
fixed	7	10	1	1364673	4	1	1	1	0	783	1	4	0	200	1	0	0	1
fixed	7	10	2	1366263	1	2	2	1	0	835	1	4	0	208	2	0	0	2
fixed	7	10	3	1367713	6	4	4	1	0	510	1	4	0	224	3	0	0	3
fixed	7	10	4	1368600	2	1	1	1	0	680	1	4	0	200	4	0	0	4
fixed	7	10	5	1369865	5	3	3	1	0	1051	1	4	0	216	5	0	0	4
fixed	7	10	6	1371199	6	4	4	1	0	659	1	4	0	224	6	0	0	5
fixed	7	10	7	1372656	3	1	1	1	0	693	1	4	0	200	7	0	0	6
fixed	7	10	8	1373988	2	3	3	1	0	1212	1	4	0	216	8	0	0	7
fixed	7	10	9	1375716	3	2	2	1	0	331	1	4	0	208	9	0	0	8
fixed	7	10	10	1376573	1	4	4	1	0	1031	1	4	0	224	10	0	0	8
fixed	7	10	11	1378637	5	2	2	1	0	624	1	4	0	208	11	0	0	9
fixed	7	10	12	1380219	4	3	3	1	0	452	1	4	0	216	12	0	0	10
