type	block	sequ.	trial	time	Pos.	Color	Button	NumRsp	Resp_1	RT_1	R_Code	Resp_2	RT_2	Trigg.	n_hit	n_inc	n_miss	score_%

random	1	1	1	1871	6	1	1	1	0	1583	1	4	0	8	1	0	0	100
random	1	1	2	4085	4	4	4	1	0	1553	1	4	0	32	2	0	0	100
random	1	1	3	6122	2	2	2	1	0	1059	1	4	0	16	3	0	0	100
random	1	1	4	7503	3	3	3	1	0	768	1	4	0	24	4	0	0	100
random	1	1	5	8979	5	2	2	1	0	1234	1	4	0	16	5	0	0	100
random	1	1	6	10608	1	4	4	1	0	1109	1	4	0	32	6	0	0	100
random	1	1	7	12469	6	1	1	1	0	1126	1	4	0	8	7	0	0	100
random	1	1	8	14318	2	3	3	2	0	1975	2	4	0	24	8	0	0	100
random	1	1	9	16745	4	2	2	1	0	1057	1	4	0	16	9	0	0	100
random	1	1	10	18247	1	1	1	1	0	1169	1	4	0	8	10	0	0	100
random	1	1	11	19722	5	4	4	1	0	835	1	4	0	32	11	0	0	100
random	1	1	12	21412	3	3	3	1	0	1251	1	4	0	24	12	0	0	100
random	1	1	13	23225	5	2	2	1	0	982	1	4	0	16	13	0	0	100
random	1	1	14	24582	1	4	4	1	0	821	1	4	0	32	14	0	0	100
random	1	1	15	25879	3	1	1	1	0	846	1	4	0	8	15	0	0	100
random	1	1	16	27152	4	3	3	2	0	1448	2	4	0	24	16	0	0	100
random	1	1	17	29480	6	4	4	1	0	781	1	4	0	32	17	0	0	100
random	1	1	18	31242	2	1	1	1	0	1027	1	4	0	8	18	0	0	100
random	1	1	19	33102	5	3	3	1	0	1140	1	4	0	24	19	0	0	100
random	1	1	20	35263	2	2	2	1	0	697	1	4	0	16	20	0	0	100
random	1	1	21	36745	3	3	3	1	0	1338	1	4	0	24	21	0	0	100
random	1	1	22	38462	6	1	1	1	0	961	1	4	0	8	22	0	0	100
random	1	1	23	40376	4	2	2	1	0	944	1	4	0	16	23	0	0	100
random	1	1	24	41884	1	4	4	1	0	800	1	4	0	32	24	0	0	100
random	1	1	25	43559	4	3	3	1	0	1481	1	4	0	24	25	0	0	100
random	1	1	26	45397	2	1	1	1	0	1019	1	4	0	8	26	0	0	100
random	1	1	27	47153	5	2	2	1	0	1241	1	4	0	16	27	0	0	100
random	1	1	28	49434	6	4	4	1	0	745	1	4	0	32	28	0	0	100
random	1	1	29	51089	1	3	3	1	0	1035	1	4	0	24	29	0	0	100
random	1	1	30	53087	5	2	2	1	0	886	1	4	0	16	30	0	0	100
random	1	1	31	54390	2	1	1	1	0	726	1	4	0	8	31	0	0	100
random	1	1	32	55437	3	3	3	1	0	1306	1	4	0	24	32	0	0	100
random	1	1	33	57440	6	4	4	1	0	701	1	4	0	32	33	0	0	100
random	1	1	34	59053	4	2	2	1	0	689	1	4	0	16	34	0	0	100
random	1	1	35	60374	3	4	4	1	0	665	1	4	0	32	35	0	0	100
random	1	1	36	61539	1	1	1	1	0	871	1	4	0	8	36	0	0	100
random	1	1	37	63375	3	4	4	1	0	1098	1	4	0	32	37	0	0	100
random	1	1	38	65027	5	3	3	1	0	1164	1	4	0	24	38	0	0	100
random	1	1	39	67099	6	1	1	2	0	1076	2	4	0	8	39	0	0	100
random	1	1	40	69180	1	2	2	1	0	772	1	4	0	16	40	0	0	100
random	1	1	41	70259	2	3	3	1	0	1118	1	4	0	24	41	0	0	100
random	1	1	42	72052	4	4	4	1	0	610	1	4	0	32	42	0	0	100
random	1	1	43	73661	1	2	2	1	0	1014	1	4	0	16	43	0	0	100
random	1	1	44	75103	6	3	3	1	0	929	1	4	0	24	44	0	0	100
random	1	1	45	76547	3	1	1	1	0	788	1	4	0	8	45	0	0	100
random	1	1	46	77831	4	4	4	1	0	822	1	4	0	32	46	0	0	100
random	1	1	47	79090	2	2	2	1	0	904	1	4	0	16	47	0	0	100
random	1	1	48	80862	5	1	1	1	0	829	1	4	0	8	48	0	0	100
random	1	1	49	82839	2	3	3	1	0	1129	1	4	0	24	49	0	0	100
random	1	1	50	84704	3	1	1	1	0	835	1	4	0	8	50	0	0	100
random	1	1	51	86008	1	4	4	1	0	843	1	4	0	32	51	0	0	100
random	1	1	52	87142	5	3	3	1	0	1195	1	4	0	24	52	0	0	100
random	1	1	53	88741	3	2	2	1	0	727	1	4	0	16	53	0	0	100
random	1	1	54	90433	6	4	4	1	0	752	1	4	0	32	54	0	0	100
random	1	1	55	91888	4	2	2	1	0	834	1	4	0	16	55	0	0	100
random	1	1	56	93437	1	1	1	1	0	929	1	4	0	8	56	0	0	100
random	1	1	57	94931	5	4	4	1	0	794	1	4	0	32	57	0	0	100
random	1	1	58	96637	2	1	1	1	0	881	1	4	0	8	58	0	0	100
random	1	1	59	98105	6	2	2	2	0	1195	2	4	0	16	59	0	0	100
random	1	1	60	100069	4	3	3	1	0	896	1	4	0	24	60	0	0	100
random	1	1	61	102237	1	2	2	1	0	1116	1	4	0	16	61	0	0	100
random	1	1	62	103894	6	4	4	1	0	806	1	4	0	32	62	0	0	100
random	1	1	63	105378	4	1	1	1	0	631	1	4	0	8	63	0	0	100
random	1	1	64	107018	2	2	2	1	0	905	1	4	0	16	64	0	0	100
random	1	1	65	108854	4	3	3	1	0	1251	1	4	0	24	65	0	0	100
random	1	1	66	110886	3	1	1	1	0	798	1	4	0	8	66	0	0	100
random	1	1	67	112690	1	3	3	2	0	1569	2	4	0	24	67	0	0	100
random	1	1	68	114782	5	4	4	1	0	856	1	4	0	32	68	0	0	100
random	1	1	69	116564	2	2	2	1	0	869	1	4	0	16	69	0	0	100
random	1	1	70	118283	3	1	1	1	0	836	1	4	0	8	70	0	0	100
random	1	1	71	120081	5	4	4	1	0	888	1	4	0	32	71	0	0	100
random	1	1	72	121590	6	3	3	1	0	1360	1	4	0	24	72	0	0	100
random	1	1	73	124107	2	1	1	1	0	1005	1	4	0	8	73	0	0	100
random	1	1	74	125481	5	3	3	1	0	963	1	4	0	24	74	0	0	100
random	1	1	75	127462	1	4	4	1	0	816	1	4	0	32	75	0	0	100
random	1	1	76	128731	6	2	2	1	0	786	1	4	0	16	76	0	0	100
random	1	1	77	130379	2	1	1	1	0	772	1	4	0	8	77	0	0	100
random	1	1	78	131958	4	4	4	1	0	721	1	4	0	32	78	0	0	100
random	1	1	79	133654	3	2	2	1	0	921	1	4	0	16	79	0	0	100
random	1	1	80	134926	4	3	3	1	0	643	1	4	0	24	80	0	0	100
random	1	1	81	136497	1	4	4	1	0	761	1	4	0	32	81	0	0	100
random	1	1	82	137958	5	1	1	1	0	643	1	4	0	8	82	0	0	100
random	1	1	83	139595	3	2	2	1	0	821	1	4	0	16	83	0	0	100
random	1	1	84	140802	6	3	3	1	0	898	1	4	0	24	84	0	0	100
random	1	1	85	142938	3	2	2	1	0	824	1	4	0	16	85	0	0	100
random	1	1	86	144351	1	3	3	1	0	972	1	4	0	24	86	0	0	100
random	1	1	87	146353	4	4	4	1	0	823	1	4	0	32	87	0	0	100
random	1	1	88	147550	2	1	1	1	0	701	1	4	0	8	88	0	0	100
random	1	1	89	148805	6	4	4	1	0	615	1	4	0	32	89	0	0	100
random	1	1	90	150415	3	3	3	1	0	1123	1	4	0	24	90	0	0	100
random	1	1	91	151844	5	4	4	1	0	759	1	4	0	32	91	0	0	100
random	1	1	92	153056	1	2	2	1	0	788	1	4	0	16	92	0	0	100
random	1	1	93	154415	5	1	1	1	0	434	1	4	0	8	93	0	0	100
random	1	1	94	155237	4	3	3	2	0	1415	2	4	0	24	94	0	0	100
random	1	1	95	157570	6	1	1	1	0	996	1	4	0	8	95	0	0	100
random	1	1	96	158970	2	2	2	1	0	809	1	4	0	16	96	0	0	100
random	1	1	97	160496	4	3	3	1	0	1168	1	4	0	24	97	0	0	100
random	1	1	98	162184	3	2	2	1	0	801	1	4	0	16	98	0	0	100
random	1	1	99	163618	6	3	3	1	0	988	1	4	0	24	99	0	0	100
random	1	1	100	165480	1	4	4	1	0	869	1	4	0	32	100	0	0	100
random	1	1	101	166907	4	1	1	1	0	793	1	4	0	8	101	0	0	100
random	1	1	102	167998	5	2	2	1	0	970	1	4	0	16	102	0	0	100
random	1	1	103	169430	2	4	4	1	0	894	1	4	0	32	103	0	0	100
random	1	1	104	170806	3	1	1	1	0	1251	1	4	0	8	104	0	0	100
random	1	1	105	172681	1	3	3	1	0	964	1	4	0	24	105	0	0	100
random	1	1	106	174316	2	2	2	1	0	695	1	4	0	16	106	0	0	100
random	1	1	107	175860	5	4	4	1	0	766	1	4	0	32	107	0	0	100
random	1	1	108	177165	6	1	1	1	0	1007	1	4	0	8	108	0	0	100
random	1	1	109	179259	5	4	4	1	0	805	1	4	0	32	109	0	0	100
random	1	1	110	180461	6	3	3	1	0	1266	1	4	0	24	110	0	0	100
random	1	1	111	182586	2	2	2	1	0	841	1	4	0	16	111	0	0	100
random	1	1	112	184234	3	1	1	1	0	659	1	4	0	8	112	0	0	100
random	1	1	113	185539	1	2	2	1	0	1011	1	4	0	16	113	0	0	100
random	1	1	114	187336	2	3	3	1	0	648	1	4	0	24	114	0	0	100
random	1	1	115	188720	3	1	1	1	0	789	1	4	0	8	115	0	0	100
random	1	1	116	189906	4	4	4	1	0	867	1	4	0	32	116	0	0	100
random	1	1	117	191583	6	1	1	1	0	1036	1	4	0	8	117	0	0	100
random	1	1	118	193378	5	3	3	1	0	1039	1	4	0	24	118	0	0	100
random	1	1	119	194995	1	4	4	1	0	1195	1	4	0	32	119	0	0	100
random	1	1	120	196599	4	2	2	1	0	743	1	4	0	16	120	0	0	100
fixed	2	1	1	198353	4	1	1	1	0	789	1	4	0	40	1	0	0	100
fixed	2	1	2	200099	1	2	2	1	0	1115	1	4	0	48	2	0	0	100
fixed	2	1	3	201726	6	4	4	1	0	782	1	4	0	64	3	0	0	100
fixed	2	1	4	203267	2	1	1	1	0	1741	1	4	0	40	4	0	0	100
fixed	2	1	5	205327	5	3	3	1	0	1125	1	4	0	56	5	0	0	100
fixed	2	1	6	206824	6	4	4	1	0	830	1	4	0	64	6	0	0	100
fixed	2	1	7	208054	3	1	1	1	0	970	1	4	0	40	7	0	0	100
fixed	2	1	8	209472	2	3	3	1	0	1262	1	4	0	56	8	0	0	100
fixed	2	1	9	211758	3	2	2	1	0	661	1	4	0	48	9	0	0	100
fixed	2	1	10	212800	1	4	4	1	0	881	1	4	0	64	10	0	0	100
fixed	2	1	11	214350	5	2	2	1	0	975	1	4	0	48	11	0	0	100
fixed	2	1	12	215940	4	3	3	1	0	1156	1	4	0	56	12	0	0	100
fixed	2	2	1	217804	4	1	1	1	0	629	1	4	0	40	13	0	0	100
fixed	2	2	2	219061	1	2	2	1	0	936	1	4	0	48	14	0	0	100
fixed	2	2	3	220345	6	4	4	1	0	913	1	4	0	64	15	0	0	100
fixed	2	2	4	222053	2	1	1	1	0	1161	1	4	0	40	16	0	0	100
fixed	2	2	5	224039	5	3	3	1	0	1213	1	4	0	56	17	0	0	100
fixed	2	2	6	226122	6	4	4	1	0	972	1	4	0	64	18	0	0	100
fixed	2	2	7	227751	3	1	1	1	0	920	1	4	0	40	19	0	0	100
fixed	2	2	8	229150	2	3	3	1	0	1068	1	4	0	56	20	0	0	100
fixed	2	2	9	230531	3	2	2	1	0	594	1	4	0	48	21	0	0	100
fixed	2	2	10	231778	1	4	4	1	0	821	1	4	0	64	22	0	0	100
fixed	2	2	11	233526	5	2	2	1	0	1003	1	4	0	48	23	0	0	100
fixed	2	2	12	235164	4	3	3	2	0	1430	2	4	0	56	24	0	0	100
fixed	2	3	1	237819	4	1	1	1	0	733	1	4	0	40	25	0	0	100
fixed	2	3	2	239296	1	2	2	1	0	1343	1	4	0	48	26	0	0	100
fixed	2	3	3	240957	6	4	4	1	0	801	1	4	0	64	27	0	0	100
fixed	2	3	4	242314	2	1	1	1	0	1047	1	4	0	40	28	0	0	100
fixed	2	3	5	244149	5	3	3	1	0	1089	1	4	0	56	29	0	0	100
fixed	2	3	6	246137	6	4	4	1	0	1189	1	4	0	64	30	0	0	100
fixed	2	3	7	247989	3	1	1	1	0	991	1	4	0	40	31	0	0	100
fixed	2	3	8	249957	2	3	3	1	0	1467	1	4	0	56	32	0	0	100
fixed	2	3	9	252307	3	2	2	1	0	728	1	4	0	48	33	0	0	100
fixed	2	3	10	253700	1	4	4	1	0	949	1	4	0	64	34	0	0	100
fixed	2	3	11	255478	5	2	2	1	0	881	1	4	0	48	35	0	0	100
fixed	2	3	12	256708	4	3	3	1	0	1333	1	4	0	56	36	0	0	100
fixed	2	4	1	258620	4	1	1	1	0	732	1	4	0	40	37	0	0	100
fixed	2	4	2	259984	1	2	2	1	0	1179	1	4	0	48	38	0	0	100
fixed	2	4	3	261556	6	4	4	1	0	736	1	4	0	64	39	0	0	100
fixed	2	4	4	263020	2	1	1	1	0	1042	1	4	0	40	40	0	0	100
fixed	2	4	5	264861	5	3	3	1	0	916	1	4	0	56	41	0	0	100
fixed	2	4	6	266629	6	4	4	1	0	913	1	4	0	64	42	0	0	100
fixed	2	4	7	267869	3	1	1	1	0	965	1	4	0	40	43	0	0	100
fixed	2	4	8	269221	2	3	3	1	0	1187	1	4	0	56	44	0	0	100
fixed	2	4	9	271265	3	2	2	1	0	717	1	4	0	48	45	0	0	100
fixed	2	4	10	272509	1	4	4	1	0	792	1	4	0	64	46	0	0	100
fixed	2	4	11	274100	5	2	2	1	0	885	1	4	0	48	47	0	0	100
fixed	2	4	12	275601	4	3	3	1	0	1325	1	4	0	56	48	0	0	100
fixed	2	5	1	277968	4	1	1	1	0	761	1	4	0	40	49	0	0	100
fixed	2	5	2	279577	1	2	2	1	0	893	1	4	0	48	50	0	0	100
fixed	2	5	3	281381	6	4	4	1	0	984	1	4	0	64	51	0	0	100
fixed	2	5	4	283231	2	1	1	1	0	938	1	4	0	40	52	0	0	100
fixed	2	5	5	284501	5	3	3	1	0	1092	1	4	0	56	53	0	0	100
fixed	2	5	6	286340	6	4	4	1	0	758	1	4	0	64	54	0	0	100
fixed	2	5	7	287978	3	1	1	1	0	1049	1	4	0	40	55	0	0	100
fixed	2	5	8	289836	2	3	3	1	0	1274	1	4	0	56	56	0	0	100
fixed	2	5	9	291466	3	2	2	1	0	605	1	4	0	48	57	0	0	100
fixed	2	5	10	292606	1	4	4	1	0	941	1	4	0	64	58	0	0	100
fixed	2	5	11	294383	5	2	2	1	0	1042	1	4	0	48	59	0	0	100
fixed	2	5	12	295773	4	3	3	1	0	743	1	4	0	56	60	0	0	100
fixed	2	6	1	297332	4	1	1	1	0	740	1	4	0	40	61	0	0	100
fixed	2	6	2	298701	1	2	2	1	0	986	1	4	0	48	62	0	0	100
fixed	2	6	3	300226	6	4	4	1	0	698	1	4	0	64	63	0	0	100
fixed	2	6	4	301942	2	1	1	1	0	897	1	4	0	40	64	0	0	100
fixed	2	6	5	303466	5	3	3	2	0	1257	2	4	0	56	65	0	0	100
fixed	2	6	6	305039	6	4	4	1	0	830	1	4	0	64	66	0	0	100
fixed	2	6	7	306245	3	1	1	1	0	939	1	4	0	40	67	0	0	100
fixed	2	6	8	308096	2	3	3	1	0	981	1	4	0	56	68	0	0	100
fixed	2	6	9	309562	3	2	2	1	0	734	1	4	0	48	69	0	0	100
fixed	2	6	10	310601	1	4	4	1	0	811	1	4	0	64	70	0	0	100
fixed	2	6	11	312239	5	2	2	1	0	1165	1	4	0	48	71	0	0	100
fixed	2	6	12	313710	4	3	3	1	0	1975	1	4	0	56	72	0	0	100
fixed	2	7	1	316679	4	1	1	1	0	841	1	4	0	40	73	0	0	100
fixed	2	7	2	317858	1	2	2	1	0	1135	1	4	0	48	74	0	0	100
fixed	2	7	3	319863	6	4	4	1	0	826	1	4	0	64	75	0	0	100
fixed	2	7	4	321187	2	1	1	1	0	1083	1	4	0	40	76	0	0	100
fixed	2	7	5	323068	5	3	3	1	0	1171	1	4	0	56	77	0	0	100
fixed	2	7	6	324611	6	4	4	1	0	1050	1	4	0	64	78	0	0	100
fixed	2	7	7	326666	3	1	1	1	0	786	1	4	0	40	79	0	0	100
fixed	2	7	8	328102	2	3	3	1	0	1118	1	4	0	56	80	0	0	100
fixed	2	7	9	330138	3	2	2	1	0	807	1	4	0	48	81	0	0	100
fixed	2	7	10	331460	1	4	4	1	0	927	1	4	0	64	82	0	0	100
fixed	2	7	11	333326	5	2	2	1	0	848	1	4	0	48	83	0	0	100
fixed	2	7	12	334861	4	3	3	1	0	887	1	4	0	56	84	0	0	100
fixed	2	8	1	336428	4	1	1	1	0	804	1	4	0	40	85	0	0	100
fixed	2	8	2	337643	1	2	2	1	0	1162	1	4	0	48	86	0	0	100
fixed	2	8	3	339177	6	4	4	1	0	840	1	4	0	64	87	0	0	100
fixed	2	8	4	340754	2	1	1	1	0	1045	1	4	0	40	88	0	0	100
fixed	2	8	5	342143	5	3	3	1	0	994	1	4	0	56	89	0	0	100
fixed	2	8	6	343546	6	4	4	1	0	815	1	4	0	64	90	0	0	100
fixed	2	8	7	344694	3	1	1	1	0	1031	1	4	0	40	91	0	0	100
fixed	2	8	8	346413	2	3	3	1	0	1278	1	4	0	56	92	0	0	100
fixed	2	8	9	348635	3	2	2	1	0	768	1	4	0	48	93	0	0	100
fixed	2	8	10	350055	1	4	4	1	0	676	1	4	0	64	94	0	0	100
fixed	2	8	11	351326	5	2	2	1	0	910	1	4	0	48	95	0	0	100
fixed	2	8	12	352590	4	3	3	1	0	936	1	4	0	56	96	0	0	100
fixed	2	9	1	354506	4	1	1	1	0	759	1	4	0	40	97	0	0	100
fixed	2	9	2	355812	1	2	2	1	0	1296	1	4	0	48	98	0	0	100
fixed	2	9	3	357428	6	4	4	1	0	787	1	4	0	64	99	0	0	100
fixed	2	9	4	359129	2	1	1	1	0	963	1	4	0	40	100	0	0	100
fixed	2	9	5	360557	5	3	3	1	0	839	1	4	0	56	101	0	0	100
fixed	2	9	6	362400	6	4	4	1	0	905	1	4	0	64	102	0	0	100
fixed	2	9	7	364331	3	1	1	1	0	783	1	4	0	40	103	0	0	100
fixed	2	9	8	365600	2	3	3	1	0	1113	1	4	0	56	104	0	0	100
fixed	2	9	9	367457	3	2	2	1	0	746	1	4	0	48	105	0	0	100
fixed	2	9	10	368739	1	4	4	1	0	812	1	4	0	64	106	0	0	100
fixed	2	9	11	370565	5	2	2	1	0	1103	1	4	0	48	107	0	0	100
fixed	2	9	12	372527	4	3	3	1	0	1036	1	4	0	56	108	0	0	100
fixed	2	10	1	374187	4	1	1	1	0	837	1	4	0	40	109	0	0	100
fixed	2	10	2	375447	1	2	2	1	0	1048	1	4	0	48	110	0	0	100
fixed	2	10	3	377293	6	4	4	1	0	682	1	4	0	64	111	0	0	100
fixed	2	10	4	378642	2	1	1	1	0	1105	1	4	0	40	112	0	0	100
fixed	2	10	5	380296	5	3	3	1	0	819	1	4	0	56	113	0	0	100
fixed	2	10	6	381466	6	4	4	1	0	857	1	4	0	64	114	0	0	100
fixed	2	10	7	382784	3	1	1	1	0	961	1	4	0	40	115	0	0	100
fixed	2	10	8	384637	2	3	3	1	0	1299	1	4	0	56	116	0	0	100
fixed	2	10	9	386633	3	2	2	1	0	742	1	4	0	48	117	0	0	100
fixed	2	10	10	388051	1	4	4	1	0	675	1	4	0	64	118	0	0	100
fixed	2	10	11	389031	5	2	2	1	0	937	1	4	0	48	119	0	0	100
fixed	2	10	12	390923	4	3	3	1	0	769	1	4	0	56	120	0	0	100
fixed	3	1	1	393115	4	1	1	1	0	747	1	4	0	72	1	0	0	100
fixed	3	1	2	394248	1	2	2	1	0	980	1	4	0	80	2	0	0	100
fixed	3	1	3	396080	6	4	4	1	0	718	1	4	0	96	3	0	0	100
fixed	3	1	4	397315	2	1	1	1	0	850	1	4	0	72	4	0	0	100
fixed	3	1	5	398657	5	3	3	1	0	681	1	4	0	88	5	0	0	100
fixed	3	1	6	399899	6	4	4	1	0	796	1	4	0	96	6	0	0	100
fixed	3	1	7	401606	3	1	1	1	0	1036	1	4	0	72	7	0	0	100
fixed	3	1	8	403501	2	3	3	2	0	1052	2	4	0	88	8	0	0	100
fixed	3	1	9	405445	3	2	2	1	0	801	1	4	0	80	9	0	0	100
fixed	3	1	10	406546	1	4	4	1	0	763	1	4	0	96	10	0	0	100
fixed	3	1	11	408188	5	2	2	1	0	829	1	4	0	80	11	0	0	100
fixed	3	1	12	409756	4	3	3	1	0	883	1	4	0	88	12	0	0	100
fixed	3	2	1	411713	4	1	1	1	0	704	1	4	0	72	13	0	0	100
fixed	3	2	2	413051	1	2	2	1	0	1031	1	4	0	80	14	0	0	100
fixed	3	2	3	414402	6	4	4	1	0	782	1	4	0	96	15	0	0	100
fixed	3	2	4	416070	2	1	1	1	0	856	1	4	0	72	16	0	0	100
fixed	3	2	5	417259	5	3	3	1	0	845	1	4	0	88	17	0	0	100
fixed	3	2	6	418562	6	4	4	1	0	846	1	4	0	96	18	0	0	100
fixed	3	2	7	420020	3	1	1	1	0	880	1	4	0	72	19	0	0	100
fixed	3	2	8	421672	2	3	0	1	2	0	3	4	0	88	19	0	1	95
fixed	3	2	9	424704	3	2	2	1	0	842	1	4	0	80	20	0	1	95
fixed	3	2	10	426543	1	4	4	1	0	1036	1	4	0	96	21	0	1	95
fixed	3	2	11	428177	5	2	2	1	0	1159	1	4	0	80	22	0	1	96
fixed	3	2	12	430344	4	3	3	1	0	867	1	4	0	88	23	0	1	96
fixed	3	3	1	431762	4	1	1	1	0	543	1	4	0	72	24	0	1	96
fixed	3	3	2	433044	1	2	2	1	0	1113	1	4	0	80	25	0	1	96
fixed	3	3	3	435017	6	4	4	1	0	749	1	4	0	96	26	0	1	96
fixed	3	3	4	436622	2	1	1	1	0	1369	1	4	0	72	27	0	1	96
fixed	3	3	5	438717	5	3	3	1	0	1008	1	4	0	88	28	0	1	97
fixed	3	3	6	440210	6	4	4	1	0	777	1	4	0	96	29	0	1	97
fixed	3	3	7	441663	3	1	1	1	0	1076	1	4	0	72	30	0	1	97
fixed	3	3	8	443358	2	3	3	1	0	1116	1	4	0	88	31	0	1	97
fixed	3	3	9	444795	3	2	2	1	0	719	1	4	0	80	32	0	1	97
fixed	3	3	10	446454	1	4	4	1	0	801	1	4	0	96	33	0	1	97
fixed	3	3	11	447900	5	2	2	1	0	899	1	4	0	80	34	0	1	97
fixed	3	3	12	449467	4	3	3	1	0	1097	1	4	0	88	35	0	1	97
fixed	3	4	1	451794	4	1	1	1	0	870	1	4	0	72	36	0	1	97
fixed	3	4	2	453206	1	2	2	1	0	1131	1	4	0	80	37	0	1	97
fixed	3	4	3	454646	6	4	4	1	0	870	1	4	0	96	38	0	1	97
fixed	3	4	4	456113	2	1	1	1	0	992	1	4	0	72	39	0	1	98
fixed	3	4	5	457642	5	3	3	1	0	878	1	4	0	88	40	0	1	98
fixed	3	4	6	459440	6	4	4	1	0	755	1	4	0	96	41	0	1	98
fixed	3	4	7	460783	3	1	1	1	0	977	1	4	0	72	42	0	1	98
fixed	3	4	8	462394	2	3	3	1	0	1373	1	4	0	88	43	0	1	98
fixed	3	4	9	464768	3	2	2	1	0	769	1	4	0	80	44	0	1	98
fixed	3	4	10	466062	1	4	4	1	0	834	1	4	0	96	45	0	1	98
fixed	3	4	11	467497	5	2	2	1	0	989	1	4	0	80	46	0	1	98
fixed	3	4	12	469188	4	3	3	1	0	925	1	4	0	88	47	0	1	98
fixed	3	5	1	470958	4	1	1	1	0	754	1	4	0	72	48	0	1	98
fixed	3	5	2	472087	1	2	2	1	0	819	1	4	0	80	49	0	1	98
fixed	3	5	3	473692	6	4	4	1	0	679	1	4	0	96	50	0	1	98
fixed	3	5	4	474995	2	1	1	1	0	832	1	4	0	72	51	0	1	98
fixed	3	5	5	476308	5	3	3	1	0	904	1	4	0	88	52	0	1	98
fixed	3	5	6	477745	6	4	4	1	0	763	1	4	0	96	53	0	1	98
fixed	3	5	7	479207	3	1	1	1	0	910	1	4	0	72	54	0	1	98
fixed	3	5	8	481117	2	3	3	1	0	924	1	4	0	88	55	0	1	98
fixed	3	5	9	482777	3	2	2	1	0	598	1	4	0	80	56	0	1	98
fixed	3	5	10	484335	1	4	4	1	0	692	1	4	0	96	57	0	1	98
fixed	3	5	11	485366	5	2	2	1	0	944	1	4	0	80	58	0	1	98
fixed	3	5	12	487116	4	3	3	1	0	806	1	4	0	88	59	0	1	98
fixed	3	6	1	489069	4	1	1	1	0	779	1	4	0	72	60	0	1	98
fixed	3	6	2	490638	1	2	2	1	0	1137	1	4	0	80	61	0	1	98
fixed	3	6	3	492179	6	4	4	1	0	792	1	4	0	96	62	0	1	98
fixed	3	6	4	493365	2	1	1	1	0	1069	1	4	0	72	63	0	1	98
fixed	3	6	5	495023	5	3	3	1	0	1095	1	4	0	88	64	0	1	98
fixed	3	6	6	496913	6	4	4	1	0	711	1	4	0	96	65	0	1	98
fixed	3	6	7	497917	3	1	1	1	0	1069	1	4	0	72	66	0	1	99
fixed	3	6	8	499370	2	3	0	1	2	0	3	4	0	88	66	0	2	97
fixed	3	6	9	502504	3	2	2	1	0	826	1	4	0	80	67	0	2	97
fixed	3	6	10	504253	1	4	4	1	0	904	1	4	0	96	68	0	2	97
fixed	3	6	11	505496	5	2	2	1	0	956	1	4	0	80	69	0	2	97
fixed	3	6	12	507310	4	3	3	1	0	927	1	4	0	88	70	0	2	97
fixed	3	7	1	509519	4	1	1	1	0	825	1	4	0	72	71	0	2	97
fixed	3	7	2	511282	1	2	2	1	0	951	1	4	0	80	72	0	2	97
fixed	3	7	3	512853	6	4	4	1	0	724	1	4	0	96	73	0	2	97
fixed	3	7	4	514093	2	1	1	1	0	848	1	4	0	72	74	0	2	97
fixed	3	7	5	515525	5	3	3	1	0	955	1	4	0	88	75	0	2	97
fixed	3	7	6	517277	6	4	4	1	0	705	1	4	0	96	76	0	2	97
fixed	3	7	7	518674	3	1	1	1	0	933	1	4	0	72	77	0	2	97
fixed	3	7	8	520633	2	3	3	1	0	1003	1	4	0	88	78	0	2	98
fixed	3	7	9	522603	3	2	2	1	0	799	1	4	0	80	79	0	2	98
fixed	3	7	10	524164	1	4	4	1	0	981	1	4	0	96	80	0	2	98
fixed	3	7	11	525534	5	2	2	1	0	995	1	4	0	80	81	0	2	98
fixed	3	7	12	526835	4	3	3	1	0	1220	1	4	0	88	82	0	2	98
fixed	3	8	1	529034	4	1	1	1	0	743	1	4	0	72	83	0	2	98
fixed	3	8	2	530391	1	2	2	1	0	1133	1	4	0	80	84	0	2	98
fixed	3	8	3	532134	6	4	4	1	0	692	1	4	0	96	85	0	2	98
fixed	3	8	4	533850	2	1	1	1	0	827	1	4	0	72	86	0	2	98
fixed	3	8	5	535071	5	3	3	1	0	871	1	4	0	88	87	0	2	98
fixed	3	8	6	536561	6	4	4	1	0	736	1	4	0	96	88	0	2	98
fixed	3	8	7	537637	3	1	0	1	2	0	3	4	0	72	88	0	3	97
fixed	3	8	8	540980	2	3	3	1	0	1237	1	4	0	88	89	0	3	97
fixed	3	8	9	542561	3	2	2	1	0	714	1	4	0	80	90	0	3	97
fixed	3	8	10	544150	1	4	4	1	0	687	1	4	0	96	91	0	3	97
fixed	3	8	11	545760	5	2	2	1	0	818	1	4	0	80	92	0	3	97
fixed	3	8	12	547043	4	3	3	1	0	1092	1	4	0	88	93	0	3	97
fixed	3	9	1	548966	4	1	1	1	0	618	1	4	0	72	94	0	3	97
fixed	3	9	2	550523	1	2	2	1	0	1065	1	4	0	80	95	0	3	97
fixed	3	9	3	552246	6	4	4	1	0	712	1	4	0	96	96	0	3	97
fixed	3	9	4	553339	2	1	1	1	0	778	1	4	0	72	97	0	3	97
fixed	3	9	5	554478	5	3	3	1	0	1057	1	4	0	88	98	0	3	97
fixed	3	9	6	555938	6	4	4	1	0	915	1	4	0	96	99	0	3	97
fixed	3	9	7	557696	3	1	1	1	0	1041	1	4	0	72	100	0	3	97
fixed	3	9	8	559307	2	3	3	1	0	1244	1	4	0	88	101	0	3	97
fixed	3	9	9	561493	3	2	2	1	0	872	1	4	0	80	102	0	3	97
fixed	3	9	10	563317	1	4	4	1	0	1114	1	4	0	96	103	0	3	97
fixed	3	9	11	565038	5	2	2	1	0	802	1	4	0	80	104	0	3	97
fixed	3	9	12	566237	4	3	3	1	0	1103	1	4	0	88	105	0	3	97
fixed	3	10	1	568564	4	1	1	1	0	884	1	4	0	72	106	0	3	97
fixed	3	10	2	570097	1	2	2	1	0	1100	1	4	0	80	107	0	3	97
fixed	3	10	3	572140	6	4	4	1	0	1093	1	4	0	96	108	0	3	97
fixed	3	10	4	573875	2	1	1	1	0	1027	1	4	0	72	109	0	3	97
fixed	3	10	5	575905	5	3	3	1	0	1022	1	4	0	88	110	0	3	97
fixed	3	10	6	577296	6	4	4	1	0	939	1	4	0	96	111	0	3	97
fixed	3	10	7	579215	3	1	1	1	0	945	1	4	0	72	112	0	3	97
fixed	3	10	8	580505	2	3	3	2	0	1115	2	4	0	88	113	0	3	97
fixed	3	10	9	582510	3	2	2	1	0	918	1	4	0	80	114	0	3	97
fixed	3	10	10	584102	1	4	4	1	0	602	1	4	0	96	115	0	3	97
fixed	3	10	11	585046	5	2	2	1	0	1027	1	4	0	80	116	0	3	97
fixed	3	10	12	586362	4	3	3	1	0	971	1	4	0	88	117	0	3	98
fixed	4	1	1	682224	4	1	1	1	0	1102	1	4	0	104	1	0	0	100
fixed	4	1	2	684323	1	2	2	1	0	1190	1	4	0	112	2	0	0	100
fixed	4	1	3	685999	6	4	4	1	0	775	1	4	0	128	3	0	0	100
fixed	4	1	4	687600	2	1	1	1	0	771	1	4	0	104	4	0	0	100
fixed	4	1	5	688681	5	3	3	1	0	965	1	4	0	120	5	0	0	100
fixed	4	1	6	690609	6	4	4	1	0	764	1	4	0	128	6	0	0	100
fixed	4	1	7	691928	3	1	1	1	0	836	1	4	0	104	7	0	0	100
fixed	4	1	8	693126	2	3	3	1	0	953	1	4	0	120	8	0	0	100
fixed	4	1	9	694689	3	2	2	1	0	638	1	4	0	112	9	0	0	100
fixed	4	1	10	696024	1	4	4	1	0	934	1	4	0	128	10	0	0	100
fixed	4	1	11	697620	5	2	2	1	0	882	1	4	0	112	11	0	0	100
fixed	4	1	12	699385	4	3	3	1	0	959	1	4	0	120	12	0	0	100
fixed	4	2	1	701323	4	1	1	1	0	733	1	4	0	104	13	0	0	100
fixed	4	2	2	702824	1	2	2	1	0	934	1	4	0	112	14	0	0	100
fixed	4	2	3	704649	6	4	4	1	0	712	1	4	0	128	15	0	0	100
fixed	4	2	4	706037	2	1	1	1	0	1118	1	4	0	104	16	0	0	100
fixed	4	2	5	707956	5	3	3	1	0	980	1	4	0	120	17	0	0	100
fixed	4	2	6	709955	6	4	4	1	0	920	1	4	0	128	18	0	0	100
fixed	4	2	7	711282	3	1	1	1	0	1151	1	4	0	104	19	0	0	100
fixed	4	2	8	713052	2	3	3	1	0	1324	1	4	0	120	20	0	0	100
fixed	4	2	9	714815	3	2	2	1	0	826	1	4	0	112	21	0	0	100
fixed	4	2	10	716442	1	4	4	1	0	973	1	4	0	128	22	0	0	100
fixed	4	2	11	718035	5	2	2	1	0	1066	1	4	0	112	23	0	0	100
fixed	4	2	12	720130	4	3	3	1	0	977	1	4	0	120	24	0	0	100
fixed	4	3	1	721974	4	1	1	1	0	635	1	4	0	104	25	0	0	100
fixed	4	3	2	723482	1	2	2	1	0	915	1	4	0	112	26	0	0	100
fixed	4	3	3	724689	6	4	4	1	0	1168	1	4	0	128	27	0	0	100
fixed	4	3	4	726755	2	1	1	1	0	1032	1	4	0	104	28	0	0	100
fixed	4	3	5	728595	5	3	3	1	0	1058	1	4	0	120	29	0	0	100
fixed	4	3	6	730346	6	4	4	1	0	800	1	4	0	128	30	0	0	100
fixed	4	3	7	731673	3	1	1	1	0	968	1	4	0	104	31	0	0	100
fixed	4	3	8	733107	2	3	3	1	0	1291	1	4	0	120	32	0	0	100
fixed	4	3	9	735159	3	2	2	1	0	684	1	4	0	112	33	0	0	100
fixed	4	3	10	736483	1	4	4	1	0	852	1	4	0	128	34	0	0	100
fixed	4	3	11	737739	5	2	2	1	0	1055	1	4	0	112	35	0	0	100
fixed	4	3	12	739294	4	3	3	1	0	845	1	4	0	120	36	0	0	100
fixed	4	4	1	741020	4	1	1	1	0	556	1	4	0	104	37	0	0	100
fixed	4	4	2	742289	1	2	2	1	0	918	1	4	0	112	38	0	0	100
fixed	4	4	3	743668	6	4	4	1	0	868	1	4	0	128	39	0	0	100
fixed	4	4	4	744868	2	1	1	1	0	961	1	4	0	104	40	0	0	100
fixed	4	4	5	746168	5	3	3	1	0	1010	1	4	0	120	41	0	0	100
fixed	4	4	6	747781	6	4	4	1	0	766	1	4	0	128	42	0	0	100
fixed	4	4	7	749546	3	1	1	1	0	955	1	4	0	104	43	0	0	100
fixed	4	4	8	751431	2	3	3	1	0	955	1	4	0	120	44	0	0	100
fixed	4	4	9	753099	3	2	2	1	0	652	1	4	0	112	45	0	0	100
fixed	4	4	10	754111	1	4	4	1	0	890	1	4	0	128	46	0	0	100
fixed	4	4	11	755683	5	2	2	1	0	831	1	4	0	112	47	0	0	100
fixed	4	4	12	757202	4	3	0	1	2	0	3	4	0	120	47	0	1	98
fixed	4	5	1	760318	4	1	1	1	0	1034	1	4	0	104	48	0	1	98
fixed	4	5	2	761701	1	2	2	1	0	1312	1	4	0	112	49	0	1	98
fixed	4	5	3	763386	6	4	4	1	0	1089	1	4	0	128	50	0	1	98
fixed	4	5	4	765160	2	1	1	1	0	1149	1	4	0	104	51	0	1	98
fixed	4	5	5	766829	5	3	3	1	0	879	1	4	0	120	52	0	1	98
fixed	4	5	6	768662	6	4	4	1	0	849	1	4	0	128	53	0	1	98
fixed	4	5	7	770327	3	1	1	1	0	1003	1	4	0	104	54	0	1	98
fixed	4	5	8	772366	2	3	3	1	0	1252	1	4	0	120	55	0	1	98
fixed	4	5	9	774478	3	2	2	1	0	643	1	4	0	112	56	0	1	98
fixed	4	5	10	775774	1	4	4	1	0	892	1	4	0	128	57	0	1	98
fixed	4	5	11	777609	5	2	2	1	0	838	1	4	0	112	58	0	1	98
fixed	4	5	12	779465	4	3	3	1	0	1048	1	4	0	120	59	0	1	98
fixed	4	6	1	781085	4	1	1	1	0	739	1	4	0	104	60	0	1	98
fixed	4	6	2	782345	1	2	2	1	0	1014	1	4	0	112	61	0	1	98
fixed	4	6	3	784348	6	4	4	1	0	841	1	4	0	128	62	0	1	98
fixed	4	6	4	786186	2	1	1	1	0	1059	1	4	0	104	63	0	1	98
fixed	4	6	5	788214	5	3	3	1	0	1829	1	4	0	120	64	0	1	98
fixed	4	6	6	790828	6	4	4	1	0	670	1	4	0	128	65	0	1	98
fixed	4	6	7	791852	3	1	1	1	0	995	1	4	0	104	66	0	1	99
fixed	4	6	8	793684	2	3	3	2	0	1125	2	4	0	120	67	0	1	99
fixed	4	6	9	795815	3	2	2	1	0	747	1	4	0	112	68	0	1	99
fixed	4	6	10	797156	1	4	4	1	0	898	1	4	0	128	69	0	1	99
fixed	4	6	11	798641	5	2	2	1	0	884	1	4	0	112	70	0	1	99
fixed	4	6	12	800213	4	3	3	1	0	809	1	4	0	120	71	0	1	99
fixed	4	7	1	801736	4	1	1	1	0	752	1	4	0	104	72	0	1	99
fixed	4	7	2	803071	1	2	2	1	0	1072	1	4	0	112	73	0	1	99
fixed	4	7	3	805015	6	4	4	1	0	773	1	4	0	128	74	0	1	99
fixed	4	7	4	806655	2	1	1	1	0	960	1	4	0	104	75	0	1	99
fixed	4	7	5	808355	5	3	3	1	0	1016	1	4	0	120	76	0	1	99
fixed	4	7	6	810138	6	4	4	1	0	788	1	4	0	128	77	0	1	99
fixed	4	7	7	811704	3	1	1	1	0	1018	1	4	0	104	78	0	1	99
fixed	4	7	8	813361	2	3	3	1	0	1076	1	4	0	120	79	0	1	99
fixed	4	7	9	814826	3	2	2	1	0	990	1	4	0	112	80	0	1	99
fixed	4	7	10	816155	1	4	4	1	0	757	1	4	0	128	81	0	1	99
fixed	4	7	11	817549	5	2	2	1	0	779	1	4	0	112	82	0	1	99
fixed	4	7	12	818646	4	3	3	1	0	988	1	4	0	120	83	0	1	99
fixed	4	8	1	820482	4	1	1	1	0	1054	1	4	0	104	84	0	1	99
fixed	4	8	2	822319	1	2	2	1	0	1160	1	4	0	112	85	0	1	99
fixed	4	8	3	824169	6	4	4	1	0	795	1	4	0	128	86	0	1	99
fixed	4	8	4	825252	2	1	1	1	0	1005	1	4	0	104	87	0	1	99
fixed	4	8	5	826987	5	3	3	1	0	859	1	4	0	120	88	0	1	99
fixed	4	8	6	828728	6	4	4	1	0	801	1	4	0	128	89	0	1	99
fixed	4	8	7	829889	3	1	1	1	0	1120	1	4	0	104	90	0	1	99
fixed	4	8	8	831839	2	3	3	1	0	990	1	4	0	120	91	0	1	99
fixed	4	8	9	833486	3	2	2	1	0	656	1	4	0	112	92	0	1	99
fixed	4	8	10	834764	1	4	4	1	0	946	1	4	0	128	93	0	1	99
fixed	4	8	11	836333	5	2	2	1	0	815	1	4	0	112	94	0	1	99
fixed	4	8	12	838079	4	3	3	1	0	1325	1	4	0	120	95	0	1	99
fixed	4	9	1	840281	4	1	1	1	0	736	1	4	0	104	96	0	1	99
fixed	4	9	2	841884	1	2	2	1	0	932	1	4	0	112	97	0	1	99
fixed	4	9	3	843394	6	4	4	1	0	708	1	4	0	128	98	0	1	99
fixed	4	9	4	844468	2	1	1	1	0	1071	1	4	0	104	99	0	1	99
fixed	4	9	5	846549	5	3	3	1	0	998	1	4	0	120	100	0	1	99
fixed	4	9	6	847928	6	4	4	1	0	724	1	4	0	128	101	0	1	99
fixed	4	9	7	849243	3	1	1	1	0	1108	1	4	0	104	102	0	1	99
fixed	4	9	8	850949	2	3	3	1	0	892	1	4	0	120	103	0	1	99
fixed	4	9	9	852526	3	2	2	1	0	769	1	4	0	112	104	0	1	99
fixed	4	9	10	854119	1	4	4	1	0	862	1	4	0	128	105	0	1	99
fixed	4	9	11	855513	5	2	2	1	0	1203	1	4	0	112	106	0	1	99
fixed	4	9	12	857084	4	3	3	1	0	1088	1	4	0	120	107	0	1	99
fixed	4	10	1	858993	4	1	1	1	0	743	1	4	0	104	108	0	1	99
fixed	4	10	2	860631	1	2	2	1	0	986	1	4	0	112	109	0	1	99
fixed	4	10	3	862555	6	4	4	1	0	880	1	4	0	128	110	0	1	99
fixed	4	10	4	863762	2	1	1	1	0	957	1	4	0	104	111	0	1	99
fixed	4	10	5	865615	5	3	3	1	0	911	1	4	0	120	112	0	1	99
fixed	4	10	6	866902	6	4	4	1	0	824	1	4	0	128	113	0	1	99
fixed	4	10	7	868166	3	1	1	1	0	1139	1	4	0	104	114	0	1	99
fixed	4	10	8	869815	2	3	3	1	0	1021	1	4	0	120	115	0	1	99
fixed	4	10	9	871664	3	2	2	1	0	767	1	4	0	112	116	0	1	99
fixed	4	10	10	873092	1	4	4	1	0	746	1	4	0	128	117	0	1	99
fixed	4	10	11	874605	5	2	2	1	0	778	1	4	0	112	118	0	1	99
fixed	4	10	12	876348	4	3	3	1	0	1425	1	4	0	120	119	0	1	99
fixed	5	1	1	879174	4	1	1	1	0	1040	1	4	0	136	1	0	0	100
fixed	5	1	2	881087	1	2	2	1	0	920	1	4	0	144	2	0	0	100
fixed	5	1	3	882878	6	4	4	1	0	980	1	4	0	160	3	0	0	100
fixed	5	1	4	884645	2	1	1	1	0	2113	1	4	0	136	4	0	0	100
fixed	5	1	5	887338	5	3	3	1	0	1015	1	4	0	152	5	0	0	100
fixed	5	1	6	888689	6	4	4	1	0	750	1	4	0	160	6	0	0	100
fixed	5	1	7	890134	3	1	1	1	0	872	1	4	0	136	7	0	0	100
fixed	5	1	8	891995	2	3	3	1	0	1017	1	4	0	152	8	0	0	100
fixed	5	1	9	893636	3	2	2	1	0	692	1	4	0	144	9	0	0	100
fixed	5	1	10	895009	1	4	4	1	0	674	1	4	0	160	10	0	0	100
fixed	5	1	11	896554	5	2	2	1	0	1256	1	4	0	144	11	0	0	100
fixed	5	1	12	898254	4	3	3	1	0	848	1	4	0	152	12	0	0	100
fixed	5	2	1	900161	4	1	1	1	0	951	1	4	0	136	13	0	0	100
fixed	5	2	2	901706	1	2	2	1	0	958	1	4	0	144	14	0	0	100
fixed	5	2	3	903484	6	4	4	1	0	931	1	4	0	160	15	0	0	100
fixed	5	2	4	905019	2	1	1	1	0	938	1	4	0	136	16	0	0	100
fixed	5	2	5	906360	5	3	3	1	0	993	1	4	0	152	17	0	0	100
fixed	5	2	6	908150	6	4	4	1	0	653	1	4	0	160	18	0	0	100
fixed	5	2	7	909216	3	1	1	1	0	872	1	4	0	136	19	0	0	100
fixed	5	2	8	910413	2	3	3	1	0	894	1	4	0	152	20	0	0	100
fixed	5	2	9	911609	3	2	2	1	0	755	1	4	0	144	21	0	0	100
fixed	5	2	10	912794	1	4	4	1	0	864	1	4	0	160	22	0	0	100
fixed	5	2	11	914459	5	2	2	1	0	802	1	4	0	144	23	0	0	100
fixed	5	2	12	915757	4	3	0	1	2	0	3	4	0	152	23	0	1	96
fixed	5	3	1	919442	4	1	1	1	0	871	1	4	0	136	24	0	1	96
fixed	5	3	2	921280	1	2	2	1	0	1137	1	4	0	144	25	0	1	96
fixed	5	3	3	923051	6	4	4	1	0	758	1	4	0	160	26	0	1	96
fixed	5	3	4	924144	2	1	1	1	0	840	1	4	0	136	27	0	1	96
fixed	5	3	5	925600	5	3	3	1	0	842	1	4	0	152	28	0	1	97
fixed	5	3	6	927427	6	4	4	1	0	981	1	4	0	160	29	0	1	97
fixed	5	3	7	929233	3	1	1	1	0	1072	1	4	0	136	30	0	1	97
fixed	5	3	8	930909	2	3	3	1	0	969	1	4	0	152	31	0	1	97
fixed	5	3	9	932279	3	2	2	1	0	567	1	4	0	144	32	0	1	97
fixed	5	3	10	933236	1	4	4	1	0	767	1	4	0	160	33	0	1	97
fixed	5	3	11	934709	5	2	2	1	0	937	1	4	0	144	34	0	1	97
fixed	5	3	12	936538	4	3	3	1	0	851	1	4	0	152	35	0	1	97
fixed	5	4	1	938522	4	1	1	1	0	759	1	4	0	136	36	0	1	97
fixed	5	4	2	939626	1	2	2	1	0	1032	1	4	0	144	37	0	1	97
fixed	5	4	3	941471	6	4	4	1	0	746	1	4	0	160	38	0	1	97
fixed	5	4	4	942829	2	1	1	1	0	833	1	4	0	136	39	0	1	98
fixed	5	4	5	944029	5	3	3	1	0	878	1	4	0	152	40	0	1	98
fixed	5	4	6	945909	6	4	4	1	0	806	1	4	0	160	41	0	1	98
fixed	5	4	7	947072	3	1	1	1	0	957	1	4	0	136	42	0	1	98
fixed	5	4	8	949027	2	3	3	1	0	1522	1	4	0	152	43	0	1	98
fixed	5	4	9	951512	3	2	2	1	0	881	1	4	0	144	44	0	1	98
fixed	5	4	10	953043	1	4	4	1	0	864	1	4	0	160	45	0	1	98
fixed	5	4	11	954606	5	2	2	1	0	782	1	4	0	144	46	0	1	98
fixed	5	4	12	956385	4	3	3	1	0	858	1	4	0	152	47	0	1	98
fixed	5	5	1	958170	4	1	1	1	0	726	1	4	0	136	48	0	1	98
fixed	5	5	2	959936	1	2	2	1	0	1092	1	4	0	144	49	0	1	98
fixed	5	5	3	961868	6	4	4	1	0	698	1	4	0	160	50	0	1	98
fixed	5	5	4	963096	2	1	1	1	0	1054	1	4	0	136	51	0	1	98
fixed	5	5	5	964714	5	3	3	1	0	1298	1	4	0	152	52	0	1	98
fixed	5	5	6	966836	6	4	4	1	0	728	1	4	0	160	53	0	1	98
fixed	5	5	7	968164	3	1	1	1	0	879	1	4	0	136	54	0	1	98
fixed	5	5	8	969349	2	3	3	1	0	973	1	4	0	152	55	0	1	98
fixed	5	5	9	970895	3	2	2	1	0	844	1	4	0	144	56	0	1	98
fixed	5	5	10	972623	1	4	4	1	0	698	1	4	0	160	57	0	1	98
fixed	5	5	11	974004	5	2	2	1	0	752	1	4	0	144	58	0	1	98
fixed	5	5	12	975547	4	3	3	1	0	1087	1	4	0	152	59	0	1	98
fixed	5	6	1	977935	4	1	1	1	0	729	1	4	0	136	60	0	1	98
fixed	5	6	2	979182	1	2	2	1	0	941	1	4	0	144	61	0	1	98
fixed	5	6	3	980685	6	4	4	1	0	765	1	4	0	160	62	0	1	98
fixed	5	6	4	982142	2	1	1	1	0	1040	1	4	0	136	63	0	1	98
fixed	5	6	5	983499	5	3	3	1	0	902	1	4	0	152	64	0	1	98
fixed	5	6	6	985064	6	4	4	1	0	764	1	4	0	160	65	0	1	98
fixed	5	6	7	986764	3	1	1	1	0	1180	1	4	0	136	66	0	1	99
fixed	5	6	8	988788	2	3	3	1	0	974	1	4	0	152	67	0	1	99
fixed	5	6	9	990204	3	2	2	1	0	722	1	4	0	144	68	0	1	99
fixed	5	6	10	991234	1	4	4	1	0	806	1	4	0	160	69	0	1	99
fixed	5	6	11	992561	5	2	2	1	0	1230	1	4	0	144	70	0	1	99
fixed	5	6	12	994230	4	3	3	1	0	855	1	4	0	152	71	0	1	99
fixed	5	7	1	996163	4	1	1	1	0	1037	1	4	0	136	72	0	1	99
fixed	5	7	2	997816	1	2	2	1	0	887	1	4	0	144	73	0	1	99
fixed	5	7	3	999667	6	4	4	1	0	777	1	4	0	160	74	0	1	99
fixed	5	7	4	1001059	2	1	1	1	0	942	1	4	0	136	75	0	1	99
fixed	5	7	5	1002511	5	3	3	1	0	824	1	4	0	152	76	0	1	99
fixed	5	7	6	1003768	6	4	4	1	0	859	1	4	0	160	77	0	1	99
fixed	5	7	7	1005542	3	1	1	1	0	792	1	4	0	136	78	0	1	99
fixed	5	7	8	1007211	2	3	3	1	0	1193	1	4	0	152	79	0	1	99
fixed	5	7	9	1009364	3	2	2	1	0	718	1	4	0	144	80	0	1	99
fixed	5	7	10	1010684	1	4	4	1	0	830	1	4	0	160	81	0	1	99
fixed	5	7	11	1012057	5	2	2	1	0	1116	1	4	0	144	82	0	1	99
fixed	5	7	12	1013794	4	3	3	1	0	1139	1	4	0	152	83	0	1	99
fixed	5	8	1	1015878	4	1	1	1	0	778	1	4	0	136	84	0	1	99
fixed	5	8	2	1016992	1	2	2	1	0	915	1	4	0	144	85	0	1	99
fixed	5	8	3	1018886	6	4	4	1	0	883	1	4	0	160	86	0	1	99
fixed	5	8	4	1020308	2	1	0	1	2	0	3	4	0	136	86	0	2	98
fixed	5	8	5	1023424	5	3	3	1	0	1803	1	4	0	152	87	0	2	98
fixed	5	8	6	1025531	6	4	4	1	0	730	1	4	0	160	88	0	2	98
fixed	5	8	7	1027125	3	1	1	1	0	798	1	4	0	136	89	0	2	98
fixed	5	8	8	1028957	2	3	3	1	0	1128	1	4	0	152	90	0	2	98
fixed	5	8	9	1030621	3	2	2	1	0	906	1	4	0	144	91	0	2	98
fixed	5	8	10	1032553	1	4	4	1	0	856	1	4	0	160	92	0	2	98
fixed	5	8	11	1034387	5	2	2	1	0	1154	1	4	0	144	93	0	2	98
fixed	5	8	12	1036488	4	3	3	1	0	1066	1	4	0	152	94	0	2	98
fixed	5	9	1	1038834	4	1	1	1	0	1046	1	4	0	136	95	0	2	98
fixed	5	9	2	1040732	1	2	2	1	0	1046	1	4	0	144	96	0	2	98
fixed	5	9	3	1042204	6	4	4	1	0	856	1	4	0	160	97	0	2	98
fixed	5	9	4	1043391	2	1	1	1	0	917	1	4	0	136	98	0	2	98
fixed	5	9	5	1044931	5	3	3	1	0	1228	1	4	0	152	99	0	2	98
fixed	5	9	6	1046628	6	4	4	1	0	804	1	4	0	160	100	0	2	98
fixed	5	9	7	1048022	3	1	1	1	0	1049	1	4	0	136	101	0	2	98
fixed	5	9	8	1049823	2	3	3	1	0	1349	1	4	0	152	102	0	2	98
fixed	5	9	9	1051735	3	2	2	1	0	700	1	4	0	144	103	0	2	98
fixed	5	9	10	1052784	1	4	4	1	0	759	1	4	0	160	104	0	2	98
fixed	5	9	11	1054536	5	2	2	1	0	1285	1	4	0	144	105	0	2	98
fixed	5	9	12	1056119	4	3	3	1	0	906	1	4	0	152	106	0	2	98
fixed	5	10	1	1057982	4	1	1	1	0	843	1	4	0	136	107	0	2	98
fixed	5	10	2	1059286	1	2	2	1	0	1164	1	4	0	144	108	0	2	98
fixed	5	10	3	1060833	6	4	4	1	0	739	1	4	0	160	109	0	2	98
fixed	5	10	4	1062536	2	1	1	1	0	1202	1	4	0	136	110	0	2	98
fixed	5	10	5	1064676	5	3	0	1	2	0	3	4	0	152	110	0	3	97
fixed	5	10	6	1067804	6	4	4	1	0	779	1	4	0	160	111	0	3	97
fixed	5	10	7	1069298	3	1	1	1	0	948	1	4	0	136	112	0	3	97
fixed	5	10	8	1070936	2	3	3	1	0	919	1	4	0	152	113	0	3	97
fixed	5	10	9	1072531	3	2	2	1	0	827	1	4	0	144	114	0	3	97
fixed	5	10	10	1074315	1	4	4	1	0	784	1	4	0	160	115	0	3	97
fixed	5	10	11	1075995	5	2	2	1	0	776	1	4	0	144	116	0	3	97
fixed	5	10	12	1077464	4	3	3	1	0	906	1	4	0	152	117	0	3	98
random	6	1	1	1184339	6	1	1	1	0	923	1	4	0	168	1	0	0	100
random	6	1	2	1186310	4	4	4	1	0	895	1	4	0	192	2	0	0	100
random	6	1	3	1187762	2	2	2	1	0	819	1	4	0	176	3	0	0	100
random	6	1	4	1188870	3	3	3	1	0	595	1	4	0	184	4	0	0	100
random	6	1	5	1190143	5	2	2	1	0	885	1	4	0	176	5	0	0	100
random	6	1	6	1191884	1	4	4	1	0	684	1	4	0	192	6	0	0	100
random	6	1	7	1193110	6	1	1	1	0	904	1	4	0	168	7	0	0	100
random	6	1	8	1194397	2	3	3	1	0	1385	1	4	0	184	8	0	0	100
random	6	1	9	1196130	4	2	2	1	0	704	1	4	0	176	9	0	0	100
random	6	1	10	1197524	1	1	1	1	0	1045	1	4	0	168	10	0	0	100
random	6	1	11	1199441	5	4	4	1	0	724	1	4	0	192	11	0	0	100
random	6	1	12	1201093	3	3	3	1	0	1262	1	4	0	184	12	0	0	100
random	6	1	13	1203538	5	2	2	1	0	1062	1	4	0	176	13	0	0	100
random	6	1	14	1205224	1	4	4	1	0	686	1	4	0	192	14	0	0	100
random	6	1	15	1206607	3	1	1	1	0	836	1	4	0	168	15	0	0	100
random	6	1	16	1208140	4	3	3	1	0	971	1	4	0	184	16	0	0	100
random	6	1	17	1209496	6	4	4	1	0	778	1	4	0	192	17	0	0	100
random	6	1	18	1210987	2	1	1	1	0	963	1	4	0	168	18	0	0	100
random	6	1	19	1212684	5	3	3	2	0	1907	2	4	0	184	19	0	0	100
random	6	1	20	1215018	2	2	2	1	0	736	1	4	0	176	20	0	0	100
random	6	1	21	1216606	3	3	3	1	0	836	1	4	0	184	21	0	0	100
random	6	1	22	1218466	6	1	1	1	0	1126	1	4	0	168	22	0	0	100
random	6	1	23	1220305	4	2	2	1	0	856	1	4	0	176	23	0	0	100
random	6	1	24	1221706	1	4	4	1	0	949	1	4	0	192	24	0	0	100
random	6	1	25	1223203	4	3	3	1	0	1397	1	4	0	184	25	0	0	100
random	6	1	26	1224910	2	1	1	1	0	989	1	4	0	168	26	0	0	100
random	6	1	27	1226267	5	2	2	1	0	995	1	4	0	176	27	0	0	100
random	6	1	28	1227603	6	4	4	1	0	827	1	4	0	192	28	0	0	100
random	6	1	29	1229179	1	3	3	1	0	1024	1	4	0	184	29	0	0	100
random	6	1	30	1231083	5	2	2	1	0	1016	1	4	0	176	30	0	0	100
random	6	1	31	1232783	2	1	1	1	0	871	1	4	0	168	31	0	0	100
random	6	1	32	1234287	3	3	3	1	0	960	1	4	0	184	32	0	0	100
random	6	1	33	1236058	6	4	4	1	0	789	1	4	0	192	33	0	0	100
random	6	1	34	1237658	4	2	2	1	0	841	1	4	0	176	34	0	0	100
random	6	1	35	1238855	3	4	4	1	0	1063	1	4	0	192	35	0	0	100
random	6	1	36	1240782	1	1	1	1	0	884	1	4	0	168	36	0	0	100
random	6	1	37	1242317	3	4	4	1	0	1131	1	4	0	192	37	0	0	100
random	6	1	38	1244254	5	3	3	1	0	1033	1	4	0	184	38	0	0	100
random	6	1	39	1245867	6	1	1	1	0	1021	1	4	0	168	39	0	0	100
random	6	1	40	1247753	1	2	2	1	0	901	1	4	0	176	40	0	0	100
random	6	1	41	1249506	2	3	3	1	0	1099	1	4	0	184	41	0	0	100
random	6	1	42	1251329	4	4	4	1	0	790	1	4	0	192	42	0	0	100
random	6	1	43	1252797	1	2	2	1	0	912	1	4	0	176	43	0	0	100
random	6	1	44	1254339	6	3	3	1	0	999	1	4	0	184	44	0	0	100
random	6	1	45	1256300	3	1	1	1	0	827	1	4	0	168	45	0	0	100
random	6	1	46	1257917	4	4	4	1	0	863	1	4	0	192	46	0	0	100
random	6	1	47	1259617	2	2	2	1	0	847	1	4	0	176	47	0	0	100
random	6	1	48	1261454	5	1	1	1	0	1041	1	4	0	168	48	0	0	100
random	6	1	49	1263519	2	3	3	1	0	1273	1	4	0	184	49	0	0	100
random	6	1	50	1265731	3	1	1	1	0	884	1	4	0	168	50	0	0	100
random	6	1	51	1267160	1	4	4	1	0	591	1	4	0	192	51	0	0	100
random	6	1	52	1268520	5	3	3	1	0	1038	1	4	0	184	52	0	0	100
random	6	1	53	1270044	3	2	2	1	0	701	1	4	0	176	53	0	0	100
random	6	1	54	1271338	6	4	4	1	0	894	1	4	0	192	54	0	0	100
random	6	1	55	1273196	4	2	2	1	0	976	1	4	0	176	55	0	0	100
random	6	1	56	1274699	1	1	1	1	0	992	1	4	0	168	56	0	0	100
random	6	1	57	1276631	5	4	4	1	0	895	1	4	0	192	57	0	0	100
random	6	1	58	1278158	2	1	1	1	0	965	1	4	0	168	58	0	0	100
random	6	1	59	1279609	6	2	2	1	0	1128	1	4	0	176	59	0	0	100
random	6	1	60	1281314	4	3	3	1	0	744	1	4	0	184	60	0	0	100
random	6	1	61	1282666	1	2	2	1	0	1070	1	4	0	176	61	0	0	100
random	6	1	62	1284541	6	4	4	1	0	871	1	4	0	192	62	0	0	100
random	6	1	63	1286382	4	1	1	1	0	665	1	4	0	168	63	0	0	100
random	6	1	64	1287385	2	2	2	1	0	1567	1	4	0	176	64	0	0	100
random	6	1	65	1289958	4	3	3	1	0	898	1	4	0	184	65	0	0	100
random	6	1	66	1291381	3	1	1	1	0	966	1	4	0	168	66	0	0	100
random	6	1	67	1293211	1	3	3	1	0	1064	1	4	0	184	67	0	0	100
random	6	1	68	1294604	5	4	4	1	0	981	1	4	0	192	68	0	0	100
random	6	1	69	1295883	2	2	2	1	0	791	1	4	0	176	69	0	0	100
random	6	1	70	1297715	3	1	1	1	0	817	1	4	0	168	70	0	0	100
random	6	1	71	1299457	5	4	4	1	0	1007	1	4	0	192	71	0	0	100
random	6	1	72	1301400	6	3	3	1	0	1157	1	4	0	184	72	0	0	100
random	6	1	73	1303300	2	1	0	1	2	0	3	4	0	168	72	0	1	99
random	6	1	74	1306461	5	3	3	1	0	1071	1	4	0	184	73	0	1	99
random	6	1	75	1308002	1	4	4	1	0	782	1	4	0	192	74	0	1	99
random	6	1	76	1309510	6	2	2	1	0	982	1	4	0	176	75	0	1	99
random	6	1	77	1310789	2	1	1	1	0	1047	1	4	0	168	76	0	1	99
random	6	1	78	1312145	4	4	4	1	0	966	1	4	0	192	77	0	1	99
random	6	1	79	1314060	3	2	2	1	0	1013	1	4	0	176	78	0	1	99
random	6	1	80	1315812	4	3	3	1	0	850	1	4	0	184	79	0	1	99
random	6	1	81	1317565	1	4	4	1	0	817	1	4	0	192	80	0	1	99
random	6	1	82	1319071	5	1	1	1	0	1168	1	4	0	168	81	0	1	99
random	6	1	83	1320844	3	2	2	1	0	877	1	4	0	176	82	0	1	99
random	6	1	84	1322147	6	3	3	1	0	974	1	4	0	184	83	0	1	99
random	6	1	85	1324402	3	2	2	1	0	887	1	4	0	176	84	0	1	99
random	6	1	86	1326088	1	3	3	1	0	975	1	4	0	184	85	0	1	99
random	6	1	87	1327536	4	4	4	1	0	850	1	4	0	192	86	0	1	99
random	6	1	88	1329250	2	1	1	1	0	1081	1	4	0	168	87	0	1	99
random	6	1	89	1331095	6	4	4	1	0	820	1	4	0	192	88	0	1	99
random	6	1	90	1332665	3	3	0	1	2	0	3	4	0	184	88	0	2	98
random	6	1	91	1336122	5	4	4	1	0	1295	1	4	0	192	89	0	2	98
random	6	1	92	1338035	1	2	2	1	0	997	1	4	0	176	90	0	2	98
random	6	1	93	1339826	5	1	1	1	0	977	1	4	0	168	91	0	2	98
random	6	1	94	1341737	4	3	3	1	0	1145	1	4	0	184	92	0	2	98
random	6	1	95	1343237	6	1	1	1	0	1025	1	4	0	168	93	0	2	98
random	6	1	96	1345048	2	2	2	1	0	861	1	4	0	176	94	0	2	98
random	6	1	97	1346656	4	3	3	1	0	936	1	4	0	184	95	0	2	98
random	6	1	98	1348004	3	2	2	1	0	847	1	4	0	176	96	0	2	98
random	6	1	99	1349336	6	3	3	1	0	927	1	4	0	184	97	0	2	98
random	6	1	100	1350948	1	4	4	1	0	730	1	4	0	192	98	0	2	98
random	6	1	101	1352355	4	1	1	1	0	535	1	4	0	168	99	0	2	98
random	6	1	102	1353938	5	2	2	1	0	1011	1	4	0	176	100	0	2	98
random	6	1	103	1355292	2	4	4	1	0	930	1	4	0	192	101	0	2	98
random	6	1	104	1356603	3	1	1	1	0	1155	1	4	0	168	102	0	2	98
random	6	1	105	1358542	1	3	3	1	0	1289	1	4	0	184	103	0	2	98
random	6	1	106	1360750	2	2	2	1	0	859	1	4	0	176	104	0	2	98
random	6	1	107	1362567	5	4	4	1	0	886	1	4	0	192	105	0	2	98
random	6	1	108	1364064	6	1	1	1	0	1095	1	4	0	168	106	0	2	98
random	6	1	109	1366154	5	4	4	1	0	998	1	4	0	192	107	0	2	98
random	6	1	110	1367490	6	3	3	1	0	982	1	4	0	184	108	0	2	98
random	6	1	111	1369031	2	2	2	1	0	804	1	4	0	176	109	0	2	98
random	6	1	112	1370755	3	1	1	1	0	580	1	4	0	168	110	0	2	98
random	6	1	113	1372024	1	2	2	1	0	1046	1	4	0	176	111	0	2	98
random	6	1	114	1373494	2	3	3	1	0	1119	1	4	0	184	112	0	2	98
random	6	1	115	1375136	3	1	1	1	0	778	1	4	0	168	113	0	2	98
random	6	1	116	1376303	4	4	4	1	0	809	1	4	0	192	114	0	2	98
random	6	1	117	1378009	6	1	1	1	0	1008	1	4	0	168	115	0	2	98
random	6	1	118	1379947	5	3	3	1	0	1118	1	4	0	184	116	0	2	98
random	6	1	119	1381783	1	4	4	1	0	745	1	4	0	192	117	0	2	98
random	6	1	120	1383522	4	2	2	1	0	775	1	4	0	176	118	0	2	98
fixed	7	1	1	1385516	4	1	1	1	0	642	1	4	0	200	1	0	0	100
fixed	7	1	2	1387159	1	2	2	1	0	1061	1	4	0	208	2	0	0	100
fixed	7	1	3	1389133	6	4	4	1	0	737	1	4	0	224	3	0	0	100
fixed	7	1	4	1390290	2	1	1	1	0	1080	1	4	0	200	4	0	0	100
fixed	7	1	5	1392370	5	3	3	1	0	1072	1	4	0	216	5	0	0	100
fixed	7	1	6	1393797	6	4	4	1	0	796	1	4	0	224	6	0	0	100
fixed	7	1	7	1395121	3	1	1	1	0	772	1	4	0	200	7	0	0	100
fixed	7	1	8	1396563	2	3	3	1	0	1102	1	4	0	216	8	0	0	100
fixed	7	1	9	1398523	3	2	2	1	0	627	1	4	0	208	9	0	0	100
fixed	7	1	10	1399528	1	4	4	1	0	889	1	4	0	224	10	0	0	100
fixed	7	1	11	1401305	5	2	2	1	0	973	1	4	0	208	11	0	0	100
fixed	7	1	12	1403052	4	3	3	1	0	988	1	4	0	216	12	0	0	100
fixed	7	2	1	1405167	4	1	1	1	0	746	1	4	0	200	1	0	0	8
fixed	7	2	2	1406560	1	2	2	1	0	935	1	4	0	208	2	0	0	14
fixed	7	2	3	1407950	6	4	4	1	0	756	1	4	0	224	3	0	0	20
fixed	7	2	4	1409367	2	1	1	1	0	872	1	4	0	200	4	0	0	25
fixed	7	2	5	1411241	5	3	3	1	0	1033	1	4	0	216	5	0	0	29
fixed	7	2	6	1412732	6	4	4	1	0	665	1	4	0	224	6	0	0	33
fixed	7	2	7	1414253	3	1	1	1	0	994	1	4	0	200	7	0	0	37
fixed	7	2	8	1415781	2	3	3	1	0	1088	1	4	0	216	8	0	0	40
fixed	7	2	9	1417797	3	2	2	1	0	779	1	4	0	208	9	0	0	43
fixed	7	2	10	1419367	1	4	4	1	0	712	1	4	0	224	10	0	0	45
fixed	7	2	11	1420416	5	2	2	1	0	1188	1	4	0	208	11	0	0	48
fixed	7	2	12	1422566	4	3	3	1	0	897	1	4	0	216	12	0	0	50
fixed	7	3	1	1424113	4	1	1	1	0	663	1	4	0	200	1	0	0	4
fixed	7	3	2	1425096	1	2	2	1	0	1030	1	4	0	208	2	0	0	8
fixed	7	3	3	1426697	6	4	4	1	0	1034	1	4	0	224	3	0	0	11
fixed	7	3	4	1428694	2	1	1	1	0	1141	1	4	0	200	4	0	0	14
fixed	7	3	5	1430402	5	3	3	1	0	1021	1	4	0	216	5	0	0	17
fixed	7	3	6	1432147	6	4	4	1	0	795	1	4	0	224	6	0	0	20
fixed	7	3	7	1433848	3	1	1	1	0	963	1	4	0	200	7	0	0	23
fixed	7	3	8	1435153	2	3	3	2	0	1380	2	4	0	216	8	0	0	25
fixed	7	3	9	1437333	3	2	2	1	0	704	1	4	0	208	9	0	0	27
fixed	7	3	10	1438889	1	4	4	1	0	670	1	4	0	224	10	0	0	29
fixed	7	3	11	1440054	5	2	2	1	0	1044	1	4	0	208	11	0	0	31
fixed	7	3	12	1441556	4	3	3	1	0	1092	1	4	0	216	12	0	0	33
fixed	7	4	1	1443778	4	1	1	1	0	718	1	4	0	200	1	0	0	3
fixed	7	4	2	1445530	1	2	2	1	0	964	1	4	0	208	2	0	0	5
fixed	7	4	3	1447514	6	4	4	1	0	841	1	4	0	224	3	0	0	8
fixed	7	4	4	1449164	2	1	0	1	2	0	3	4	0	200	3	0	1	8
fixed	7	4	5	1452402	5	3	3	1	0	1017	1	4	0	216	4	0	1	10
fixed	7	4	6	1454082	6	4	4	1	0	714	1	4	0	224	5	0	1	12
fixed	7	4	7	1455465	3	1	1	1	0	952	1	4	0	200	6	0	1	14
fixed	7	4	8	1457098	2	3	3	1	0	1274	1	4	0	216	7	0	1	16
fixed	7	4	9	1459013	3	2	2	1	0	697	1	4	0	208	8	0	1	18
fixed	7	4	10	1460513	1	4	4	1	0	874	1	4	0	224	9	0	1	20
fixed	7	4	11	1461849	5	2	2	1	0	1081	1	4	0	208	10	0	1	21
fixed	7	4	12	1463282	4	3	3	1	0	1021	1	4	0	216	11	0	1	23
fixed	7	5	1	1465531	4	1	1	1	0	749	1	4	0	200	1	0	0	2
fixed	7	5	2	1466776	1	2	2	1	0	953	1	4	0	208	2	0	0	4
fixed	7	5	3	1468415	6	4	4	1	0	699	1	4	0	224	3	0	0	6
fixed	7	5	4	1469396	2	1	1	1	0	1066	1	4	0	200	4	0	0	8
fixed	7	5	5	1471409	5	3	3	1	0	989	1	4	0	216	5	0	0	9
fixed	7	5	6	1473395	6	4	4	1	0	857	1	4	0	224	6	0	0	11
fixed	7	5	7	1474595	3	1	1	1	0	981	1	4	0	200	7	0	0	13
fixed	7	5	8	1475914	2	3	3	1	0	1478	1	4	0	216	8	0	0	14
fixed	7	5	9	1478339	3	2	2	1	0	831	1	4	0	208	9	0	0	16
fixed	7	5	10	1479583	1	4	4	1	0	850	1	4	0	224	10	0	0	17
fixed	7	5	11	1481248	5	2	2	1	0	876	1	4	0	208	11	0	0	19
fixed	7	5	12	1482739	4	3	3	1	0	948	1	4	0	216	12	0	0	20
fixed	7	6	1	1484511	4	1	1	1	0	681	1	4	0	200	1	0	0	2
fixed	7	6	2	1486174	1	2	2	1	0	923	1	4	0	208	2	0	0	3
fixed	7	6	3	1487408	6	4	4	1	0	823	1	4	0	224	3	0	0	5
fixed	7	6	4	1488907	2	1	1	1	0	927	1	4	0	200	4	0	0	6
fixed	7	6	5	1490371	5	3	3	1	0	1177	1	4	0	216	5	0	0	8
fixed	7	6	6	1492484	6	4	4	1	0	1208	1	4	0	224	6	0	0	9
fixed	7	6	7	1494249	3	1	1	1	0	957	1	4	0	200	7	0	0	10
fixed	7	6	8	1495711	2	3	3	1	0	1095	1	4	0	216	8	0	0	12
fixed	7	6	9	1497626	3	2	2	1	0	726	1	4	0	208	9	0	0	13
fixed	7	6	10	1499235	1	4	4	1	0	722	1	4	0	224	10	0	0	14
fixed	7	6	11	1500869	5	2	2	1	0	1060	1	4	0	208	11	0	0	15
fixed	7	6	12	1502660	4	3	3	1	0	993	1	4	0	216	12	0	0	17
fixed	7	7	1	1504343	4	1	1	1	0	785	1	4	0	200	1	0	0	1
fixed	7	7	2	1506001	1	2	2	1	0	899	1	4	0	208	2	0	0	3
fixed	7	7	3	1507915	6	4	4	1	0	754	1	4	0	224	3	0	0	4
fixed	7	7	4	1509251	2	1	1	1	0	986	1	4	0	200	4	0	0	5
fixed	7	7	5	1510743	5	3	3	1	0	1538	1	4	0	216	5	0	0	6
fixed	7	7	6	1512691	6	4	4	1	0	912	1	4	0	224	6	0	0	8
fixed	7	7	7	1513961	3	1	1	1	0	1026	1	4	0	200	7	0	0	9
fixed	7	7	8	1515785	2	3	3	1	0	1196	1	4	0	216	8	0	0	10
fixed	7	7	9	1517963	3	2	2	1	0	864	1	4	0	208	9	0	0	11
fixed	7	7	10	1519500	1	4	4	1	0	1415	1	4	0	224	10	0	0	12
fixed	7	7	11	1521671	5	2	2	1	0	987	1	4	0	208	11	0	0	13
fixed	7	7	12	1523520	4	3	3	1	0	861	1	4	0	216	12	0	0	14
fixed	7	8	1	1524927	4	1	1	1	0	785	1	4	0	200	1	0	0	1
fixed	7	8	2	1526599	1	2	2	1	0	1195	1	4	0	208	2	0	0	2
fixed	7	8	3	1528695	6	4	4	1	0	738	1	4	0	224	3	0	0	3
fixed	7	8	4	1530191	2	1	1	1	0	1058	1	4	0	200	4	0	0	5
fixed	7	8	5	1531657	5	3	3	1	0	1452	1	4	0	216	5	0	0	6
fixed	7	8	6	1533413	6	4	4	1	0	834	1	4	0	224	6	0	0	7
fixed	7	8	7	1534690	3	1	1	1	0	940	1	4	0	200	7	0	0	8
fixed	7	8	8	1536396	2	3	3	1	0	956	1	4	0	216	8	0	0	9
fixed	7	8	9	1538195	3	2	2	1	0	751	1	4	0	208	9	0	0	10
fixed	7	8	10	1539794	1	4	4	1	0	804	1	4	0	224	10	0	0	11
fixed	7	8	11	1541357	5	2	2	1	0	1010	1	4	0	208	11	0	0	12
fixed	7	8	12	1543251	4	3	3	1	0	986	1	4	0	216	12	0	0	13
fixed	7	9	1	1544826	4	1	1	1	0	934	1	4	0	200	1	0	0	1
fixed	7	9	2	1546763	1	2	2	1	0	1052	1	4	0	208	2	0	0	2
fixed	7	9	3	1548436	6	4	4	1	0	686	1	4	0	224	3	0	0	3
fixed	7	9	4	1550039	2	1	1	1	0	1066	1	4	0	200	4	0	0	4
fixed	7	9	5	1551951	5	3	3	1	0	993	1	4	0	216	5	0	0	5
fixed	7	9	6	1553951	6	4	4	1	0	852	1	4	0	224	6	0	0	6
fixed	7	9	7	1555840	3	1	1	1	0	972	1	4	0	200	7	0	0	7
fixed	7	9	8	1557451	2	3	3	1	0	944	1	4	0	216	8	0	0	8
fixed	7	9	9	1558977	3	2	2	1	0	975	1	4	0	208	9	0	0	9
fixed	7	9	10	1560629	1	4	4	1	0	785	1	4	0	224	10	0	0	9
fixed	7	9	11	1562395	5	2	2	1	0	783	1	4	0	208	11	0	0	10
fixed	7	9	12	1564050	4	3	3	1	0	889	1	4	0	216	12	0	0	11
fixed	7	10	1	1565828	4	1	1	1	0	741	1	4	0	200	1	0	0	1
fixed	7	10	2	1567331	1	2	2	1	0	949	1	4	0	208	2	0	0	2
fixed	7	10	3	1569005	6	4	4	1	0	734	1	4	0	224	3	0	0	3
fixed	7	10	4	1570126	2	1	1	1	0	1207	1	4	0	200	4	0	0	4
fixed	7	10	5	1572176	5	3	3	1	0	936	1	4	0	216	5	0	0	4
fixed	7	10	6	1573513	6	4	4	1	0	863	1	4	0	224	6	0	0	5
fixed	7	10	7	1575404	3	1	1	1	0	1047	1	4	0	200	7	0	0	6
fixed	7	10	8	1577448	2	3	0	1	2	0	3	4	0	216	7	0	1	6
fixed	7	10	9	1580766	3	2	2	1	0	740	1	4	0	208	8	0	1	7
fixed	7	10	10	1582222	1	4	4	1	0	1343	1	4	0	224	9	0	1	8
fixed	7	10	11	1584521	5	2	2	1	0	813	1	4	0	208	10	0	1	8
fixed	7	10	12	1586175	4	3	3	1	0	943	1	4	0	216	11	0	1	9
