type	block	sequ.	trial	time	Pos.	Color	Button	NumRsp	Resp_1	RT_1	R_Code	Resp_2	RT_2	Trigg.	n_hit	n_inc	n_miss	score_%

random	1	1	1	314868	6	1	1	1	0	1402	1	4	0	8	1	0	0	100
random	1	1	2	316842	4	4	4	1	0	879	1	4	0	32	2	0	0	100
random	1	1	3	318676	2	2	2	1	0	1058	1	4	0	16	3	0	0	100
random	1	1	4	320262	3	3	3	1	0	678	1	4	0	24	4	0	0	100
random	1	1	5	321437	5	2	2	2	0	1372	2	4	0	16	5	0	0	100
random	1	1	6	323641	1	4	4	1	0	1071	1	4	0	32	6	0	0	100
random	1	1	7	325385	6	1	1	1	0	781	1	4	0	8	7	0	0	100
random	1	1	8	326601	2	3	3	1	0	1185	1	4	0	24	8	0	0	100
random	1	1	9	328074	4	2	2	1	0	795	1	4	0	16	9	0	0	100
random	1	1	10	329315	1	1	1	1	0	959	1	4	0	8	10	0	0	100
random	1	1	11	331067	5	4	4	1	0	796	1	4	0	32	11	0	0	100
random	1	1	12	332634	3	3	3	1	0	1050	1	4	0	24	12	0	0	100
random	1	1	13	334333	5	2	2	1	0	530	1	4	0	16	13	0	0	100
random	1	1	14	335602	1	4	4	1	0	884	1	4	0	32	14	0	0	100
random	1	1	15	336867	3	1	1	1	0	751	1	4	0	8	15	0	0	100
random	1	1	16	338480	4	3	3	1	0	1146	1	4	0	24	16	0	0	100
random	1	1	17	340486	6	4	4	1	0	821	1	4	0	32	17	0	0	100
random	1	1	18	342028	2	1	1	1	0	1116	1	4	0	8	18	0	0	100
random	1	1	19	343783	5	3	3	2	0	1194	2	4	0	24	19	0	0	100
random	1	1	20	345930	2	2	2	1	0	903	1	4	0	16	20	0	0	100
random	1	1	21	347493	3	3	3	1	0	853	1	4	0	24	21	0	0	100
random	1	1	22	349209	6	1	1	1	0	764	1	4	0	8	22	0	0	100
random	1	1	23	350764	4	2	2	1	0	1026	1	4	0	16	23	0	0	100
random	1	1	24	352444	1	4	4	1	0	739	1	4	0	32	24	0	0	100
random	1	1	25	353915	4	3	3	1	0	1236	1	4	0	24	25	0	0	100
random	1	1	26	355672	2	1	0	1	2	0	3	4	0	8	25	0	1	96
random	1	1	27	358522	5	2	2	1	0	890	1	4	0	16	26	0	1	96
random	1	1	28	359832	6	4	4	1	0	770	1	4	0	32	27	0	1	96
random	1	1	29	361621	1	3	3	1	0	830	1	4	0	24	28	0	1	97
random	1	1	30	363148	5	2	2	1	0	702	1	4	0	16	29	0	1	97
random	1	1	31	364188	2	1	1	1	0	1402	1	4	0	8	30	0	1	97
random	1	1	32	366164	3	3	3	2	0	1070	2	4	0	24	31	0	1	97
random	1	1	33	367952	6	4	4	1	0	762	1	4	0	32	32	0	1	97
random	1	1	34	369421	4	2	2	1	0	724	1	4	0	16	33	0	1	97
random	1	1	35	370584	3	4	4	1	0	819	1	4	0	32	34	0	1	97
random	1	1	36	371954	1	1	1	2	0	1849	2	4	0	8	35	0	1	97
random	1	1	37	375068	3	4	4	1	0	748	1	4	0	32	36	0	1	97
random	1	1	38	376677	5	3	3	1	0	1169	1	4	0	24	37	0	1	97
random	1	1	39	378559	6	1	1	1	0	1009	1	4	0	8	38	0	1	97
random	1	1	40	380166	1	2	2	1	0	901	1	4	0	16	39	0	1	98
random	1	1	41	381441	2	3	3	1	0	767	1	4	0	24	40	0	1	98
random	1	1	42	382625	4	4	4	1	0	709	1	4	0	32	41	0	1	98
random	1	1	43	384065	1	2	2	1	0	952	1	4	0	16	42	0	1	98
random	1	1	44	385356	6	3	3	1	0	825	1	4	0	24	43	0	1	98
random	1	1	45	387195	3	1	1	2	0	923	2	4	0	8	44	0	1	98
random	1	1	46	388673	4	4	4	1	0	716	1	4	0	32	45	0	1	98
random	1	1	47	390005	2	2	2	1	0	828	1	4	0	16	46	0	1	98
random	1	1	48	391531	5	1	1	1	0	1011	1	4	0	8	47	0	1	98
random	1	1	49	393463	2	3	3	1	0	1321	1	4	0	24	48	0	1	98
random	1	1	50	395541	3	1	1	1	0	1050	1	4	0	8	49	0	1	98
random	1	1	51	397058	1	4	4	1	0	713	1	4	0	32	50	0	1	98
random	1	1	52	398648	5	3	3	1	0	1046	1	4	0	24	51	0	1	98
random	1	1	53	400608	3	2	2	1	0	715	1	4	0	16	52	0	1	98
random	1	1	54	402292	6	4	4	1	0	636	1	4	0	32	53	0	1	98
random	1	1	55	403821	4	2	2	1	0	803	1	4	0	16	54	0	1	98
random	1	1	56	405441	1	1	1	1	0	710	1	4	0	8	55	0	1	98
random	1	1	57	407037	5	4	4	1	0	771	1	4	0	32	56	0	1	98
random	1	1	58	408658	2	1	1	1	0	886	1	4	0	8	57	0	1	98
random	1	1	59	409926	6	2	2	1	0	760	1	4	0	16	58	0	1	98
random	1	1	60	411002	4	3	3	1	0	699	1	4	0	24	59	0	1	98
random	1	1	61	412810	1	2	2	1	0	774	1	4	0	16	60	0	1	98
random	1	1	62	413976	6	4	4	1	0	669	1	4	0	32	61	0	1	98
random	1	1	63	415078	4	1	1	3	0	1742	2	4	0	8	62	0	1	98
random	1	1	64	417525	2	2	2	1	0	1262	1	4	0	16	63	0	1	98
random	1	1	65	419444	4	3	3	1	0	869	1	4	0	24	64	0	1	98
random	1	1	66	420640	3	1	1	1	0	931	1	4	0	8	65	0	1	98
random	1	1	67	421934	1	3	3	1	0	899	1	4	0	24	66	0	1	99
random	1	1	68	423825	5	4	4	1	0	803	1	4	0	32	67	0	1	99
random	1	1	69	425297	2	2	2	2	0	1205	2	4	0	16	68	0	1	99
random	1	1	70	426926	3	1	1	2	0	1056	2	4	0	8	69	0	1	99
random	1	1	71	428665	5	4	4	1	0	702	1	4	0	32	70	0	1	99
random	1	1	72	429757	6	3	3	1	0	984	1	4	0	24	71	0	1	99
random	1	1	73	431974	2	1	1	2	0	1002	2	4	0	8	72	0	1	99
random	1	1	74	433485	5	3	3	1	0	1050	1	4	0	24	73	0	1	99
random	1	1	75	434854	1	4	4	1	0	816	1	4	0	32	74	0	1	99
random	1	1	76	436447	6	2	2	1	0	765	1	4	0	16	75	0	1	99
random	1	1	77	437945	2	1	1	1	0	1022	1	4	0	8	76	0	1	99
random	1	1	78	439635	4	4	4	1	0	814	1	4	0	32	77	0	1	99
random	1	1	79	441187	3	2	2	1	0	996	1	4	0	16	78	0	1	99
random	1	1	80	443170	4	3	3	1	0	872	1	4	0	24	79	0	1	99
random	1	1	81	444423	1	4	4	1	0	835	1	4	0	32	80	0	1	99
random	1	1	82	445911	5	1	1	1	0	908	1	4	0	8	81	0	1	99
random	1	1	83	447220	3	2	2	1	0	845	1	4	0	16	82	0	1	99
random	1	1	84	448484	6	3	3	1	0	799	1	4	0	24	83	0	1	99
random	1	1	85	450035	3	2	2	1	0	725	1	4	0	16	84	0	1	99
random	1	1	86	451457	1	3	3	1	0	953	1	4	0	24	85	0	1	99
random	1	1	87	453288	4	4	4	1	0	852	1	4	0	32	86	0	1	99
random	1	1	88	454635	2	1	1	1	0	787	1	4	0	8	87	0	1	99
random	1	1	89	456242	6	4	4	2	0	1327	2	4	0	32	88	0	1	99
random	1	1	90	458604	3	3	3	1	0	1122	1	4	0	24	89	0	1	99
random	1	1	91	460140	5	4	4	1	0	865	1	4	0	32	90	0	1	99
random	1	1	92	462041	1	2	2	1	0	713	1	4	0	16	91	0	1	99
random	1	1	93	463698	5	1	1	1	0	795	1	4	0	8	92	0	1	99
random	1	1	94	465243	4	3	3	1	0	865	1	4	0	24	93	0	1	99
random	1	1	95	466707	6	1	1	1	0	1059	1	4	0	8	94	0	1	99
random	1	1	96	468697	2	2	2	1	0	831	1	4	0	16	95	0	1	99
random	1	1	97	470619	4	3	3	1	0	629	1	4	0	24	96	0	1	99
random	1	1	98	471742	3	2	2	1	0	982	1	4	0	16	97	0	1	99
random	1	1	99	473039	6	3	3	1	0	1175	1	4	0	24	98	0	1	99
random	1	1	100	475158	1	4	4	1	0	646	1	4	0	32	99	0	1	99
random	1	1	101	476512	4	1	1	1	0	908	1	4	0	8	100	0	1	99
random	1	1	102	477931	5	2	2	1	0	888	1	4	0	16	101	0	1	99
random	1	1	103	479603	2	4	4	1	0	689	1	4	0	32	102	0	1	99
random	1	1	104	481210	3	1	1	1	0	973	1	4	0	8	103	0	1	99
random	1	1	105	482737	1	3	3	1	0	852	1	4	0	24	104	0	1	99
random	1	1	106	484420	2	2	2	1	0	733	1	4	0	16	105	0	1	99
random	1	1	107	485920	5	4	4	1	0	1118	1	4	0	32	106	0	1	99
random	1	1	108	487523	6	1	1	1	0	690	1	4	0	8	107	0	1	99
random	1	1	109	489131	5	4	4	1	0	749	1	4	0	32	108	0	1	99
random	1	1	110	490627	6	3	3	1	0	846	1	4	0	24	109	0	1	99
random	1	1	111	492067	2	2	2	1	0	625	1	4	0	16	110	0	1	99
random	1	1	112	493144	3	1	1	1	0	1067	1	4	0	8	111	0	1	99
random	1	1	113	495027	1	2	2	1	0	1267	1	4	0	16	112	0	1	99
random	1	1	114	497207	2	3	3	1	0	767	1	4	0	24	113	0	1	99
random	1	1	115	498260	3	1	1	1	0	875	1	4	0	8	114	0	1	99
random	1	1	116	499811	4	4	4	1	0	777	1	4	0	32	115	0	1	99
random	1	1	117	501333	6	1	1	2	0	1905	2	4	0	8	116	0	1	99
random	1	1	118	503585	5	3	3	1	0	1161	1	4	0	24	117	0	1	99
random	1	1	119	505683	1	4	4	1	0	889	1	4	0	32	118	0	1	99
random	1	1	120	507212	4	2	2	1	0	832	1	4	0	16	119	0	1	99
fixed	2	1	1	509545	4	1	1	1	0	996	1	4	0	40	1	0	0	100
fixed	2	1	2	511114	1	2	2	1	0	811	1	4	0	48	2	0	0	100
fixed	2	1	3	512401	6	4	4	1	0	772	1	4	0	64	3	0	0	100
fixed	2	1	4	513989	2	1	1	1	0	928	1	4	0	40	4	0	0	100
fixed	2	1	5	515454	5	3	3	1	0	883	1	4	0	56	5	0	0	100
fixed	2	1	6	517270	6	4	4	1	0	950	1	4	0	64	6	0	0	100
fixed	2	1	7	518802	3	1	1	1	0	788	1	4	0	40	7	0	0	100
fixed	2	1	8	520496	2	3	3	1	0	981	1	4	0	56	8	0	0	100
fixed	2	1	9	522123	3	2	2	1	0	768	1	4	0	48	9	0	0	100
fixed	2	1	10	523642	1	4	4	1	0	776	1	4	0	64	10	0	0	100
fixed	2	1	11	525241	5	2	2	1	0	1316	1	4	0	48	11	0	0	100
fixed	2	1	12	527079	4	3	3	1	0	734	1	4	0	56	12	0	0	100
fixed	2	2	1	528511	4	1	1	1	0	1001	1	4	0	40	13	0	0	100
fixed	2	2	2	530471	1	2	2	1	0	886	1	4	0	48	14	0	0	100
fixed	2	2	3	532313	6	4	4	1	0	705	1	4	0	64	15	0	0	100
fixed	2	2	4	533414	2	1	1	1	0	1154	1	4	0	40	16	0	0	100
fixed	2	2	5	535192	5	3	3	1	0	894	1	4	0	56	17	0	0	100
fixed	2	2	6	537065	6	4	4	1	0	871	1	4	0	64	18	0	0	100
fixed	2	2	7	538475	3	1	1	1	0	908	1	4	0	40	19	0	0	100
fixed	2	2	8	540325	2	3	3	1	0	1037	1	4	0	56	20	0	0	100
fixed	2	2	9	542330	3	2	2	1	0	696	1	4	0	48	21	0	0	100
fixed	2	2	10	543624	1	4	4	1	0	746	1	4	0	64	22	0	0	100
fixed	2	2	11	545068	5	2	2	1	0	1148	1	4	0	48	23	0	0	100
fixed	2	2	12	546996	4	3	3	1	0	955	1	4	0	56	24	0	0	100
fixed	2	3	1	548510	4	1	1	1	0	922	1	4	0	40	25	0	0	100
fixed	2	3	2	549809	1	2	2	2	0	1100	2	4	0	48	26	0	0	100
fixed	2	3	3	551552	6	4	4	1	0	1345	1	4	0	64	27	0	0	100
fixed	2	3	4	553304	2	1	1	1	0	1127	1	4	0	40	28	0	0	100
fixed	2	3	5	554775	5	3	3	1	0	889	1	4	0	56	29	0	0	100
fixed	2	3	6	556397	6	4	4	1	0	692	1	4	0	64	30	0	0	100
fixed	2	3	7	557919	3	1	1	1	0	1004	1	4	0	40	31	0	0	100
fixed	2	3	8	559587	2	3	3	1	0	1141	1	4	0	56	32	0	0	100
fixed	2	3	9	561136	3	2	2	1	0	764	1	4	0	48	33	0	0	100
fixed	2	3	10	562304	1	4	4	1	0	698	1	4	0	64	34	0	0	100
fixed	2	3	11	563409	5	2	2	1	0	780	1	4	0	48	35	0	0	100
fixed	2	3	12	564694	4	3	3	1	0	709	1	4	0	56	36	0	0	100
fixed	2	4	1	566537	4	1	1	1	0	927	1	4	0	40	37	0	0	100
fixed	2	4	2	567764	1	2	2	1	0	1147	1	4	0	48	38	0	0	100
fixed	2	4	3	569317	6	4	4	1	0	857	1	4	0	64	39	0	0	100
fixed	2	4	4	571042	2	1	1	2	0	1280	2	4	0	40	40	0	0	100
fixed	2	4	5	572864	5	3	3	1	0	971	1	4	0	56	41	0	0	100
fixed	2	4	6	574855	6	4	4	1	0	830	1	4	0	64	42	0	0	100
fixed	2	4	7	576050	3	1	1	1	0	1244	1	4	0	40	43	0	0	100
fixed	2	4	8	577827	2	3	3	1	0	969	1	4	0	56	44	0	0	100
fixed	2	4	9	579174	3	2	2	1	0	688	1	4	0	48	45	0	0	100
fixed	2	4	10	580166	1	4	4	1	0	814	1	4	0	64	46	0	0	100
fixed	2	4	11	581785	5	2	2	1	0	1017	1	4	0	48	47	0	0	100
fixed	2	4	12	583487	4	3	3	1	0	705	1	4	0	56	48	0	0	100
fixed	2	5	1	585367	4	1	0	1	2	0	3	4	0	40	48	0	1	98
fixed	2	5	2	588388	1	2	2	2	0	1049	2	4	0	48	49	0	1	98
fixed	2	5	3	590432	6	4	4	1	0	995	1	4	0	64	50	0	1	98
fixed	2	5	4	592264	2	1	1	1	0	1046	1	4	0	40	51	0	1	98
fixed	2	5	5	593851	5	3	3	1	0	986	1	4	0	56	52	0	1	98
fixed	2	5	6	595426	6	4	4	1	0	775	1	4	0	64	53	0	1	98
fixed	2	5	7	596596	3	1	1	1	0	966	1	4	0	40	54	0	1	98
fixed	2	5	8	598176	2	3	3	1	0	1619	1	4	0	56	55	0	1	98
fixed	2	5	9	600314	3	2	2	1	0	784	1	4	0	48	56	0	1	98
fixed	2	5	10	601550	1	4	4	1	0	668	1	4	0	64	57	0	1	98
fixed	2	5	11	602799	5	2	2	1	0	1383	1	4	0	48	58	0	1	98
fixed	2	5	12	604675	4	3	3	1	0	848	1	4	0	56	59	0	1	98
fixed	2	6	1	606352	4	1	1	2	0	1072	2	4	0	40	60	0	1	98
fixed	2	6	2	608369	1	2	2	1	0	843	1	4	0	48	61	0	1	98
fixed	2	6	3	609603	6	4	4	1	0	727	1	4	0	64	62	0	1	98
fixed	2	6	4	610846	2	1	1	1	0	874	1	4	0	40	63	0	1	98
fixed	2	6	5	612305	5	3	0	1	2	0	3	4	0	56	63	0	2	97
fixed	2	6	6	615201	6	4	4	1	0	786	1	4	0	64	64	0	2	97
fixed	2	6	7	616985	3	1	1	3	0	1462	2	4	0	40	65	0	2	97
fixed	2	6	8	619288	2	3	3	1	0	1813	1	4	0	56	66	0	2	97
fixed	2	6	9	621696	3	2	2	1	0	639	1	4	0	48	67	0	2	97
fixed	2	6	10	622712	1	4	4	1	0	763	1	4	0	64	68	0	2	97
fixed	2	6	11	624039	5	2	2	2	0	1260	2	4	0	48	69	0	2	97
fixed	2	6	12	625885	4	3	3	1	0	717	1	4	0	56	70	0	2	97
fixed	2	7	1	627236	4	1	1	1	0	812	1	4	0	40	71	0	2	97
fixed	2	7	2	628930	1	2	2	1	0	884	1	4	0	48	72	0	2	97
fixed	2	7	3	630742	6	4	4	1	0	767	1	4	0	64	73	0	2	97
fixed	2	7	4	632517	2	1	1	2	0	1236	2	4	0	40	74	0	2	97
fixed	2	7	5	634758	5	3	3	1	0	1013	1	4	0	56	75	0	2	97
fixed	2	7	6	636661	6	4	4	1	0	797	1	4	0	64	76	0	2	97
fixed	2	7	7	638231	3	1	1	1	0	882	1	4	0	40	77	0	2	97
fixed	2	7	8	639850	2	3	3	1	0	981	1	4	0	56	78	0	2	98
fixed	2	7	9	641720	3	2	2	1	0	694	1	4	0	48	79	0	2	98
fixed	2	7	10	642739	1	4	4	1	0	763	1	4	0	64	80	0	2	98
fixed	2	7	11	644212	5	2	2	1	0	1013	1	4	0	48	81	0	2	98
fixed	2	7	12	645534	4	3	3	1	0	685	1	4	0	56	82	0	2	98
fixed	2	8	1	647002	4	1	1	2	0	1911	2	4	0	40	83	0	2	98
fixed	2	8	2	649467	1	2	2	1	0	879	1	4	0	48	84	0	2	98
fixed	2	8	3	650822	6	4	4	1	0	717	1	4	0	64	85	0	2	98
fixed	2	8	4	652312	2	1	0	1	2	0	3	4	0	40	85	0	3	97
fixed	2	8	5	655323	5	3	3	1	0	1374	1	4	0	56	86	0	3	97
fixed	2	8	6	657431	6	4	4	1	0	853	1	4	0	64	87	0	3	97
fixed	2	8	7	658637	3	1	1	1	0	1258	1	4	0	40	88	0	3	97
fixed	2	8	8	660908	2	3	3	1	0	1370	1	4	0	56	89	0	3	97
fixed	2	8	9	663189	3	2	2	1	0	689	1	4	0	48	90	0	3	97
fixed	2	8	10	664777	1	4	4	1	0	798	1	4	0	64	91	0	3	97
fixed	2	8	11	666278	5	2	2	1	0	943	1	4	0	48	92	0	3	97
fixed	2	8	12	667620	4	3	3	1	0	749	1	4	0	56	93	0	3	97
fixed	2	9	1	669239	4	1	1	1	0	1033	1	4	0	40	94	0	3	97
fixed	2	9	2	670762	1	2	2	1	0	1360	1	4	0	48	95	0	3	97
fixed	2	9	3	672453	6	4	4	1	0	833	1	4	0	64	96	0	3	97
fixed	2	9	4	673919	2	1	1	1	0	859	1	4	0	40	97	0	3	97
fixed	2	9	5	675433	5	3	3	1	0	835	1	4	0	56	98	0	3	97
fixed	2	9	6	676771	6	4	4	1	0	906	1	4	0	64	99	0	3	97
fixed	2	9	7	678014	3	1	1	1	0	797	1	4	0	40	100	0	3	97
fixed	2	9	8	679648	2	3	3	1	0	1008	1	4	0	56	101	0	3	97
fixed	2	9	9	680997	3	2	2	1	0	695	1	4	0	48	102	0	3	97
fixed	2	9	10	682170	1	4	4	1	0	757	1	4	0	64	103	0	3	97
fixed	2	9	11	683725	5	2	2	1	0	755	1	4	0	48	104	0	3	97
fixed	2	9	12	685454	4	3	3	1	0	650	1	4	0	56	105	0	3	97
fixed	2	10	1	686933	4	1	1	1	0	763	1	4	0	40	106	0	3	97
fixed	2	10	2	688337	1	2	2	1	0	904	1	4	0	48	107	0	3	97
fixed	2	10	3	689927	6	4	4	1	0	701	1	4	0	64	108	0	3	97
fixed	2	10	4	691209	2	1	1	2	0	878	2	4	0	40	109	0	3	97
fixed	2	10	5	692670	5	3	3	2	0	1105	2	4	0	56	110	0	3	97
fixed	2	10	6	694651	6	4	4	1	0	860	1	4	0	64	111	0	3	97
fixed	2	10	7	696035	3	1	1	1	0	842	1	4	0	40	112	0	3	97
fixed	2	10	8	697194	2	3	3	1	0	985	1	4	0	56	113	0	3	97
fixed	2	10	9	699188	3	2	2	1	0	1069	1	4	0	48	114	0	3	97
fixed	2	10	10	701127	1	4	4	1	0	746	1	4	0	64	115	0	3	97
fixed	2	10	11	702506	5	2	2	1	0	1776	1	4	0	48	116	0	3	97
fixed	2	10	12	704600	4	3	3	1	0	815	1	4	0	56	117	0	3	98
fixed	3	1	1	706930	4	1	1	1	0	884	1	4	0	72	1	0	0	100
fixed	3	1	2	708411	1	2	2	1	0	958	1	4	0	80	2	0	0	100
fixed	3	1	3	709685	6	4	4	1	0	800	1	4	0	96	3	0	0	100
fixed	3	1	4	711049	2	1	1	2	0	1462	2	4	0	72	4	0	0	100
fixed	3	1	5	713070	5	3	3	1	0	888	1	4	0	88	5	0	0	100
fixed	3	1	6	714395	6	4	4	1	0	913	1	4	0	96	6	0	0	100
fixed	3	1	7	715691	3	1	1	1	0	969	1	4	0	72	7	0	0	100
fixed	3	1	8	716974	2	3	3	1	0	1243	1	4	0	88	8	0	0	100
fixed	3	1	9	718674	3	2	2	1	0	723	1	4	0	80	9	0	0	100
fixed	3	1	10	720387	1	4	4	1	0	954	1	4	0	96	10	0	0	100
fixed	3	1	11	721864	5	2	2	1	0	980	1	4	0	80	11	0	0	100
fixed	3	1	12	723363	4	3	3	1	0	629	1	4	0	88	12	0	0	100
fixed	3	2	1	724826	4	1	1	1	0	766	1	4	0	72	13	0	0	100
fixed	3	2	2	726547	1	2	2	2	0	901	2	4	0	80	14	0	0	100
fixed	3	2	3	728430	6	4	4	1	0	862	1	4	0	96	15	0	0	100
fixed	3	2	4	730011	2	1	1	1	0	1019	1	4	0	72	16	0	0	100
fixed	3	2	5	731756	5	3	3	1	0	1297	1	4	0	88	17	0	0	100
fixed	3	2	6	733765	6	4	4	1	0	884	1	4	0	96	18	0	0	100
fixed	3	2	7	735576	3	1	1	1	0	1175	1	4	0	72	19	0	0	100
fixed	3	2	8	737501	2	3	3	1	0	1014	1	4	0	88	20	0	0	100
fixed	3	2	9	739516	3	2	2	1	0	848	1	4	0	80	21	0	0	100
fixed	3	2	10	740826	1	4	4	1	0	825	1	4	0	96	22	0	0	100
fixed	3	2	11	742169	5	2	2	1	0	888	1	4	0	80	23	0	0	100
fixed	3	2	12	743581	4	3	3	1	0	636	1	4	0	88	24	0	0	100
fixed	3	3	1	745176	4	1	1	1	0	880	1	4	0	72	25	0	0	100
fixed	3	3	2	746562	1	2	0	1	2	0	3	4	0	80	25	0	1	96
fixed	3	3	3	749860	6	4	4	1	0	738	1	4	0	96	26	0	1	96
fixed	3	3	4	751063	2	1	1	1	0	1039	1	4	0	72	27	0	1	96
fixed	3	3	5	753051	5	3	3	1	0	899	1	4	0	88	28	0	1	97
fixed	3	3	6	754868	6	4	4	2	0	894	2	4	0	96	29	0	1	97
fixed	3	3	7	756297	3	1	1	1	0	778	1	4	0	72	30	0	1	97
fixed	3	3	8	758075	2	3	3	1	0	1118	1	4	0	88	31	0	1	97
fixed	3	3	9	760188	3	2	2	1	0	781	1	4	0	80	32	0	1	97
fixed	3	3	10	761915	1	4	4	1	0	731	1	4	0	96	33	0	1	97
fixed	3	3	11	763557	5	2	2	1	0	878	1	4	0	80	34	0	1	97
fixed	3	3	12	765177	4	3	3	1	0	1137	1	4	0	88	35	0	1	97
fixed	3	4	1	767481	4	1	1	1	0	992	1	4	0	72	36	0	1	97
fixed	3	4	2	769121	1	2	2	1	0	930	1	4	0	80	37	0	1	97
fixed	3	4	3	770656	6	4	4	1	0	753	1	4	0	96	38	0	1	97
fixed	3	4	4	772009	2	1	1	1	0	968	1	4	0	72	39	0	1	98
fixed	3	4	5	773654	5	3	3	1	0	938	1	4	0	88	40	0	1	98
fixed	3	4	6	775582	6	4	4	1	0	688	1	4	0	96	41	0	1	98
fixed	3	4	7	776613	3	1	0	1	2	0	3	4	0	72	41	0	2	95
fixed	3	4	8	780132	2	3	3	1	0	1152	1	4	0	88	42	0	2	95
fixed	3	4	9	781912	3	2	2	1	0	829	1	4	0	80	43	0	2	96
fixed	3	4	10	783247	1	4	4	1	0	740	1	4	0	96	44	0	2	96
fixed	3	4	11	784334	5	2	2	1	0	966	1	4	0	80	45	0	2	96
fixed	3	4	12	785630	4	3	3	1	0	775	1	4	0	88	46	0	2	96
fixed	3	5	1	787697	4	1	1	1	0	1039	1	4	0	72	47	0	2	96
fixed	3	5	2	789180	1	2	2	1	0	961	1	4	0	80	48	0	2	96
fixed	3	5	3	790691	6	4	4	1	0	833	1	4	0	96	49	0	2	96
fixed	3	5	4	792223	2	1	1	1	0	1184	1	4	0	72	50	0	2	96
fixed	3	5	5	794378	5	3	3	2	0	884	2	4	0	88	51	0	2	96
fixed	3	5	6	796190	6	4	4	2	0	888	2	4	0	96	52	0	2	96
fixed	3	5	7	797459	3	1	1	1	0	746	1	4	0	72	53	0	2	96
fixed	3	5	8	798534	2	3	3	1	0	1029	1	4	0	88	54	0	2	96
fixed	3	5	9	799929	3	2	2	1	0	793	1	4	0	80	55	0	2	96
fixed	3	5	10	801436	1	4	4	1	0	994	1	4	0	96	56	0	2	97
fixed	3	5	11	802938	5	2	2	1	0	946	1	4	0	80	57	0	2	97
fixed	3	5	12	804546	4	3	3	1	0	582	1	4	0	88	58	0	2	97
fixed	3	6	1	805908	4	1	1	1	0	956	1	4	0	72	59	0	2	97
fixed	3	6	2	807563	1	2	2	2	0	1022	2	4	0	80	60	0	2	97
fixed	3	6	3	809288	6	4	4	1	0	781	1	4	0	96	61	0	2	97
fixed	3	6	4	810666	2	1	1	1	0	1283	1	4	0	72	62	0	2	97
fixed	3	6	5	812502	5	3	3	1	0	829	1	4	0	88	63	0	2	97
fixed	3	6	6	814207	6	4	4	1	0	861	1	4	0	96	64	0	2	97
fixed	3	6	7	815653	3	1	1	1	0	847	1	4	0	72	65	0	2	97
fixed	3	6	8	817172	2	3	3	1	0	951	1	4	0	88	66	0	2	97
fixed	3	6	9	818788	3	2	2	1	0	1066	1	4	0	80	67	0	2	97
fixed	3	6	10	820855	1	4	4	1	0	715	1	4	0	96	68	0	2	97
fixed	3	6	11	821957	5	2	2	2	0	973	2	4	0	80	69	0	2	97
fixed	3	6	12	823301	4	3	3	1	0	723	1	4	0	88	70	0	2	97
fixed	3	7	1	824738	4	1	1	2	0	1038	2	4	0	72	71	0	2	97
fixed	3	7	2	826227	1	2	2	1	0	1023	1	4	0	80	72	0	2	97
fixed	3	7	3	827817	6	4	4	1	0	836	1	4	0	96	73	0	2	97
fixed	3	7	4	828968	2	1	0	1	2	0	3	4	0	72	73	0	3	96
fixed	3	7	5	832282	5	3	3	1	0	1031	1	4	0	88	74	0	3	96
fixed	3	7	6	833613	6	4	4	1	0	823	1	4	0	96	75	0	3	96
fixed	3	7	7	835141	3	1	1	2	0	1190	2	4	0	72	76	0	3	96
fixed	3	7	8	836992	2	3	3	1	0	856	1	4	0	88	77	0	3	96
fixed	3	7	9	838691	3	2	2	1	0	712	1	4	0	80	78	0	3	96
fixed	3	7	10	840331	1	4	4	1	0	802	1	4	0	96	79	0	3	96
fixed	3	7	11	841527	5	2	2	2	0	1207	2	4	0	80	80	0	3	96
fixed	3	7	12	843639	4	3	3	2	0	990	2	4	0	88	81	0	3	96
fixed	3	8	1	845272	4	1	1	2	0	1217	2	4	0	72	82	0	3	96
fixed	3	8	2	846895	1	2	2	1	0	996	1	4	0	80	83	0	3	97
fixed	3	8	3	848880	6	4	4	1	0	792	1	4	0	96	84	0	3	97
fixed	3	8	4	850700	2	1	0	2	2	0	3	4	0	72	84	0	4	95
fixed	3	8	5	854147	5	3	3	1	0	873	1	4	0	88	85	0	4	96
fixed	3	8	6	855573	6	4	4	1	0	829	1	4	0	96	86	0	4	96
fixed	3	8	7	857090	3	1	1	2	0	1268	2	4	0	72	87	0	4	96
fixed	3	8	8	858907	2	3	3	1	0	1039	1	4	0	88	88	0	4	96
fixed	3	8	9	860472	3	2	2	1	0	1126	1	4	0	80	89	0	4	96
fixed	3	8	10	862303	1	4	4	1	0	896	1	4	0	96	90	0	4	96
fixed	3	8	11	863958	5	2	2	1	0	1882	1	4	0	80	91	0	4	96
fixed	3	8	12	866242	4	3	3	1	0	793	1	4	0	88	92	0	4	96
fixed	3	9	1	868178	4	1	1	1	0	903	1	4	0	72	93	0	4	96
fixed	3	9	2	869485	1	2	2	1	0	1023	1	4	0	80	94	0	4	96
fixed	3	9	3	871421	6	4	4	1	0	653	1	4	0	96	95	0	4	96
fixed	3	9	4	872881	2	1	1	1	0	1000	1	4	0	72	96	0	4	96
fixed	3	9	5	874751	5	3	3	1	0	952	1	4	0	88	97	0	4	96
fixed	3	9	6	876610	6	4	4	1	0	746	1	4	0	96	98	0	4	96
fixed	3	9	7	877731	3	1	1	1	0	1067	1	4	0	72	99	0	4	96
fixed	3	9	8	879213	2	3	3	1	0	836	1	4	0	88	100	0	4	96
fixed	3	9	9	880477	3	2	2	1	0	822	1	4	0	80	101	0	4	96
fixed	3	9	10	881781	1	4	4	1	0	783	1	4	0	96	102	0	4	96
fixed	3	9	11	883358	5	2	2	1	0	812	1	4	0	80	103	0	4	96
fixed	3	9	12	885045	4	3	3	2	0	1021	2	4	0	88	104	0	4	96
fixed	3	10	1	887074	4	1	1	1	0	990	1	4	0	72	105	0	4	96
fixed	3	10	2	888679	1	2	2	1	0	1074	1	4	0	80	106	0	4	96
fixed	3	10	3	890794	6	4	4	1	0	1049	1	4	0	96	107	0	4	96
fixed	3	10	4	892687	2	1	1	1	0	976	1	4	0	72	108	0	4	96
fixed	3	10	5	894102	5	3	3	1	0	901	1	4	0	88	109	0	4	96
fixed	3	10	6	895602	6	4	4	1	0	1269	1	4	0	96	110	0	4	96
fixed	3	10	7	897868	3	1	1	1	0	1037	1	4	0	72	111	0	4	97
fixed	3	10	8	899548	2	3	3	1	0	1046	1	4	0	88	112	0	4	97
fixed	3	10	9	901160	3	2	2	1	0	706	1	4	0	80	113	0	4	97
fixed	3	10	10	902878	1	4	4	1	0	721	1	4	0	96	114	0	4	97
fixed	3	10	11	904267	5	2	2	1	0	918	1	4	0	80	115	0	4	97
fixed	3	10	12	905530	4	3	3	1	0	641	1	4	0	88	116	0	4	97
fixed	4	1	1	1049153	4	1	1	1	0	773	1	4	0	104	1	0	0	100
fixed	4	1	2	1050937	1	2	2	1	0	978	1	4	0	112	2	0	0	100
fixed	4	1	3	1052674	6	4	4	1	0	753	1	4	0	128	3	0	0	100
fixed	4	1	4	1053894	2	1	1	1	0	893	1	4	0	104	4	0	0	100
fixed	4	1	5	1055175	5	3	3	1	0	894	1	4	0	120	5	0	0	100
fixed	4	1	6	1056435	6	4	4	1	0	1033	1	4	0	128	6	0	0	100
fixed	4	1	7	1058046	3	1	1	1	0	797	1	4	0	104	7	0	0	100
fixed	4	1	8	1059378	2	3	3	1	0	740	1	4	0	120	8	0	0	100
fixed	4	1	9	1060815	3	2	2	1	0	775	1	4	0	112	9	0	0	100
fixed	4	1	10	1062521	1	4	4	1	0	751	1	4	0	128	10	0	0	100
fixed	4	1	11	1063605	5	2	2	1	0	1089	1	4	0	112	11	0	0	100
fixed	4	1	12	1065504	4	3	3	1	0	529	1	4	0	120	12	0	0	100
fixed	4	2	1	1067149	4	1	1	1	0	899	1	4	0	104	13	0	0	100
fixed	4	2	2	1068711	1	2	2	2	0	2457	2	4	0	112	14	0	0	100
fixed	4	2	3	1071746	6	4	4	1	0	840	1	4	0	128	15	0	0	100
fixed	4	2	4	1073606	2	1	1	2	0	986	2	4	0	104	16	0	0	100
fixed	4	2	5	1075183	5	3	3	1	0	935	1	4	0	120	17	0	0	100
fixed	4	2	6	1076567	6	4	4	1	0	893	1	4	0	128	18	0	0	100
fixed	4	2	7	1078259	3	1	1	1	0	1044	1	4	0	104	19	0	0	100
fixed	4	2	8	1079801	2	3	3	1	0	1067	1	4	0	120	20	0	0	100
fixed	4	2	9	1081669	3	2	2	1	0	692	1	4	0	112	21	0	0	100
fixed	4	2	10	1083059	1	4	4	1	0	705	1	4	0	128	22	0	0	100
fixed	4	2	11	1084732	5	2	2	1	0	763	1	4	0	112	23	0	0	100
fixed	4	2	12	1086355	4	3	3	1	0	574	1	4	0	120	24	0	0	100
fixed	4	3	1	1087549	4	1	1	2	0	2227	2	4	0	104	25	0	0	100
fixed	4	3	2	1090749	1	2	2	1	0	892	1	4	0	112	26	0	0	100
fixed	4	3	3	1092306	6	4	4	1	0	826	1	4	0	128	27	0	0	100
fixed	4	3	4	1093550	2	1	1	1	0	1005	1	4	0	104	28	0	0	100
fixed	4	3	5	1095435	5	3	3	1	0	949	1	4	0	120	29	0	0	100
fixed	4	3	6	1096767	6	4	4	1	0	869	1	4	0	128	30	0	0	100
fixed	4	3	7	1098203	3	1	1	1	0	888	1	4	0	104	31	0	0	100
fixed	4	3	8	1100045	2	3	3	1	0	826	1	4	0	120	32	0	0	100
fixed	4	3	9	1101563	3	2	2	1	0	698	1	4	0	112	33	0	0	100
fixed	4	3	10	1103283	1	4	4	1	0	793	1	4	0	128	34	0	0	100
fixed	4	3	11	1104474	5	2	2	1	0	966	1	4	0	112	35	0	0	100
fixed	4	3	12	1106156	4	3	3	1	0	551	1	4	0	120	36	0	0	100
fixed	4	4	1	1107799	4	1	1	1	0	929	1	4	0	104	37	0	0	100
fixed	4	4	2	1109130	1	2	2	1	0	1065	1	4	0	112	38	0	0	100
fixed	4	4	3	1110736	6	4	4	1	0	773	1	4	0	128	39	0	0	100
fixed	4	4	4	1111871	2	1	1	1	0	1517	1	4	0	104	40	0	0	100
fixed	4	4	5	1114219	5	3	3	1	0	914	1	4	0	120	41	0	0	100
fixed	4	4	6	1115645	6	4	4	1	0	877	1	4	0	128	42	0	0	100
fixed	4	4	7	1117485	3	1	1	1	0	864	1	4	0	104	43	0	0	100
fixed	4	4	8	1118679	2	3	3	1	0	1117	1	4	0	120	44	0	0	100
fixed	4	4	9	1120535	3	2	2	1	0	838	1	4	0	112	45	0	0	100
fixed	4	4	10	1122403	1	4	4	2	0	767	2	4	0	128	46	0	0	100
fixed	4	4	11	1123534	5	2	2	2	0	1423	2	4	0	112	47	0	0	100
fixed	4	4	12	1125321	4	3	3	1	0	748	1	4	0	120	48	0	0	100
fixed	4	5	1	1127113	4	1	1	1	0	1111	1	4	0	104	49	0	0	100
fixed	4	5	2	1128531	1	2	2	1	0	955	1	4	0	112	50	0	0	100
fixed	4	5	3	1130164	6	4	4	1	0	766	1	4	0	128	51	0	0	100
fixed	4	5	4	1131458	2	1	1	1	0	1207	1	4	0	104	52	0	0	100
fixed	4	5	5	1133283	5	3	3	2	0	1362	2	4	0	120	53	0	0	100
fixed	4	5	6	1135144	6	4	4	1	0	884	1	4	0	128	54	0	0	100
fixed	4	5	7	1136542	3	1	1	1	0	864	1	4	0	104	55	0	0	100
fixed	4	5	8	1137908	2	3	3	1	0	1006	1	4	0	120	56	0	0	100
fixed	4	5	9	1139364	3	2	2	1	0	737	1	4	0	112	57	0	0	100
fixed	4	5	10	1141044	1	4	4	1	0	738	1	4	0	128	58	0	0	100
fixed	4	5	11	1142358	5	2	2	1	0	818	1	4	0	112	59	0	0	100
fixed	4	5	12	1143784	4	3	3	1	0	598	1	4	0	120	60	0	0	100
fixed	4	6	1	1145191	4	1	1	2	0	1002	2	4	0	104	61	0	0	100
fixed	4	6	2	1147107	1	2	2	1	0	857	1	4	0	112	62	0	0	100
fixed	4	6	3	1148841	6	4	4	1	0	759	1	4	0	128	63	0	0	100
fixed	4	6	4	1150160	2	1	1	1	0	879	1	4	0	104	64	0	0	100
fixed	4	6	5	1151694	5	3	3	1	0	814	1	4	0	120	65	0	0	100
fixed	4	6	6	1153326	6	4	4	1	0	769	1	4	0	128	66	0	0	100
fixed	4	6	7	1154996	3	1	1	1	0	994	1	4	0	104	67	0	0	100
fixed	4	6	8	1156589	2	3	3	1	0	1199	1	4	0	120	68	0	0	100
fixed	4	6	9	1158412	3	2	2	1	0	690	1	4	0	112	69	0	0	100
fixed	4	6	10	1159503	1	4	4	1	0	740	1	4	0	128	70	0	0	100
fixed	4	6	11	1160917	5	2	2	1	0	688	1	4	0	112	71	0	0	100
fixed	4	6	12	1162230	4	3	3	1	0	608	1	4	0	120	72	0	0	100
fixed	4	7	1	1164104	4	1	1	2	0	1208	2	4	0	104	73	0	0	100
fixed	4	7	2	1166002	1	2	2	1	0	840	1	4	0	112	74	0	0	100
fixed	4	7	3	1167615	6	4	4	1	0	676	1	4	0	128	75	0	0	100
fixed	4	7	4	1169032	2	1	1	1	0	1048	1	4	0	104	76	0	0	100
fixed	4	7	5	1170866	5	3	3	1	0	907	1	4	0	120	77	0	0	100
fixed	4	7	6	1172681	6	4	4	1	0	837	1	4	0	128	78	0	0	100
fixed	4	7	7	1174273	3	1	1	1	0	1138	1	4	0	104	79	0	0	100
fixed	4	7	8	1175893	2	3	3	1	0	1086	1	4	0	120	80	0	0	100
fixed	4	7	9	1177349	3	2	2	1	0	776	1	4	0	112	81	0	0	100
fixed	4	7	10	1179053	1	4	4	1	0	776	1	4	0	128	82	0	0	100
fixed	4	7	11	1180113	5	2	2	1	0	859	1	4	0	112	83	0	0	100
fixed	4	7	12	1181418	4	3	3	3	0	947	2	4	0	120	84	0	0	100
fixed	4	8	1	1183201	4	1	1	1	0	808	1	4	0	104	85	0	0	100
fixed	4	8	2	1184713	1	2	0	0	2	0	3	4	0	112	85	0	1	99
fixed	4	8	3	1187609	6	4	4	1	0	765	1	4	0	128	86	0	1	99
fixed	4	8	4	1189305	2	1	1	1	0	869	1	4	0	104	87	0	1	99
fixed	4	8	5	1191141	5	3	3	1	0	783	1	4	0	120	88	0	1	99
fixed	4	8	6	1192744	6	4	4	1	0	820	1	4	0	128	89	0	1	99
fixed	4	8	7	1194027	3	1	1	1	0	861	1	4	0	104	90	0	1	99
fixed	4	8	8	1195539	2	3	3	1	0	1061	1	4	0	120	91	0	1	99
fixed	4	8	9	1196989	3	2	2	1	0	736	1	4	0	112	92	0	1	99
fixed	4	8	10	1198330	1	4	4	1	0	735	1	4	0	128	93	0	1	99
fixed	4	8	11	1199865	5	2	2	1	0	854	1	4	0	112	94	0	1	99
fixed	4	8	12	1201224	4	3	3	1	0	669	1	4	0	120	95	0	1	99
fixed	4	9	1	1202815	4	1	1	1	0	841	1	4	0	104	96	0	1	99
fixed	4	9	2	1204454	1	2	2	1	0	867	1	4	0	112	97	0	1	99
fixed	4	9	3	1206282	6	4	4	1	0	702	1	4	0	128	98	0	1	99
fixed	4	9	4	1207576	2	1	0	1	2	0	3	4	0	104	98	0	2	98
fixed	4	9	5	1211080	5	3	3	1	0	907	1	4	0	120	99	0	2	98
fixed	4	9	6	1212643	6	4	4	1	0	865	1	4	0	128	100	0	2	98
fixed	4	9	7	1214269	3	1	1	1	0	820	1	4	0	104	101	0	2	98
fixed	4	9	8	1216108	2	3	3	1	0	798	1	4	0	120	102	0	2	98
fixed	4	9	9	1217733	3	2	2	1	0	673	1	4	0	112	103	0	2	98
fixed	4	9	10	1219356	1	4	4	1	0	732	1	4	0	128	104	0	2	98
fixed	4	9	11	1220484	5	2	2	1	0	845	1	4	0	112	105	0	2	98
fixed	4	9	12	1221935	4	3	3	2	0	2183	2	4	0	120	106	0	2	98
fixed	4	10	1	1224803	4	1	1	2	0	1046	2	4	0	104	107	0	2	98
fixed	4	10	2	1226321	1	2	2	1	0	933	1	4	0	112	108	0	2	98
fixed	4	10	3	1228081	6	4	4	1	0	827	1	4	0	128	109	0	2	98
fixed	4	10	4	1229607	2	1	1	1	0	922	1	4	0	104	110	0	2	98
fixed	4	10	5	1231560	5	3	3	1	0	856	1	4	0	120	111	0	2	98
fixed	4	10	6	1233170	6	4	4	1	0	1107	1	4	0	128	112	0	2	98
fixed	4	10	7	1235179	3	1	1	1	0	926	1	4	0	104	113	0	2	98
fixed	4	10	8	1237023	2	3	3	1	0	824	1	4	0	120	114	0	2	98
fixed	4	10	9	1238304	3	2	2	1	0	658	1	4	0	112	115	0	2	98
fixed	4	10	10	1239622	1	4	4	1	0	786	1	4	0	128	116	0	2	98
fixed	4	10	11	1240757	5	2	2	1	0	1098	1	4	0	112	117	0	2	98
fixed	4	10	12	1242170	4	3	3	1	0	758	1	4	0	120	118	0	2	98
fixed	5	1	1	1243914	4	1	1	1	0	1108	1	4	0	136	1	0	0	100
fixed	5	1	2	1245689	1	2	2	1	0	1305	1	4	0	144	2	0	0	100
fixed	5	1	3	1247446	6	4	4	1	0	735	1	4	0	160	3	0	0	100
fixed	5	1	4	1248618	2	1	1	1	0	797	1	4	0	136	4	0	0	100
fixed	5	1	5	1250360	5	3	3	1	0	803	1	4	0	152	5	0	0	100
fixed	5	1	6	1252102	6	4	4	1	0	753	1	4	0	160	6	0	0	100
fixed	5	1	7	1253329	3	1	1	1	0	1054	1	4	0	136	7	0	0	100
fixed	5	1	8	1254754	2	3	3	1	0	921	1	4	0	152	8	0	0	100
fixed	5	1	9	1256514	3	2	2	1	0	654	1	4	0	144	9	0	0	100
fixed	5	1	10	1257856	1	4	4	1	0	742	1	4	0	160	10	0	0	100
fixed	5	1	11	1259250	5	2	2	1	0	803	1	4	0	144	11	0	0	100
fixed	5	1	12	1260585	4	3	3	1	0	642	1	4	0	152	12	0	0	100
fixed	5	2	1	1262512	4	1	1	1	0	1288	1	4	0	136	13	0	0	100
fixed	5	2	2	1264300	1	2	2	1	0	861	1	4	0	144	14	0	0	100
fixed	5	2	3	1266017	6	4	4	1	0	796	1	4	0	160	15	0	0	100
fixed	5	2	4	1267232	2	1	1	1	0	889	1	4	0	136	16	0	0	100
fixed	5	2	5	1268671	5	3	3	2	0	1220	2	4	0	152	17	0	0	100
fixed	5	2	6	1270822	6	4	4	1	0	1521	1	4	0	160	18	0	0	100
fixed	5	2	7	1272720	3	1	1	2	0	1296	2	4	0	136	19	0	0	100
fixed	5	2	8	1274594	2	3	3	1	0	985	1	4	0	152	20	0	0	100
fixed	5	2	9	1276611	3	2	2	1	0	987	1	4	0	144	21	0	0	100
fixed	5	2	10	1277925	1	4	4	1	0	812	1	4	0	160	22	0	0	100
fixed	5	2	11	1279032	5	2	2	1	0	917	1	4	0	144	23	0	0	100
fixed	5	2	12	1280906	4	3	3	1	0	749	1	4	0	152	24	0	0	100
fixed	5	3	1	1282678	4	1	1	1	0	1114	1	4	0	136	25	0	0	100
fixed	5	3	2	1284781	1	2	2	1	0	913	1	4	0	144	26	0	0	100
fixed	5	3	3	1286483	6	4	4	1	0	754	1	4	0	160	27	0	0	100
fixed	5	3	4	1287934	2	1	1	1	0	1212	1	4	0	136	28	0	0	100
fixed	5	3	5	1289948	5	3	3	1	0	830	1	4	0	152	29	0	0	100
fixed	5	3	6	1291071	6	4	4	1	0	1647	1	4	0	160	30	0	0	100
fixed	5	3	7	1293333	3	1	0	1	2	0	3	4	0	136	30	0	1	97
fixed	5	3	8	1296669	2	3	3	1	0	842	1	4	0	152	31	0	1	97
fixed	5	3	9	1297988	3	2	2	1	0	626	1	4	0	144	32	0	1	97
fixed	5	3	10	1298964	1	4	4	1	0	777	1	4	0	160	33	0	1	97
fixed	5	3	11	1300126	5	2	2	1	0	767	1	4	0	144	34	0	1	97
fixed	5	3	12	1301351	4	3	3	1	0	564	1	4	0	152	35	0	1	97
fixed	5	4	1	1302660	4	1	1	1	0	820	1	4	0	136	36	0	1	97
fixed	5	4	2	1303963	1	2	2	1	0	893	1	4	0	144	37	0	1	97
fixed	5	4	3	1305430	6	4	4	1	0	1023	1	4	0	160	38	0	1	97
fixed	5	4	4	1307229	2	1	1	1	0	1011	1	4	0	136	39	0	1	98
fixed	5	4	5	1308944	5	3	3	1	0	858	1	4	0	152	40	0	1	98
fixed	5	4	6	1310323	6	4	4	1	0	1552	1	4	0	160	41	0	1	98
fixed	5	4	7	1312655	3	1	1	1	0	861	1	4	0	136	42	0	1	98
fixed	5	4	8	1314333	2	3	3	1	0	830	1	4	0	152	43	0	1	98
fixed	5	4	9	1315546	3	2	2	1	0	994	1	4	0	144	44	0	1	98
fixed	5	4	10	1317145	1	4	4	1	0	854	1	4	0	160	45	0	1	98
fixed	5	4	11	1318800	5	2	2	1	0	720	1	4	0	144	46	0	1	98
fixed	5	4	12	1320354	4	3	3	1	0	638	1	4	0	152	47	0	1	98
fixed	5	5	1	1321924	4	1	1	2	0	1116	2	4	0	136	48	0	1	98
fixed	5	5	2	1323831	1	2	2	1	0	827	1	4	0	144	49	0	1	98
fixed	5	5	3	1325312	6	4	4	1	0	685	1	4	0	160	50	0	1	98
fixed	5	5	4	1326662	2	1	1	1	0	756	1	4	0	136	51	0	1	98
fixed	5	5	5	1327842	5	3	3	1	0	729	1	4	0	152	52	0	1	98
fixed	5	5	6	1328893	6	4	4	1	0	853	1	4	0	160	53	0	1	98
fixed	5	5	7	1330218	3	1	1	1	0	1165	1	4	0	136	54	0	1	98
fixed	5	5	8	1331896	2	3	3	1	0	949	1	4	0	152	55	0	1	98
fixed	5	5	9	1333427	3	2	2	1	0	733	1	4	0	144	56	0	1	98
fixed	5	5	10	1334456	1	4	4	1	0	777	1	4	0	160	57	0	1	98
fixed	5	5	11	1335997	5	2	0	0	2	0	3	4	0	144	57	0	2	97
fixed	5	5	12	1338840	4	3	3	1	0	1312	1	4	0	152	58	0	2	97
fixed	5	6	1	1341055	4	1	1	1	0	826	1	4	0	136	59	0	2	97
fixed	5	6	2	1342689	1	2	2	1	0	836	1	4	0	144	60	0	2	97
fixed	5	6	3	1344503	6	4	4	1	0	800	1	4	0	160	61	0	2	97
fixed	5	6	4	1345951	2	1	1	1	0	1602	1	4	0	136	62	0	2	97
fixed	5	6	5	1347901	5	3	3	1	0	816	1	4	0	152	63	0	2	97
fixed	5	6	6	1349725	6	4	4	1	0	1106	1	4	0	160	64	0	2	97
fixed	5	6	7	1351136	3	1	1	1	0	951	1	4	0	136	65	0	2	97
fixed	5	6	8	1352826	2	3	3	1	0	775	1	4	0	152	66	0	2	97
fixed	5	6	9	1354576	3	2	2	1	0	757	1	4	0	144	67	0	2	97
fixed	5	6	10	1355726	1	4	4	1	0	844	1	4	0	160	68	0	2	97
fixed	5	6	11	1357258	5	2	2	1	0	755	1	4	0	144	69	0	2	97
fixed	5	6	12	1358840	4	3	3	1	0	689	1	4	0	152	70	0	2	97
fixed	5	7	1	1360319	4	1	1	1	0	786	1	4	0	136	71	0	2	97
fixed	5	7	2	1361959	1	2	2	1	0	932	1	4	0	144	72	0	2	97
fixed	5	7	3	1363271	6	4	4	1	0	941	1	4	0	160	73	0	2	97
fixed	5	7	4	1365014	2	1	1	2	0	787	2	4	0	136	74	0	2	97
fixed	5	7	5	1366180	5	3	3	1	0	833	1	4	0	152	75	0	2	97
fixed	5	7	6	1367989	6	4	4	1	0	837	1	4	0	160	76	0	2	97
fixed	5	7	7	1369526	3	1	0	1	2	0	3	4	0	136	76	0	3	96
fixed	5	7	8	1372746	2	3	3	1	0	932	1	4	0	152	77	0	3	96
fixed	5	7	9	1374577	3	2	2	1	0	750	1	4	0	144	78	0	3	96
fixed	5	7	10	1375796	1	4	4	1	0	794	1	4	0	160	79	0	3	96
fixed	5	7	11	1377384	5	2	2	1	0	1055	1	4	0	144	80	0	3	96
fixed	5	7	12	1378759	4	3	3	1	0	837	1	4	0	152	81	0	3	96
fixed	5	8	1	1380785	4	1	1	1	0	855	1	4	0	136	82	0	3	96
fixed	5	8	2	1382632	1	2	2	1	0	865	1	4	0	144	83	0	3	97
fixed	5	8	3	1384192	6	4	4	1	0	814	1	4	0	160	84	0	3	97
fixed	5	8	4	1385867	2	1	1	2	0	896	2	4	0	136	85	0	3	97
fixed	5	8	5	1387779	5	3	3	1	0	1007	1	4	0	152	86	0	3	97
fixed	5	8	6	1389241	6	4	4	1	0	1721	1	4	0	160	87	0	3	97
fixed	5	8	7	1391798	3	1	1	1	0	804	1	4	0	136	88	0	3	97
fixed	5	8	8	1393323	2	3	3	1	0	884	1	4	0	152	89	0	3	97
fixed	5	8	9	1394897	3	2	2	1	0	665	1	4	0	144	90	0	3	97
fixed	5	8	10	1395949	1	4	4	1	0	773	1	4	0	160	91	0	3	97
fixed	5	8	11	1397277	5	2	2	1	0	908	1	4	0	144	92	0	3	97
fixed	5	8	12	1398588	4	3	3	1	0	621	1	4	0	152	93	0	3	97
fixed	5	9	1	1400317	4	1	1	1	0	923	1	4	0	136	94	0	3	97
fixed	5	9	2	1402198	1	2	2	1	0	884	1	4	0	144	95	0	3	97
fixed	5	9	3	1403757	6	4	4	1	0	746	1	4	0	160	96	0	3	97
fixed	5	9	4	1405282	2	1	1	1	0	1433	1	4	0	136	97	0	3	97
fixed	5	9	5	1407113	5	3	3	1	0	812	1	4	0	152	98	0	3	97
fixed	5	9	6	1408782	6	4	4	1	0	773	1	4	0	160	99	0	3	97
fixed	5	9	7	1409921	3	1	1	1	0	1005	1	4	0	136	100	0	3	97
fixed	5	9	8	1411294	2	3	3	1	0	963	1	4	0	152	101	0	3	97
fixed	5	9	9	1413009	3	2	2	1	0	594	1	4	0	144	102	0	3	97
fixed	5	9	10	1414598	1	4	4	1	0	663	1	4	0	160	103	0	3	97
fixed	5	9	11	1415956	5	2	2	1	0	733	1	4	0	144	104	0	3	97
fixed	5	9	12	1417509	4	3	3	1	0	763	1	4	0	152	105	0	3	97
fixed	5	10	1	1419313	4	1	1	1	0	999	1	4	0	136	106	0	3	97
fixed	5	10	2	1420979	1	2	2	1	0	953	1	4	0	144	107	0	3	97
fixed	5	10	3	1422499	6	4	4	1	0	1000	1	4	0	160	108	0	3	97
fixed	5	10	4	1423954	2	1	1	1	0	1051	1	4	0	136	109	0	3	97
fixed	5	10	5	1425368	5	3	3	1	0	863	1	4	0	152	110	0	3	97
fixed	5	10	6	1427228	6	4	4	1	0	720	1	4	0	160	111	0	3	97
fixed	5	10	7	1428765	3	1	1	1	0	791	1	4	0	136	112	0	3	97
fixed	5	10	8	1430387	2	3	3	1	0	874	1	4	0	152	113	0	3	97
fixed	5	10	9	1432113	3	2	2	1	0	937	1	4	0	144	114	0	3	97
fixed	5	10	10	1433964	1	4	4	1	0	658	1	4	0	160	115	0	3	97
fixed	5	10	11	1435424	5	2	2	1	0	861	1	4	0	144	116	0	3	97
fixed	5	10	12	1436809	4	3	3	1	0	1066	1	4	0	152	117	0	3	98
random	6	1	1	1540141	6	1	1	1	0	1081	1	4	0	168	1	0	0	100
random	6	1	2	1541691	4	4	4	1	0	728	1	4	0	192	2	0	0	100
random	6	1	3	1542786	2	2	2	1	0	1321	1	4	0	176	3	0	0	100
random	6	1	4	1544571	3	3	3	1	0	494	1	4	0	184	4	0	0	100
random	6	1	5	1545648	5	2	2	1	0	920	1	4	0	176	5	0	0	100
random	6	1	6	1547117	1	4	4	1	0	690	1	4	0	192	6	0	0	100
random	6	1	7	1548254	6	1	1	2	0	1106	2	4	0	168	7	0	0	100
random	6	1	8	1550400	2	3	3	1	0	1399	1	4	0	184	8	0	0	100
random	6	1	9	1552546	4	2	2	2	0	908	2	4	0	176	9	0	0	100
random	6	1	10	1554287	1	1	1	1	0	1066	1	4	0	168	10	0	0	100
random	6	1	11	1555922	5	4	4	1	0	685	1	4	0	192	11	0	0	100
random	6	1	12	1557206	3	3	3	1	0	871	1	4	0	184	12	0	0	100
random	6	1	13	1559039	5	2	2	1	0	865	1	4	0	176	13	0	0	100
random	6	1	14	1560608	1	4	4	1	0	934	1	4	0	192	14	0	0	100
random	6	1	15	1561956	3	1	1	1	0	1006	1	4	0	168	15	0	0	100
random	6	1	16	1563359	4	3	3	1	0	810	1	4	0	184	16	0	0	100
random	6	1	17	1564764	6	4	4	1	0	743	1	4	0	192	17	0	0	100
random	6	1	18	1565859	2	1	1	1	0	1080	1	4	0	168	18	0	0	100
random	6	1	19	1567504	5	3	3	1	0	851	1	4	0	184	19	0	0	100
random	6	1	20	1568659	2	2	2	2	0	882	2	4	0	176	20	0	0	100
random	6	1	21	1570140	3	3	3	2	0	1579	2	4	0	184	21	0	0	100
random	6	1	22	1572700	6	1	1	1	0	1023	1	4	0	168	22	0	0	100
random	6	1	23	1574515	4	2	2	1	0	769	1	4	0	176	23	0	0	100
random	6	1	24	1575927	1	4	4	1	0	718	1	4	0	192	24	0	0	100
random	6	1	25	1577819	4	3	3	1	0	1013	1	4	0	184	25	0	0	100
random	6	1	26	1579744	2	1	1	2	0	1164	2	4	0	168	26	0	0	100
random	6	1	27	1581557	5	2	2	1	0	791	1	4	0	176	27	0	0	100
random	6	1	28	1583108	6	4	4	1	0	958	1	4	0	192	28	0	0	100
random	6	1	29	1584399	1	3	3	1	0	887	1	4	0	184	29	0	0	100
random	6	1	30	1585710	5	2	2	1	0	975	1	4	0	176	30	0	0	100
random	6	1	31	1587318	2	1	1	1	0	883	1	4	0	168	31	0	0	100
random	6	1	32	1588972	3	3	3	1	0	757	1	4	0	184	32	0	0	100
random	6	1	33	1590275	6	4	4	1	0	758	1	4	0	192	33	0	0	100
random	6	1	34	1591626	4	2	2	1	0	709	1	4	0	176	34	0	0	100
random	6	1	35	1593005	3	4	4	1	0	770	1	4	0	192	35	0	0	100
random	6	1	36	1594638	1	1	1	2	0	861	2	4	0	168	36	0	0	100
random	6	1	37	1596548	3	4	4	1	0	708	1	4	0	192	37	0	0	100
random	6	1	38	1598161	5	3	3	1	0	936	1	4	0	184	38	0	0	100
random	6	1	39	1599765	6	1	1	2	0	1180	2	4	0	168	39	0	0	100
random	6	1	40	1601834	1	2	2	2	0	908	2	4	0	176	40	0	0	100
random	6	1	41	1603376	2	3	3	1	0	643	1	4	0	184	41	0	0	100
random	6	1	42	1604663	4	4	4	1	0	781	1	4	0	192	42	0	0	100
random	6	1	43	1606403	1	2	2	1	0	778	1	4	0	176	43	0	0	100
random	6	1	44	1607931	6	3	3	1	0	706	1	4	0	184	44	0	0	100
random	6	1	45	1609318	3	1	1	1	0	927	1	4	0	168	45	0	0	100
random	6	1	46	1611009	4	4	4	1	0	560	1	4	0	192	46	0	0	100
random	6	1	47	1612418	2	2	2	1	0	804	1	4	0	176	47	0	0	100
random	6	1	48	1613929	5	1	1	2	0	956	2	4	0	168	48	0	0	100
random	6	1	49	1615712	2	3	3	1	0	800	1	4	0	184	49	0	0	100
random	6	1	50	1616847	3	1	1	2	0	1192	2	4	0	168	50	0	0	100
random	6	1	51	1618814	1	4	4	1	0	837	1	4	0	192	51	0	0	100
random	6	1	52	1620105	5	3	3	1	0	782	1	4	0	184	52	0	0	100
random	6	1	53	1621244	3	2	2	1	0	654	1	4	0	176	53	0	0	100
random	6	1	54	1622428	6	4	4	1	0	668	1	4	0	192	54	0	0	100
random	6	1	55	1623671	4	2	2	2	0	887	2	4	0	176	55	0	0	100
random	6	1	56	1625505	1	1	1	2	0	946	2	4	0	168	56	0	0	100
random	6	1	57	1626991	5	4	4	1	0	827	1	4	0	192	57	0	0	100
random	6	1	58	1628488	2	1	1	2	0	1148	2	4	0	168	58	0	0	100
random	6	1	59	1630131	6	2	2	1	0	966	1	4	0	176	59	0	0	100
random	6	1	60	1632006	4	3	3	1	0	766	1	4	0	184	60	0	0	100
random	6	1	61	1634057	1	2	2	1	0	1167	1	4	0	176	61	0	0	100
random	6	1	62	1635658	6	4	4	1	0	764	1	4	0	192	62	0	0	100
random	6	1	63	1636881	4	1	0	1	2	0	3	4	0	168	62	0	1	98
random	6	1	64	1639803	2	2	2	1	0	852	1	4	0	176	63	0	1	98
random	6	1	65	1641651	4	3	3	1	0	1062	1	4	0	184	64	0	1	98
random	6	1	66	1643716	3	1	0	1	2	0	3	4	0	168	64	0	2	97
random	6	1	67	1646967	1	3	3	1	0	901	1	4	0	184	65	0	2	97
random	6	1	68	1648740	5	4	4	1	0	714	1	4	0	192	66	0	2	97
random	6	1	69	1649757	2	2	2	1	0	871	1	4	0	176	67	0	2	97
random	6	1	70	1651250	3	1	1	2	0	1047	2	4	0	168	68	0	2	97
random	6	1	71	1652725	5	4	4	1	0	753	1	4	0	192	69	0	2	97
random	6	1	72	1654261	6	3	3	1	0	928	1	4	0	184	70	0	2	97
random	6	1	73	1656028	2	1	1	2	0	1069	2	4	0	168	71	0	2	97
random	6	1	74	1657456	5	3	3	1	0	841	1	4	0	184	72	0	2	97
random	6	1	75	1659138	1	4	4	1	0	1249	1	4	0	192	73	0	2	97
random	6	1	76	1661183	6	2	2	1	0	779	1	4	0	176	74	0	2	97
random	6	1	77	1662767	2	1	1	3	0	1239	2	4	0	168	75	0	2	97
random	6	1	78	1664401	4	4	4	1	0	1570	1	4	0	192	76	0	2	97
random	6	1	79	1666531	3	2	2	1	0	776	1	4	0	176	77	0	2	97
random	6	1	80	1667774	4	3	3	1	0	835	1	4	0	184	78	0	2	98
random	6	1	81	1669255	1	4	4	1	0	789	1	4	0	192	79	0	2	98
random	6	1	82	1670882	5	1	0	1	2	0	3	4	0	168	79	0	3	96
random	6	1	83	1674384	3	2	2	1	0	1108	1	4	0	176	80	0	3	96
random	6	1	84	1676223	6	3	3	1	0	934	1	4	0	184	81	0	3	96
random	6	1	85	1677814	3	2	2	1	0	1234	1	4	0	176	82	0	3	96
random	6	1	86	1679375	1	3	3	1	0	640	1	4	0	184	83	0	3	97
random	6	1	87	1680424	4	4	4	1	0	883	1	4	0	192	84	0	3	97
random	6	1	88	1682164	2	1	1	1	0	650	1	4	0	168	85	0	3	97
random	6	1	89	1683745	6	4	4	1	0	1007	1	4	0	192	86	0	3	97
random	6	1	90	1685246	3	3	3	2	0	936	2	4	0	184	87	0	3	97
random	6	1	91	1686742	5	4	4	1	0	960	1	4	0	192	88	0	3	97
random	6	1	92	1688308	1	2	2	1	0	1101	1	4	0	176	89	0	3	97
random	6	1	93	1690344	5	1	1	2	0	1383	2	4	0	168	90	0	3	97
random	6	1	94	1692232	4	3	3	2	0	1511	2	4	0	184	91	0	3	97
random	6	1	95	1694399	6	1	1	3	0	1116	2	4	0	168	92	0	3	97
random	6	1	96	1696365	2	2	2	1	0	864	1	4	0	176	93	0	3	97
random	6	1	97	1697813	4	3	3	1	0	1235	1	4	0	184	94	0	3	97
random	6	1	98	1699480	3	2	2	1	0	1597	1	4	0	176	95	0	3	97
random	6	1	99	1701900	6	3	3	1	0	1270	1	4	0	184	96	0	3	97
random	6	1	100	1703839	1	4	4	1	0	652	1	4	0	192	97	0	3	97
random	6	1	101	1705502	4	1	1	2	0	1229	2	4	0	168	98	0	3	97
random	6	1	102	1707164	5	2	2	1	0	807	1	4	0	176	99	0	3	97
random	6	1	103	1708680	2	4	4	1	0	711	1	4	0	192	100	0	3	97
random	6	1	104	1709901	3	1	0	1	2	0	3	4	0	168	100	0	4	96
random	6	1	105	1712921	1	3	3	2	0	1395	2	4	0	184	101	0	4	96
random	6	1	106	1715105	2	2	2	1	0	1263	1	4	0	176	102	0	4	96
random	6	1	107	1716994	5	4	4	1	0	782	1	4	0	192	103	0	4	96
random	6	1	108	1718447	6	1	1	1	0	977	1	4	0	168	104	0	4	96
random	6	1	109	1720703	5	4	4	1	0	737	1	4	0	192	105	0	4	96
random	6	1	110	1722254	6	3	3	1	0	967	1	4	0	184	106	0	4	96
random	6	1	111	1723590	2	2	2	1	0	928	1	4	0	176	107	0	4	96
random	6	1	112	1725399	3	1	0	1	2	0	3	4	0	168	107	0	5	96
random	6	1	113	1728517	1	2	2	1	0	887	1	4	0	176	108	0	5	96
random	6	1	114	1730089	2	3	3	1	0	716	1	4	0	184	109	0	5	96
random	6	1	115	1731764	3	1	0	1	2	0	3	4	0	168	109	0	6	95
random	6	1	116	1734789	4	4	4	1	0	629	1	4	0	192	110	0	6	95
random	6	1	117	1736080	6	1	1	2	0	1294	2	4	0	168	111	0	6	95
random	6	1	118	1738006	5	3	3	2	0	1013	2	4	0	184	112	0	6	95
random	6	1	119	1739437	1	4	4	1	0	840	1	4	0	192	113	0	6	95
random	6	1	120	1740859	4	2	2	1	0	708	1	4	0	176	114	0	6	95
fixed	7	1	1	1742554	4	1	1	2	0	1180	2	4	0	200	1	0	0	100
fixed	7	1	2	1744482	1	2	2	1	0	874	1	4	0	208	2	0	0	100
fixed	7	1	3	1745698	6	4	4	1	0	735	1	4	0	224	3	0	0	100
fixed	7	1	4	1746893	2	1	0	1	2	0	3	4	0	200	3	0	1	75
fixed	7	1	5	1749743	5	3	3	2	0	1803	2	4	0	216	4	0	1	80
fixed	7	1	6	1751994	6	4	4	1	0	812	1	4	0	224	5	0	1	83
fixed	7	1	7	1753635	3	1	1	2	0	1623	2	4	0	200	6	0	1	86
fixed	7	1	8	1756266	2	3	3	1	0	1023	1	4	0	216	7	0	1	88
fixed	7	1	9	1758118	3	2	2	1	0	705	1	4	0	208	8	0	1	89
fixed	7	1	10	1759487	1	4	4	1	0	727	1	4	0	224	9	0	1	90
fixed	7	1	11	1760570	5	2	2	1	0	793	1	4	0	208	10	0	1	91
fixed	7	1	12	1761886	4	3	3	1	0	585	1	4	0	216	11	0	1	92
fixed	7	2	1	1763642	4	1	0	1	2	0	3	4	0	200	0	0	1	0
fixed	7	2	2	1767084	1	2	2	1	0	861	1	4	0	208	1	0	1	7
fixed	7	2	3	1768524	6	4	4	1	0	704	1	4	0	224	2	0	1	13
fixed	7	2	4	1769802	2	1	1	1	0	922	1	4	0	200	3	0	1	19
fixed	7	2	5	1771662	5	3	3	1	0	763	1	4	0	216	4	0	1	24
fixed	7	2	6	1773433	6	4	4	1	0	720	1	4	0	224	5	0	1	28
fixed	7	2	7	1774912	3	1	1	2	0	986	2	4	0	200	6	0	1	32
fixed	7	2	8	1776228	2	3	3	1	0	1058	1	4	0	216	7	0	1	35
fixed	7	2	9	1778072	3	2	2	1	0	692	1	4	0	208	8	0	1	38
fixed	7	2	10	1779482	1	4	4	1	0	760	1	4	0	224	9	0	1	41
fixed	7	2	11	1780845	5	2	2	1	0	1015	1	4	0	208	10	0	1	43
fixed	7	2	12	1782807	4	3	3	1	0	683	1	4	0	216	11	0	1	46
fixed	7	3	1	1784259	4	1	1	1	0	949	1	4	0	200	1	0	0	4
fixed	7	3	2	1785802	1	2	2	1	0	900	1	4	0	208	2	0	0	8
fixed	7	3	3	1787159	6	4	4	1	0	699	1	4	0	224	3	0	0	11
fixed	7	3	4	1788350	2	1	1	2	0	1040	2	4	0	200	4	0	0	14
fixed	7	3	5	1790041	5	3	3	1	0	761	1	4	0	216	5	0	0	17
fixed	7	3	6	1791296	6	4	4	1	0	708	1	4	0	224	6	0	0	20
fixed	7	3	7	1792731	3	1	1	1	0	783	1	4	0	200	7	0	0	23
fixed	7	3	8	1794093	2	3	3	1	0	845	1	4	0	216	8	0	0	25
fixed	7	3	9	1795276	3	2	2	1	0	731	1	4	0	208	9	0	0	27
fixed	7	3	10	1796824	1	4	4	1	0	625	1	4	0	224	10	0	0	29
fixed	7	3	11	1798041	5	2	2	1	0	790	1	4	0	208	11	0	0	31
fixed	7	3	12	1799317	4	3	3	1	0	640	1	4	0	216	12	0	0	33
fixed	7	4	1	1800816	4	1	1	1	0	896	1	4	0	200	1	0	0	3
fixed	7	4	2	1802668	1	2	2	1	0	770	1	4	0	208	2	0	0	5
fixed	7	4	3	1803773	6	4	4	1	0	683	1	4	0	224	3	0	0	8
fixed	7	4	4	1805111	2	1	1	2	0	1090	2	4	0	200	4	0	0	10
fixed	7	4	5	1806842	5	3	3	1	0	977	1	4	0	216	5	0	0	12
fixed	7	4	6	1808136	6	4	4	1	0	1050	1	4	0	224	6	0	0	14
fixed	7	4	7	1810206	3	1	1	1	0	1090	1	4	0	200	7	0	0	16
fixed	7	4	8	1812168	2	3	3	1	0	1088	1	4	0	216	8	0	0	18
fixed	7	4	9	1813606	3	2	2	1	0	739	1	4	0	208	9	0	0	20
fixed	7	4	10	1815117	1	4	4	1	0	626	1	4	0	224	10	0	0	22
fixed	7	4	11	1816051	5	2	2	1	0	747	1	4	0	208	11	0	0	23
fixed	7	4	12	1817400	4	3	3	1	0	1394	1	4	0	216	12	0	0	25
fixed	7	5	1	1819579	4	1	1	2	0	901	2	4	0	200	1	0	0	2
fixed	7	5	2	1821529	1	2	2	1	0	763	1	4	0	208	2	0	0	4
fixed	7	5	3	1822898	6	4	4	1	0	841	1	4	0	224	3	0	0	6
fixed	7	5	4	1824209	2	1	1	2	0	1649	2	4	0	200	4	0	0	8
fixed	7	5	5	1826787	5	3	3	1	0	796	1	4	0	216	5	0	0	9
fixed	7	5	6	1828029	6	4	4	1	0	1008	1	4	0	224	6	0	0	11
fixed	7	5	7	1829610	3	1	1	1	0	701	1	4	0	200	7	0	0	13
fixed	7	5	8	1831229	2	3	3	1	0	760	1	4	0	216	8	0	0	14
fixed	7	5	9	1832393	3	2	2	1	0	655	1	4	0	208	9	0	0	16
fixed	7	5	10	1834074	1	4	4	1	0	688	1	4	0	224	10	0	0	17
fixed	7	5	11	1835265	5	2	2	1	0	1069	1	4	0	208	11	0	0	19
fixed	7	5	12	1837108	4	3	3	1	0	495	1	4	0	216	12	0	0	20
fixed	7	6	1	1838609	4	1	1	2	0	1063	2	4	0	200	1	0	0	2
fixed	7	6	2	1840313	1	2	2	1	0	959	1	4	0	208	2	0	0	3
fixed	7	6	3	1841852	6	4	4	1	0	894	1	4	0	224	3	0	0	5
fixed	7	6	4	1843551	2	1	1	2	0	854	2	4	0	200	4	0	0	6
fixed	7	6	5	1844992	5	3	3	2	0	881	2	4	0	216	5	0	0	8
fixed	7	6	6	1846843	6	4	4	1	0	747	1	4	0	224	6	0	0	9
fixed	7	6	7	1848278	3	1	1	1	0	1118	1	4	0	200	7	0	0	10
fixed	7	6	8	1849866	2	3	3	1	0	899	1	4	0	216	8	0	0	12
fixed	7	6	9	1851646	3	2	2	1	0	711	1	4	0	208	9	0	0	13
fixed	7	6	10	1853199	1	4	4	1	0	678	1	4	0	224	10	0	0	14
fixed	7	6	11	1854516	5	2	2	1	0	718	1	4	0	208	11	0	0	15
fixed	7	6	12	1855839	4	3	3	1	0	670	1	4	0	216	12	0	0	17
fixed	7	7	1	1857422	4	1	1	1	0	979	1	4	0	200	1	0	0	1
fixed	7	7	2	1859203	1	2	2	1	0	1000	1	4	0	208	2	0	0	3
fixed	7	7	3	1860740	6	4	4	1	0	790	1	4	0	224	3	0	0	4
fixed	7	7	4	1862193	2	1	1	2	0	953	2	4	0	200	4	0	0	5
fixed	7	7	5	1863439	5	3	3	1	0	852	1	4	0	216	5	0	0	6
fixed	7	7	6	1864925	6	4	4	1	0	773	1	4	0	224	6	0	0	8
fixed	7	7	7	1866721	3	1	1	2	0	745	2	4	0	200	7	0	0	9
fixed	7	7	8	1868460	2	3	3	1	0	824	1	4	0	216	8	0	0	10
fixed	7	7	9	1870102	3	2	2	1	0	849	1	4	0	208	9	0	0	11
fixed	7	7	10	1871427	1	4	4	1	0	762	1	4	0	224	10	0	0	12
fixed	7	7	11	1873192	5	2	2	1	0	631	1	4	0	208	11	0	0	13
fixed	7	7	12	1874851	4	3	3	1	0	1032	1	4	0	216	12	0	0	14
fixed	7	8	1	1877053	4	1	1	1	0	1123	1	4	0	200	1	0	0	1
fixed	7	8	2	1879201	1	2	2	1	0	888	1	4	0	208	2	0	0	2
fixed	7	8	3	1880826	6	4	4	1	0	739	1	4	0	224	3	0	0	3
fixed	7	8	4	1882287	2	1	1	2	0	966	2	4	0	200	4	0	0	5
fixed	7	8	5	1884000	5	3	3	1	0	821	1	4	0	216	5	0	0	6
fixed	7	8	6	1885678	6	4	4	1	0	726	1	4	0	224	6	0	0	7
fixed	7	8	7	1887071	3	1	1	3	0	2027	2	4	0	200	7	0	0	8
fixed	7	8	8	1889605	2	3	3	1	0	904	1	4	0	216	8	0	0	9
fixed	7	8	9	1891306	3	2	2	1	0	623	1	4	0	208	9	0	0	10
fixed	7	8	10	1892576	1	4	4	1	0	682	1	4	0	224	10	0	0	11
fixed	7	8	11	1894226	5	2	2	1	0	764	1	4	0	208	11	0	0	12
fixed	7	8	12	1895545	4	3	3	1	0	676	1	4	0	216	12	0	0	13
fixed	7	9	1	1897236	4	1	1	2	0	1052	2	4	0	200	1	0	0	1
fixed	7	9	2	1898670	1	2	0	0	2	0	3	4	0	208	1	0	1	1
fixed	7	9	3	1901855	6	4	4	1	0	985	1	4	0	224	2	0	1	2
fixed	7	9	4	1903550	2	1	1	2	0	985	2	4	0	200	3	0	1	3
fixed	7	9	5	1905194	5	3	3	1	0	1059	1	4	0	216	4	0	1	4
fixed	7	9	6	1906831	6	4	4	1	0	958	1	4	0	224	5	0	1	5
fixed	7	9	7	1908251	3	1	1	2	0	1266	2	4	0	200	6	0	1	6
fixed	7	9	8	1910176	2	3	3	1	0	864	1	4	0	216	7	0	1	7
fixed	7	9	9	1911921	3	2	2	1	0	934	1	4	0	208	8	0	1	8
fixed	7	9	10	1913489	1	4	4	1	0	700	1	4	0	224	9	0	1	8
fixed	7	9	11	1914716	5	2	2	1	0	928	1	4	0	208	10	0	1	9
fixed	7	9	12	1916618	4	3	3	1	0	919	1	4	0	216	11	0	1	10
fixed	7	10	1	1918455	4	1	1	2	0	993	2	4	0	200	1	0	0	1
fixed	7	10	2	1920342	1	2	2	1	0	906	1	4	0	208	2	0	0	2
fixed	7	10	3	1922031	6	4	4	1	0	754	1	4	0	224	3	0	0	3
fixed	7	10	4	1923408	2	1	1	1	0	880	1	4	0	200	4	0	0	4
fixed	7	10	5	1924585	5	3	3	1	0	1142	1	4	0	216	5	0	0	4
fixed	7	10	6	1926297	6	4	4	1	0	950	1	4	0	224	6	0	0	5
fixed	7	10	7	1927923	3	1	1	2	0	1009	2	4	0	200	7	0	0	6
fixed	7	10	8	1929311	2	3	3	1	0	934	1	4	0	216	8	0	0	7
fixed	7	10	9	1931134	3	2	2	1	0	632	1	4	0	208	9	0	0	8
fixed	7	10	10	1932504	1	4	4	1	0	694	1	4	0	224	10	0	0	8
fixed	7	10	11	1933842	5	2	2	1	0	694	1	4	0	208	11	0	0	9
fixed	7	10	12	1935520	4	3	3	1	0	591	1	4	0	216	12	0	0	10
