type	block	sequ.	trial	time	Pos.	Color	Button	NumRsp	Resp_1	RT_1	R_Code	Resp_2	RT_2	Trigg.	n_hit	n_inc	n_miss	score_%

random	1	1	1	66505	6	1	1	1	0	979	1	4	0	8	1	0	0	100
random	1	1	2	68174	4	4	4	1	0	765	1	4	0	32	2	0	0	100
random	1	1	3	69895	2	2	2	1	0	1076	1	4	0	16	3	0	0	100
random	1	1	4	71931	3	3	3	1	0	670	1	4	0	24	4	0	0	100
random	1	1	5	73334	5	2	2	1	0	971	1	4	0	16	5	0	0	100
random	1	1	6	74943	1	4	4	1	0	790	1	4	0	32	6	0	0	100
random	1	1	7	76644	6	1	1	1	0	799	1	4	0	8	7	0	0	100
random	1	1	8	78430	2	3	3	1	0	1123	1	4	0	24	8	0	0	100
random	1	1	9	80410	4	2	2	1	0	751	1	4	0	16	9	0	0	100
random	1	1	10	81499	1	1	1	1	0	945	1	4	0	8	10	0	0	100
random	1	1	11	83423	5	4	4	1	0	671	1	4	0	32	11	0	0	100
random	1	1	12	85087	3	3	3	1	0	1032	1	4	0	24	12	0	0	100
random	1	1	13	87007	5	2	2	1	0	911	1	4	0	16	13	0	0	100
random	1	1	14	88789	1	4	4	1	0	716	1	4	0	32	14	0	0	100
random	1	1	15	90040	3	1	1	1	0	735	1	4	0	8	15	0	0	100
random	1	1	16	91694	4	3	3	1	0	969	1	4	0	24	16	0	0	100
random	1	1	17	93302	6	4	4	1	0	733	1	4	0	32	17	0	0	100
random	1	1	18	94515	2	1	1	1	0	881	1	4	0	8	18	0	0	100
random	1	1	19	96237	5	3	3	1	0	968	1	4	0	24	19	0	0	100
random	1	1	20	98131	2	2	2	1	0	577	1	4	0	16	20	0	0	100
random	1	1	21	99289	3	3	3	1	0	695	1	4	0	24	21	0	0	100
random	1	1	22	100457	6	1	1	1	0	853	1	4	0	8	22	0	0	100
random	1	1	23	102341	4	2	2	1	0	894	1	4	0	16	23	0	0	100
random	1	1	24	103881	1	4	4	1	0	684	1	4	0	32	24	0	0	100
random	1	1	25	105369	4	3	3	3	0	1213	2	4	0	24	25	0	0	100
random	1	1	26	107232	2	1	1	1	0	1039	1	4	0	8	26	0	0	100
random	1	1	27	108806	5	2	2	1	0	892	1	4	0	16	27	0	0	100
random	1	1	28	110573	6	4	4	1	0	649	1	4	0	32	28	0	0	100
random	1	1	29	111545	1	3	3	1	0	888	1	4	0	24	29	0	0	100
random	1	1	30	113378	5	2	2	1	0	762	1	4	0	16	30	0	0	100
random	1	1	31	114779	2	1	1	1	0	823	1	4	0	8	31	0	0	100
random	1	1	32	116518	3	3	3	1	0	805	1	4	0	24	32	0	0	100
random	1	1	33	118050	6	4	4	1	0	644	1	4	0	32	33	0	0	100
random	1	1	34	119517	4	2	2	1	0	655	1	4	0	16	34	0	0	100
random	1	1	35	120459	3	4	4	1	0	854	1	4	0	32	35	0	0	100
random	1	1	36	121964	1	1	0	1	2	0	3	4	0	8	35	0	1	97
random	1	1	37	125569	3	4	4	1	0	838	1	4	0	32	36	0	1	97
random	1	1	38	126859	5	3	3	1	0	815	1	4	0	24	37	0	1	97
random	1	1	39	128533	6	1	1	1	0	873	1	4	0	8	38	0	1	97
random	1	1	40	130200	1	2	2	1	0	826	1	4	0	16	39	0	1	98
random	1	1	41	131977	2	3	3	1	0	815	1	4	0	24	40	0	1	98
random	1	1	42	133171	4	4	4	1	0	740	1	4	0	32	41	0	1	98
random	1	1	43	134911	1	2	2	1	0	1098	1	4	0	16	42	0	1	98
random	1	1	44	136975	6	3	3	1	0	651	1	4	0	24	43	0	1	98
random	1	1	45	138308	3	1	1	1	0	731	1	4	0	8	44	0	1	98
random	1	1	46	139858	4	4	4	1	0	713	1	4	0	32	45	0	1	98
random	1	1	47	141547	2	2	2	1	0	769	1	4	0	16	46	0	1	98
random	1	1	48	143175	5	1	1	2	0	901	2	4	0	8	47	0	1	98
random	1	1	49	145351	2	3	3	1	0	848	1	4	0	24	48	0	1	98
random	1	1	50	146755	3	1	1	2	0	997	2	4	0	8	49	0	1	98
random	1	1	51	148337	1	4	4	1	0	778	1	4	0	32	50	0	1	98
random	1	1	52	150120	5	3	3	1	0	854	1	4	0	24	51	0	1	98
random	1	1	53	151749	3	2	2	1	0	625	1	4	0	16	52	0	1	98
random	1	1	54	153403	6	4	4	1	0	715	1	4	0	32	53	0	1	98
random	1	1	55	154982	4	2	2	1	0	936	1	4	0	16	54	0	1	98
random	1	1	56	156898	1	1	0	1	2	0	3	4	0	8	54	0	2	96
random	1	1	57	160393	5	4	4	1	0	739	1	4	0	32	55	0	2	96
random	1	1	58	161918	2	1	1	2	0	947	2	4	0	8	56	0	2	97
random	1	1	59	163236	6	2	2	1	0	867	1	4	0	16	57	0	2	97
random	1	1	60	164705	4	3	3	1	0	772	1	4	0	24	58	0	2	97
random	1	1	61	166553	1	2	2	1	0	886	1	4	0	16	59	0	2	97
random	1	1	62	168390	6	4	4	1	0	600	1	4	0	32	60	0	2	97
random	1	1	63	169590	4	1	1	2	0	1302	2	4	0	8	61	0	2	97
random	1	1	64	171348	2	2	2	1	0	779	1	4	0	16	62	0	2	97
random	1	1	65	172444	4	3	3	1	0	837	1	4	0	24	63	0	2	97
random	1	1	66	173810	3	1	1	1	0	971	1	4	0	8	64	0	2	97
random	1	1	67	175821	1	3	3	1	0	838	1	4	0	24	65	0	2	97
random	1	1	68	177493	5	4	4	1	0	775	1	4	0	32	66	0	2	97
random	1	1	69	178739	2	2	2	1	0	786	1	4	0	16	67	0	2	97
random	1	1	70	180052	3	1	1	1	0	970	1	4	0	8	68	0	2	97
random	1	1	71	181794	5	4	4	1	0	785	1	4	0	32	69	0	2	97
random	1	1	72	183108	6	3	3	1	0	833	1	4	0	24	70	0	2	97
random	1	1	73	185065	2	1	1	1	0	934	1	4	0	8	71	0	2	97
random	1	1	74	186695	5	3	3	1	0	785	1	4	0	24	72	0	2	97
random	1	1	75	187876	1	4	4	1	0	791	1	4	0	32	73	0	2	97
random	1	1	76	189657	6	2	2	1	0	651	1	4	0	16	74	0	2	97
random	1	1	77	190766	2	1	1	1	0	869	1	4	0	8	75	0	2	97
random	1	1	78	192132	4	4	4	1	0	770	1	4	0	32	76	0	2	97
random	1	1	79	193337	3	2	2	1	0	872	1	4	0	16	77	0	2	97
random	1	1	80	194723	4	3	3	1	0	709	1	4	0	24	78	0	2	98
random	1	1	81	196297	1	4	4	1	0	642	1	4	0	32	79	0	2	98
random	1	1	82	197574	5	1	1	2	0	997	2	4	0	8	80	0	2	98
random	1	1	83	199147	3	2	2	1	0	833	1	4	0	16	81	0	2	98
random	1	1	84	200357	6	3	3	1	0	702	1	4	0	24	82	0	2	98
random	1	1	85	202141	3	2	2	1	0	947	1	4	0	16	83	0	2	98
random	1	1	86	204008	1	3	3	1	0	700	1	4	0	24	84	0	2	98
random	1	1	87	205603	4	4	4	1	0	944	1	4	0	32	85	0	2	98
random	1	1	88	207114	2	1	1	1	0	688	1	4	0	8	86	0	2	98
random	1	1	89	208265	6	4	4	1	0	632	1	4	0	32	87	0	2	98
random	1	1	90	209307	3	3	3	1	0	923	1	4	0	24	88	0	2	98
random	1	1	91	210657	5	4	4	1	0	834	1	4	0	32	89	0	2	98
random	1	1	92	212442	1	2	2	1	0	591	1	4	0	16	90	0	2	98
random	1	1	93	214052	5	1	1	1	0	874	1	4	0	8	91	0	2	98
random	1	1	94	215301	4	3	3	1	0	846	1	4	0	24	92	0	2	98
random	1	1	95	217040	6	1	1	1	0	892	1	4	0	8	93	0	2	98
random	1	1	96	218327	2	2	2	1	0	805	1	4	0	16	94	0	2	98
random	1	1	97	220352	4	3	3	2	0	847	2	4	0	24	95	0	2	98
random	1	1	98	222191	3	2	2	1	0	745	1	4	0	16	96	0	2	98
random	1	1	99	223611	6	3	3	1	0	973	1	4	0	24	97	0	2	98
random	1	1	100	225460	1	4	4	1	0	663	1	4	0	32	98	0	2	98
random	1	1	101	226862	4	1	1	2	0	964	2	4	0	8	99	0	2	98
random	1	1	102	228719	5	2	2	1	0	853	1	4	0	16	100	0	2	98
random	1	1	103	230406	2	4	4	1	0	582	1	4	0	32	101	0	2	98
random	1	1	104	231366	3	1	1	2	0	1085	2	4	0	8	102	0	2	98
random	1	1	105	233422	1	3	3	1	0	726	1	4	0	24	103	0	2	98
random	1	1	106	235028	2	2	2	1	0	994	1	4	0	16	104	0	2	98
random	1	1	107	236923	5	4	4	1	0	706	1	4	0	32	105	0	2	98
random	1	1	108	238057	6	1	0	1	2	0	3	4	0	8	105	0	3	97
random	1	1	109	241704	5	4	4	1	0	719	1	4	0	32	106	0	3	97
random	1	1	110	243271	6	3	3	1	0	813	1	4	0	24	107	0	3	97
random	1	1	111	244520	2	2	2	1	0	712	1	4	0	16	108	0	3	97
random	1	1	112	246058	3	1	1	1	0	903	1	4	0	8	109	0	3	97
random	1	1	113	247342	1	2	2	1	0	752	1	4	0	16	110	0	3	97
random	1	1	114	248720	2	3	3	1	0	774	1	4	0	24	111	0	3	97
random	1	1	115	249873	3	1	1	2	0	1213	2	4	0	8	112	0	3	97
random	1	1	116	251774	4	4	4	1	0	685	1	4	0	32	113	0	3	97
random	1	1	117	253041	6	1	1	2	0	775	2	4	0	8	114	0	3	97
random	1	1	118	254524	5	3	3	1	0	824	1	4	0	24	115	0	3	97
random	1	1	119	256250	1	4	4	1	0	583	1	4	0	32	116	0	3	97
random	1	1	120	257628	4	2	2	1	0	781	1	4	0	16	117	0	3	98
fixed	2	1	1	259328	4	1	1	2	0	980	2	4	0	40	1	0	0	100
fixed	2	1	2	261023	1	2	2	1	0	725	1	4	0	48	2	0	0	100
fixed	2	1	3	262114	6	4	4	1	0	679	1	4	0	64	3	0	0	100
fixed	2	1	4	263392	2	1	1	2	0	712	2	4	0	40	4	0	0	100
fixed	2	1	5	264659	5	3	3	1	0	771	1	4	0	56	5	0	0	100
fixed	2	1	6	265863	6	4	4	2	0	840	2	4	0	64	6	0	0	100
fixed	2	1	7	267635	3	1	1	2	0	709	2	4	0	40	7	0	0	100
fixed	2	1	8	269324	2	3	3	1	0	805	1	4	0	56	8	0	0	100
fixed	2	1	9	270455	3	2	2	1	0	806	1	4	0	48	9	0	0	100
fixed	2	1	10	272100	1	4	4	2	0	2400	2	4	0	64	10	0	0	100
fixed	2	1	11	274978	5	2	2	1	0	870	1	4	0	48	11	0	0	100
fixed	2	1	12	276391	4	3	3	2	0	858	2	4	0	56	12	0	0	100
fixed	2	2	1	278194	4	1	1	3	0	1877	2	4	0	40	13	0	0	100
fixed	2	2	2	280790	1	2	2	1	0	968	1	4	0	48	14	0	0	100
fixed	2	2	3	282604	6	4	4	1	0	635	1	4	0	64	15	0	0	100
fixed	2	2	4	283958	2	1	1	2	0	977	2	4	0	40	16	0	0	100
fixed	2	2	5	285643	5	3	3	1	0	794	1	4	0	56	17	0	0	100
fixed	2	2	6	286979	6	4	4	1	0	721	1	4	0	64	18	0	0	100
fixed	2	2	7	288123	3	1	1	1	0	705	1	4	0	40	19	0	0	100
fixed	2	2	8	289122	2	3	3	1	0	871	1	4	0	56	20	0	0	100
fixed	2	2	9	290935	3	2	2	1	0	826	1	4	0	48	21	0	0	100
fixed	2	2	10	292717	1	4	4	1	0	566	1	4	0	64	22	0	0	100
fixed	2	2	11	293933	5	2	2	1	0	603	1	4	0	48	23	0	0	100
fixed	2	2	12	294962	4	3	3	1	0	816	1	4	0	56	24	0	0	100
fixed	2	3	1	296505	4	1	1	2	0	1126	2	4	0	40	25	0	0	100
fixed	2	3	2	298221	1	2	2	1	0	886	1	4	0	48	26	0	0	100
fixed	2	3	3	299805	6	4	4	1	0	642	1	4	0	64	27	0	0	100
fixed	2	3	4	300994	2	1	1	2	0	976	2	4	0	40	28	0	0	100
fixed	2	3	5	302797	5	3	3	1	0	868	1	4	0	56	29	0	0	100
fixed	2	3	6	304572	6	4	4	1	0	816	1	4	0	64	30	0	0	100
fixed	2	3	7	305802	3	1	1	1	0	996	1	4	0	40	31	0	0	100
fixed	2	3	8	307387	2	3	0	1	2	0	3	4	0	56	31	0	1	97
fixed	2	3	9	310250	3	2	2	1	0	1080	1	4	0	48	32	0	1	97
fixed	2	3	10	312108	1	4	4	1	0	642	1	4	0	64	33	0	1	97
fixed	2	3	11	313085	5	2	2	1	0	1040	1	4	0	48	34	0	1	97
fixed	2	3	12	315081	4	3	3	1	0	892	1	4	0	56	35	0	1	97
fixed	2	4	1	317240	4	1	1	1	0	872	1	4	0	40	36	0	1	97
fixed	2	4	2	318409	1	2	2	1	0	926	1	4	0	48	37	0	1	97
fixed	2	4	3	320203	6	4	4	1	0	610	1	4	0	64	38	0	1	97
fixed	2	4	4	321549	2	1	1	1	0	793	1	4	0	40	39	0	1	98
fixed	2	4	5	322683	5	3	3	2	0	2274	2	4	0	56	40	0	1	98
fixed	2	4	6	325769	6	4	4	1	0	655	1	4	0	64	41	0	1	98
fixed	2	4	7	327178	3	1	1	2	0	754	2	4	0	40	42	0	1	98
fixed	2	4	8	328733	2	3	3	1	0	833	1	4	0	56	43	0	1	98
fixed	2	4	9	330516	3	2	2	1	0	1046	1	4	0	48	44	0	1	98
fixed	2	4	10	332281	1	4	4	1	0	691	1	4	0	64	45	0	1	98
fixed	2	4	11	333370	5	2	2	1	0	901	1	4	0	48	46	0	1	98
fixed	2	4	12	334780	4	3	3	1	0	728	1	4	0	56	47	0	1	98
fixed	2	5	1	336637	4	1	1	2	0	1002	2	4	0	40	48	0	1	98
fixed	2	5	2	338283	1	2	2	2	0	1197	2	4	0	48	49	0	1	98
fixed	2	5	3	340436	6	4	4	1	0	569	1	4	0	64	50	0	1	98
fixed	2	5	4	341441	2	1	1	1	0	1175	1	4	0	40	51	0	1	98
fixed	2	5	5	343324	5	3	3	1	0	759	1	4	0	56	52	0	1	98
fixed	2	5	6	344855	6	4	4	1	0	774	1	4	0	64	53	0	1	98
fixed	2	5	7	346528	3	1	1	2	0	1159	2	4	0	40	54	0	1	98
fixed	2	5	8	347994	2	3	3	1	0	793	1	4	0	56	55	0	1	98
fixed	2	5	9	349512	3	2	2	1	0	697	1	4	0	48	56	0	1	98
fixed	2	5	10	351156	1	4	4	1	0	619	1	4	0	64	57	0	1	98
fixed	2	5	11	352236	5	2	2	1	0	758	1	4	0	48	58	0	1	98
fixed	2	5	12	353715	4	3	3	1	0	679	1	4	0	56	59	0	1	98
fixed	2	6	1	355300	4	1	1	1	0	771	1	4	0	40	60	0	1	98
fixed	2	6	2	356620	1	2	2	1	0	884	1	4	0	48	61	0	1	98
fixed	2	6	3	358394	6	4	4	1	0	617	1	4	0	64	62	0	1	98
fixed	2	6	4	360016	2	1	1	1	0	996	1	4	0	40	63	0	1	98
fixed	2	6	5	361974	5	3	3	1	0	825	1	4	0	56	64	0	1	98
fixed	2	6	6	363135	6	4	4	1	0	816	1	4	0	64	65	0	1	98
fixed	2	6	7	364632	3	1	0	1	2	0	3	4	0	40	65	0	2	97
fixed	2	6	8	367966	2	3	3	2	0	875	2	4	0	56	66	0	2	97
fixed	2	6	9	369523	3	2	2	1	0	953	1	4	0	48	67	0	2	97
fixed	2	6	10	370950	1	4	4	1	0	693	1	4	0	64	68	0	2	97
fixed	2	6	11	372291	5	2	2	1	0	1132	1	4	0	48	69	0	2	97
fixed	2	6	12	373762	4	3	3	1	0	869	1	4	0	56	70	0	2	97
fixed	2	7	1	375315	4	1	1	2	0	868	2	4	0	40	71	0	2	97
fixed	2	7	2	376793	1	2	0	0	2	0	3	4	0	48	71	0	3	96
fixed	2	7	3	379907	6	4	4	1	0	713	1	4	0	64	72	0	3	96
fixed	2	7	4	381248	2	1	1	2	0	1096	2	4	0	40	73	0	3	96
fixed	2	7	5	383310	5	3	3	2	0	905	2	4	0	56	74	0	3	96
fixed	2	7	6	385246	6	4	4	1	0	687	1	4	0	64	75	0	3	96
fixed	2	7	7	386434	3	1	1	1	0	869	1	4	0	40	76	0	3	96
fixed	2	7	8	387941	2	3	3	1	0	981	1	4	0	56	77	0	3	96
fixed	2	7	9	389885	3	2	2	1	0	755	1	4	0	48	78	0	3	96
fixed	2	7	10	391128	1	4	4	1	0	726	1	4	0	64	79	0	3	96
fixed	2	7	11	392347	5	2	2	1	0	835	1	4	0	48	80	0	3	96
fixed	2	7	12	394067	4	3	3	1	0	618	1	4	0	56	81	0	3	96
fixed	2	8	1	395933	4	1	1	1	0	874	1	4	0	40	82	0	3	96
fixed	2	8	2	397694	1	2	2	1	0	840	1	4	0	48	83	0	3	97
fixed	2	8	3	399137	6	4	4	1	0	731	1	4	0	64	84	0	3	97
fixed	2	8	4	400844	2	1	1	1	0	746	1	4	0	40	85	0	3	97
fixed	2	8	5	401956	5	3	3	1	0	684	1	4	0	56	86	0	3	97
fixed	2	8	6	403279	6	4	4	1	0	708	1	4	0	64	87	0	3	97
fixed	2	8	7	404814	3	1	1	1	0	651	1	4	0	40	88	0	3	97
fixed	2	8	8	405781	2	3	3	1	0	842	1	4	0	56	89	0	3	97
fixed	2	8	9	407254	3	2	2	1	0	755	1	4	0	48	90	0	3	97
fixed	2	8	10	408974	1	4	4	1	0	659	1	4	0	64	91	0	3	97
fixed	2	8	11	410444	5	2	2	1	0	748	1	4	0	48	92	0	3	97
fixed	2	8	12	411738	4	3	3	1	0	661	1	4	0	56	93	0	3	97
fixed	2	9	1	413476	4	1	1	1	0	787	1	4	0	40	94	0	3	97
fixed	2	9	2	414749	1	2	0	1	2	0	3	4	0	48	94	0	4	96
fixed	2	9	3	417604	6	4	4	1	0	1181	1	4	0	64	95	0	4	96
fixed	2	9	4	419794	2	1	1	1	0	1016	1	4	0	40	96	0	4	96
fixed	2	9	5	421702	5	3	3	2	0	1959	2	4	0	56	97	0	4	96
fixed	2	9	6	424562	6	4	4	1	0	814	1	4	0	64	98	0	4	96
fixed	2	9	7	426087	3	1	1	1	0	950	1	4	0	40	99	0	4	96
fixed	2	9	8	427937	2	3	3	1	0	887	1	4	0	56	100	0	4	96
fixed	2	9	9	429676	3	2	2	1	0	678	1	4	0	48	101	0	4	96
fixed	2	9	10	431129	1	4	4	1	0	712	1	4	0	64	102	0	4	96
fixed	2	9	11	432613	5	2	2	1	0	833	1	4	0	48	103	0	4	96
fixed	2	9	12	433779	4	3	3	1	0	632	1	4	0	56	104	0	4	96
fixed	2	10	1	435179	4	1	1	1	0	812	1	4	0	40	105	0	4	96
fixed	2	10	2	436715	1	2	2	1	0	1115	1	4	0	48	106	0	4	96
fixed	2	10	3	438718	6	4	4	1	0	783	1	4	0	64	107	0	4	96
fixed	2	10	4	439823	2	1	1	1	0	1319	1	4	0	40	108	0	4	96
fixed	2	10	5	442174	5	3	3	1	0	836	1	4	0	56	109	0	4	96
fixed	2	10	6	443691	6	4	4	1	0	956	1	4	0	64	110	0	4	96
fixed	2	10	7	445567	3	1	1	2	0	1077	2	4	0	40	111	0	4	97
fixed	2	10	8	447122	2	3	3	1	0	962	1	4	0	56	112	0	4	97
fixed	2	10	9	448787	3	2	2	1	0	716	1	4	0	48	113	0	4	97
fixed	2	10	10	450451	1	4	4	1	0	709	1	4	0	64	114	0	4	97
fixed	2	10	11	451773	5	2	2	1	0	749	1	4	0	48	115	0	4	97
fixed	2	10	12	452909	4	3	3	1	0	693	1	4	0	56	116	0	4	97
fixed	3	1	1	454524	4	1	1	2	0	857	2	4	0	72	1	0	0	100
fixed	3	1	2	456212	1	2	2	2	0	1273	2	4	0	80	2	0	0	100
fixed	3	1	3	458355	6	4	4	1	0	1023	1	4	0	96	3	0	0	100
fixed	3	1	4	460406	2	1	1	2	0	976	2	4	0	72	4	0	0	100
fixed	3	1	5	462144	5	3	3	1	0	838	1	4	0	88	5	0	0	100
fixed	3	1	6	463625	6	4	4	1	0	904	1	4	0	96	6	0	0	100
fixed	3	1	7	464818	3	1	1	1	0	917	1	4	0	72	7	0	0	100
fixed	3	1	8	466571	2	3	3	1	0	1003	1	4	0	88	8	0	0	100
fixed	3	1	9	468381	3	2	2	1	0	742	1	4	0	80	9	0	0	100
fixed	3	1	10	469423	1	4	4	1	0	818	1	4	0	96	10	0	0	100
fixed	3	1	11	470973	5	2	2	1	0	768	1	4	0	80	11	0	0	100
fixed	3	1	12	472659	4	3	3	1	0	721	1	4	0	88	12	0	0	100
fixed	3	2	1	474058	4	1	1	1	0	741	1	4	0	72	13	0	0	100
fixed	3	2	2	475335	1	2	2	1	0	784	1	4	0	80	14	0	0	100
fixed	3	2	3	476580	6	4	4	1	0	707	1	4	0	96	15	0	0	100
fixed	3	2	4	477662	2	1	1	1	0	861	1	4	0	72	16	0	0	100
fixed	3	2	5	479386	5	3	3	1	0	716	1	4	0	88	17	0	0	100
fixed	3	2	6	481032	6	4	4	1	0	774	1	4	0	96	18	0	0	100
fixed	3	2	7	482263	3	1	1	2	0	850	2	4	0	72	19	0	0	100
fixed	3	2	8	483415	2	3	3	1	0	1169	1	4	0	88	20	0	0	100
fixed	3	2	9	485267	3	2	2	1	0	835	1	4	0	80	21	0	0	100
fixed	3	2	10	487117	1	4	4	1	0	725	1	4	0	96	22	0	0	100
fixed	3	2	11	488713	5	2	2	1	0	857	1	4	0	80	23	0	0	100
fixed	3	2	12	490351	4	3	3	1	0	724	1	4	0	88	24	0	0	100
fixed	3	3	1	491901	4	1	1	1	0	866	1	4	0	72	25	0	0	100
fixed	3	3	2	493595	1	2	2	1	0	754	1	4	0	80	26	0	0	100
fixed	3	3	3	495053	6	4	4	1	0	717	1	4	0	96	27	0	0	100
fixed	3	3	4	496293	2	1	1	2	0	712	2	4	0	72	28	0	0	100
fixed	3	3	5	497461	5	3	3	1	0	799	1	4	0	88	29	0	0	100
fixed	3	3	6	498604	6	4	4	2	0	1294	2	4	0	96	30	0	0	100
fixed	3	3	7	500217	3	1	1	2	0	834	2	4	0	72	31	0	0	100
fixed	3	3	8	501816	2	3	3	1	0	1062	1	4	0	88	32	0	0	100
fixed	3	3	9	503197	3	2	2	1	0	859	1	4	0	80	33	0	0	100
fixed	3	3	10	504549	1	4	4	1	0	674	1	4	0	96	34	0	0	100
fixed	3	3	11	505908	5	2	2	1	0	841	1	4	0	80	35	0	0	100
fixed	3	3	12	507468	4	3	3	1	0	615	1	4	0	88	36	0	0	100
fixed	3	4	1	508709	4	1	1	1	0	754	1	4	0	72	37	0	0	100
fixed	3	4	2	510048	1	2	2	1	0	1225	1	4	0	80	38	0	0	100
fixed	3	4	3	511860	6	4	4	1	0	901	1	4	0	96	39	0	0	100
fixed	3	4	4	513630	2	1	1	2	0	834	2	4	0	72	40	0	0	100
fixed	3	4	5	515210	5	3	3	2	0	975	2	4	0	88	41	0	0	100
fixed	3	4	6	517026	6	4	4	1	0	730	1	4	0	96	42	0	0	100
fixed	3	4	7	518307	3	1	1	2	0	932	2	4	0	72	43	0	0	100
fixed	3	4	8	519752	2	3	3	1	0	942	1	4	0	88	44	0	0	100
fixed	3	4	9	521121	3	2	2	1	0	764	1	4	0	80	45	0	0	100
fixed	3	4	10	522286	1	4	4	1	0	715	1	4	0	96	46	0	0	100
fixed	3	4	11	523497	5	2	2	1	0	735	1	4	0	80	47	0	0	100
fixed	3	4	12	524661	4	3	3	1	0	695	1	4	0	88	48	0	0	100
fixed	3	5	1	526236	4	1	1	2	0	1075	2	4	0	72	49	0	0	100
fixed	3	5	2	528190	1	2	2	1	0	777	1	4	0	80	50	0	0	100
fixed	3	5	3	529365	6	4	4	1	0	791	1	4	0	96	51	0	0	100
fixed	3	5	4	530848	2	1	1	1	0	880	1	4	0	72	52	0	0	100
fixed	3	5	5	532622	5	3	3	1	0	757	1	4	0	88	53	0	0	100
fixed	3	5	6	534286	6	4	4	1	0	695	1	4	0	96	54	0	0	100
fixed	3	5	7	535399	3	1	1	2	0	968	2	4	0	72	55	0	0	100
fixed	3	5	8	537193	2	3	3	1	0	804	1	4	0	88	56	0	0	100
fixed	3	5	9	538475	3	2	2	1	0	973	1	4	0	80	57	0	0	100
fixed	3	5	10	540444	1	4	4	1	0	674	1	4	0	96	58	0	0	100
fixed	3	5	11	541732	5	2	2	1	0	795	1	4	0	80	59	0	0	100
fixed	3	5	12	543210	4	3	3	1	0	652	1	4	0	88	60	0	0	100
fixed	3	6	1	544915	4	1	1	2	0	868	2	4	0	72	61	0	0	100
fixed	3	6	2	546112	1	2	2	1	0	1098	1	4	0	80	62	0	0	100
fixed	3	6	3	548157	6	4	4	1	0	715	1	4	0	96	63	0	0	100
fixed	3	6	4	549718	2	1	1	1	0	937	1	4	0	72	64	0	0	100
fixed	3	6	5	550974	5	3	3	1	0	948	1	4	0	88	65	0	0	100
fixed	3	6	6	552729	6	4	4	1	0	898	1	4	0	96	66	0	0	100
fixed	3	6	7	554263	3	1	1	2	0	841	2	4	0	72	67	0	0	100
fixed	3	6	8	555744	2	3	3	1	0	706	1	4	0	88	68	0	0	100
fixed	3	6	9	557005	3	2	2	1	0	669	1	4	0	80	69	0	0	100
fixed	3	6	10	558563	1	4	4	1	0	794	1	4	0	96	70	0	0	100
fixed	3	6	11	559794	5	2	2	1	0	694	1	4	0	80	71	0	0	100
fixed	3	6	12	561145	4	3	3	2	0	1037	2	4	0	88	72	0	0	100
fixed	3	7	1	563410	4	1	1	2	0	853	2	4	0	72	73	0	0	100
fixed	3	7	2	564929	1	2	2	1	0	837	1	4	0	80	74	0	0	100
fixed	3	7	3	566077	6	4	4	1	0	1092	1	4	0	96	75	0	0	100
fixed	3	7	4	567728	2	1	1	2	0	718	2	4	0	72	76	0	0	100
fixed	3	7	5	569420	5	3	3	1	0	807	1	4	0	88	77	0	0	100
fixed	3	7	6	571070	6	4	4	1	0	713	1	4	0	96	78	0	0	100
fixed	3	7	7	572294	3	1	1	2	0	973	2	4	0	72	79	0	0	100
fixed	3	7	8	574206	2	3	3	1	0	796	1	4	0	88	80	0	0	100
fixed	3	7	9	575521	3	2	2	1	0	836	1	4	0	80	81	0	0	100
fixed	3	7	10	577367	1	4	4	1	0	622	1	4	0	96	82	0	0	100
fixed	3	7	11	578521	5	2	2	1	0	797	1	4	0	80	83	0	0	100
fixed	3	7	12	579959	4	3	3	1	0	648	1	4	0	88	84	0	0	100
fixed	3	8	1	581872	4	1	1	1	0	887	1	4	0	72	85	0	0	100
fixed	3	8	2	583788	1	2	2	1	0	838	1	4	0	80	86	0	0	100
fixed	3	8	3	585128	6	4	4	1	0	829	1	4	0	96	87	0	0	100
fixed	3	8	4	586943	2	1	1	1	0	873	1	4	0	72	88	0	0	100
fixed	3	8	5	588104	5	3	3	1	0	823	1	4	0	88	89	0	0	100
fixed	3	8	6	589709	6	4	4	1	0	979	1	4	0	96	90	0	0	100
fixed	3	8	7	591486	3	1	1	1	0	792	1	4	0	72	91	0	0	100
fixed	3	8	8	593207	2	3	3	1	0	847	1	4	0	88	92	0	0	100
fixed	3	8	9	594545	3	2	2	1	0	671	1	4	0	80	93	0	0	100
fixed	3	8	10	595612	1	4	4	1	0	737	1	4	0	96	94	0	0	100
fixed	3	8	11	596735	5	2	2	1	0	794	1	4	0	80	95	0	0	100
fixed	3	8	12	597886	4	3	3	1	0	729	1	4	0	88	96	0	0	100
fixed	3	9	1	599349	4	1	1	1	0	875	1	4	0	72	97	0	0	100
fixed	3	9	2	600737	1	2	2	1	0	808	1	4	0	80	98	0	0	100
fixed	3	9	3	602300	6	4	4	1	0	638	1	4	0	96	99	0	0	100
fixed	3	9	4	603448	2	1	1	1	0	853	1	4	0	72	100	0	0	100
fixed	3	9	5	605135	5	3	3	1	0	798	1	4	0	88	101	0	0	100
fixed	3	9	6	606667	6	4	4	1	0	733	1	4	0	96	102	0	0	100
fixed	3	9	7	608180	3	1	1	1	0	765	1	4	0	72	103	0	0	100
fixed	3	9	8	609652	2	3	3	1	0	895	1	4	0	88	104	0	0	100
fixed	3	9	9	611253	3	2	2	1	0	891	1	4	0	80	105	0	0	100
fixed	3	9	10	613048	1	4	4	1	0	662	1	4	0	96	106	0	0	100
fixed	3	9	11	614101	5	2	2	1	0	810	1	4	0	80	107	0	0	100
fixed	3	9	12	615246	4	3	3	1	0	802	1	4	0	88	108	0	0	100
fixed	3	10	1	616858	4	1	1	2	0	829	2	4	0	72	109	0	0	100
fixed	3	10	2	618322	1	2	2	1	0	760	1	4	0	80	110	0	0	100
fixed	3	10	3	619856	6	4	4	1	0	670	1	4	0	96	111	0	0	100
fixed	3	10	4	621005	2	1	1	2	0	1294	2	4	0	72	112	0	0	100
fixed	3	10	5	622861	5	3	3	1	0	999	1	4	0	88	113	0	0	100
fixed	3	10	6	624227	6	4	4	1	0	773	1	4	0	96	114	0	0	100
fixed	3	10	7	625728	3	1	1	2	0	805	2	4	0	72	115	0	0	100
fixed	3	10	8	627352	2	3	3	2	0	1041	2	4	0	88	116	0	0	100
fixed	3	10	9	629057	3	2	2	1	0	848	1	4	0	80	117	0	0	100
fixed	3	10	10	630627	1	4	4	1	0	694	1	4	0	96	118	0	0	100
fixed	3	10	11	631896	5	2	2	1	0	1008	1	4	0	80	119	0	0	100
fixed	3	10	12	633427	4	3	3	1	0	752	1	4	0	88	120	0	0	100
fixed	4	1	1	740793	4	1	1	1	0	1092	1	4	0	104	1	0	0	100
fixed	4	1	2	742812	1	2	2	1	0	1031	1	4	0	112	2	0	0	100
fixed	4	1	3	744388	6	4	4	1	0	691	1	4	0	128	3	0	0	100
fixed	4	1	4	745630	2	1	1	1	0	767	1	4	0	104	4	0	0	100
fixed	4	1	5	747208	5	3	3	1	0	941	1	4	0	120	5	0	0	100
fixed	4	1	6	748719	6	4	4	1	0	708	1	4	0	128	6	0	0	100
fixed	4	1	7	750066	3	1	1	1	0	779	1	4	0	104	7	0	0	100
fixed	4	1	8	751501	2	3	3	1	0	815	1	4	0	120	8	0	0	100
fixed	4	1	9	752814	3	2	2	1	0	615	1	4	0	112	9	0	0	100
fixed	4	1	10	754171	1	4	4	1	0	757	1	4	0	128	10	0	0	100
fixed	4	1	11	755350	5	2	2	1	0	755	1	4	0	112	11	0	0	100
fixed	4	1	12	756551	4	3	3	1	0	464	1	4	0	120	12	0	0	100
fixed	4	2	1	757804	4	1	1	1	0	675	1	4	0	104	13	0	0	100
fixed	4	2	2	759210	1	2	2	1	0	904	1	4	0	112	14	0	0	100
fixed	4	2	3	761078	6	4	4	1	0	681	1	4	0	128	15	0	0	100
fixed	4	2	4	762316	2	1	1	1	0	796	1	4	0	104	16	0	0	100
fixed	4	2	5	763486	5	3	3	1	0	795	1	4	0	120	17	0	0	100
fixed	4	2	6	765154	6	4	4	1	0	724	1	4	0	128	18	0	0	100
fixed	4	2	7	766816	3	1	1	1	0	1246	1	4	0	104	19	0	0	100
fixed	4	2	8	769084	2	3	3	1	0	902	1	4	0	120	20	0	0	100
fixed	4	2	9	770301	3	2	2	1	0	674	1	4	0	112	21	0	0	100
fixed	4	2	10	771766	1	4	4	1	0	652	1	4	0	128	22	0	0	100
fixed	4	2	11	773134	5	2	2	1	0	922	1	4	0	112	23	0	0	100
fixed	4	2	12	774601	4	3	3	1	0	572	1	4	0	120	24	0	0	100
fixed	4	3	1	776216	4	1	1	1	0	839	1	4	0	104	25	0	0	100
fixed	4	3	2	777616	1	2	2	2	0	957	2	4	0	112	26	0	0	100
fixed	4	3	3	779183	6	4	4	1	0	786	1	4	0	128	27	0	0	100
fixed	4	3	4	780573	2	1	1	1	0	775	1	4	0	104	28	0	0	100
fixed	4	3	5	782079	5	3	3	1	0	711	1	4	0	120	29	0	0	100
fixed	4	3	6	783660	6	4	4	1	0	700	1	4	0	128	30	0	0	100
fixed	4	3	7	784962	3	1	1	1	0	741	1	4	0	104	31	0	0	100
fixed	4	3	8	786307	2	3	3	1	0	812	1	4	0	120	32	0	0	100
fixed	4	3	9	787807	3	2	2	1	0	757	1	4	0	112	33	0	0	100
fixed	4	3	10	789369	1	4	4	1	0	618	1	4	0	128	34	0	0	100
fixed	4	3	11	790844	5	2	2	1	0	732	1	4	0	112	35	0	0	100
fixed	4	3	12	791944	4	3	3	2	0	677	2	4	0	120	36	0	0	100
fixed	4	4	1	793475	4	1	1	2	0	1452	2	4	0	104	37	0	0	100
fixed	4	4	2	795532	1	2	2	1	0	781	1	4	0	112	38	0	0	100
fixed	4	4	3	796812	6	4	4	1	0	648	1	4	0	128	39	0	0	100
fixed	4	4	4	798434	2	1	1	2	0	1314	2	4	0	104	40	0	0	100
fixed	4	4	5	800390	5	3	3	1	0	1095	1	4	0	120	41	0	0	100
fixed	4	4	6	802079	6	4	4	1	0	704	1	4	0	128	42	0	0	100
fixed	4	4	7	803092	3	1	1	1	0	989	1	4	0	104	43	0	0	100
fixed	4	4	8	804676	2	3	3	1	0	882	1	4	0	120	44	0	0	100
fixed	4	4	9	806177	3	2	2	1	0	795	1	4	0	112	45	0	0	100
fixed	4	4	10	807570	1	4	4	1	0	672	1	4	0	128	46	0	0	100
fixed	4	4	11	808674	5	2	2	1	0	793	1	4	0	112	47	0	0	100
fixed	4	4	12	810372	4	3	3	1	0	553	1	4	0	120	48	0	0	100
fixed	4	5	1	811937	4	1	1	1	0	870	1	4	0	104	49	0	0	100
fixed	4	5	2	813268	1	2	2	1	0	870	1	4	0	112	50	0	0	100
fixed	4	5	3	814552	6	4	4	1	0	856	1	4	0	128	51	0	0	100
fixed	4	5	4	816013	2	1	0	1	2	0	3	4	0	104	51	0	1	98
fixed	4	5	5	818891	5	3	3	1	0	800	1	4	0	120	52	0	1	98
fixed	4	5	6	820418	6	4	4	1	0	728	1	4	0	128	53	0	1	98
fixed	4	5	7	821632	3	1	1	1	0	804	1	4	0	104	54	0	1	98
fixed	4	5	8	823358	2	3	3	1	0	947	1	4	0	120	55	0	1	98
fixed	4	5	9	825230	3	2	2	1	0	844	1	4	0	112	56	0	1	98
fixed	4	5	10	826502	1	4	4	1	0	734	1	4	0	128	57	0	1	98
fixed	4	5	11	827570	5	2	2	1	0	841	1	4	0	112	58	0	1	98
fixed	4	5	12	828899	4	3	3	2	0	896	2	4	0	120	59	0	1	98
fixed	4	6	1	830616	4	1	1	1	0	871	1	4	0	104	60	0	1	98
fixed	4	6	2	831878	1	2	2	1	0	922	1	4	0	112	61	0	1	98
fixed	4	6	3	833635	6	4	4	1	0	704	1	4	0	128	62	0	1	98
fixed	4	6	4	834860	2	1	1	1	0	859	1	4	0	104	63	0	1	98
fixed	4	6	5	836258	5	3	3	1	0	881	1	4	0	120	64	0	1	98
fixed	4	6	6	837910	6	4	4	1	0	763	1	4	0	128	65	0	1	98
fixed	4	6	7	839247	3	1	1	1	0	874	1	4	0	104	66	0	1	99
fixed	4	6	8	840972	2	3	3	1	0	920	1	4	0	120	67	0	1	99
fixed	4	6	9	842522	3	2	2	1	0	807	1	4	0	112	68	0	1	99
fixed	4	6	10	843799	1	4	4	1	0	753	1	4	0	128	69	0	1	99
fixed	4	6	11	845482	5	2	2	1	0	874	1	4	0	112	70	0	1	99
fixed	4	6	12	846695	4	3	3	1	0	902	1	4	0	120	71	0	1	99
fixed	4	7	1	848777	4	1	1	1	0	766	1	4	0	104	72	0	1	99
fixed	4	7	2	850483	1	2	2	1	0	894	1	4	0	112	73	0	1	99
fixed	4	7	3	851789	6	4	4	1	0	727	1	4	0	128	74	0	1	99
fixed	4	7	4	852880	2	1	1	1	0	1577	1	4	0	104	75	0	1	99
fixed	4	7	5	854914	5	3	3	1	0	858	1	4	0	120	76	0	1	99
fixed	4	7	6	856216	6	4	4	1	0	995	1	4	0	128	77	0	1	99
fixed	4	7	7	857735	3	1	1	1	0	811	1	4	0	104	78	0	1	99
fixed	4	7	8	859195	2	3	3	1	0	973	1	4	0	120	79	0	1	99
fixed	4	7	9	860857	3	2	2	1	0	790	1	4	0	112	80	0	1	99
fixed	4	7	10	862610	1	4	4	1	0	684	1	4	0	128	81	0	1	99
fixed	4	7	11	864267	5	2	2	1	0	750	1	4	0	112	82	0	1	99
fixed	4	7	12	865389	4	3	3	2	0	935	2	4	0	120	83	0	1	99
fixed	4	8	1	867055	4	1	1	1	0	784	1	4	0	104	84	0	1	99
fixed	4	8	2	868830	1	2	2	1	0	949	1	4	0	112	85	0	1	99
fixed	4	8	3	870400	6	4	4	1	0	658	1	4	0	128	86	0	1	99
fixed	4	8	4	871917	2	1	1	1	0	874	1	4	0	104	87	0	1	99
fixed	4	8	5	873492	5	3	3	1	0	871	1	4	0	120	88	0	1	99
fixed	4	8	6	874766	6	4	4	1	0	754	1	4	0	128	89	0	1	99
fixed	4	8	7	875868	3	1	1	1	0	899	1	4	0	104	90	0	1	99
fixed	4	8	8	877332	2	3	3	1	0	933	1	4	0	120	91	0	1	99
fixed	4	8	9	878802	3	2	2	1	0	710	1	4	0	112	92	0	1	99
fixed	4	8	10	880377	1	4	4	1	0	860	1	4	0	128	93	0	1	99
fixed	4	8	11	881802	5	2	2	1	0	776	1	4	0	112	94	0	1	99
fixed	4	8	12	883000	4	3	3	1	0	805	1	4	0	120	95	0	1	99
fixed	4	9	1	884799	4	1	1	1	0	816	1	4	0	104	96	0	1	99
fixed	4	9	2	886151	1	2	2	1	0	759	1	4	0	112	97	0	1	99
fixed	4	9	3	887823	6	4	4	1	0	624	1	4	0	128	98	0	1	99
fixed	4	9	4	888982	2	1	1	1	0	711	1	4	0	104	99	0	1	99
fixed	4	9	5	890335	5	3	3	1	0	758	1	4	0	120	100	0	1	99
fixed	4	9	6	892111	6	4	4	1	0	827	1	4	0	128	101	0	1	99
fixed	4	9	7	893531	3	1	1	1	0	903	1	4	0	104	102	0	1	99
fixed	4	9	8	895402	2	3	3	1	0	960	1	4	0	120	103	0	1	99
fixed	4	9	9	897009	3	2	2	1	0	700	1	4	0	112	104	0	1	99
fixed	4	9	10	898011	1	4	4	1	0	825	1	4	0	128	105	0	1	99
fixed	4	9	11	899383	5	2	2	1	0	766	1	4	0	112	106	0	1	99
fixed	4	9	12	900578	4	3	3	2	0	1420	2	4	0	120	107	0	1	99
fixed	4	10	1	903044	4	1	1	1	0	859	1	4	0	104	108	0	1	99
fixed	4	10	2	904403	1	2	2	1	0	922	1	4	0	112	109	0	1	99
fixed	4	10	3	906343	6	4	4	1	0	760	1	4	0	128	110	0	1	99
fixed	4	10	4	907605	2	1	1	3	0	2074	2	4	0	104	111	0	1	99
fixed	4	10	5	910242	5	3	3	1	0	771	1	4	0	120	112	0	1	99
fixed	4	10	6	911559	6	4	4	1	0	763	1	4	0	128	113	0	1	99
fixed	4	10	7	913320	3	1	1	1	0	848	1	4	0	104	114	0	1	99
fixed	4	10	8	914871	2	3	3	1	0	822	1	4	0	120	115	0	1	99
fixed	4	10	9	916640	3	2	2	1	0	796	1	4	0	112	116	0	1	99
fixed	4	10	10	917909	1	4	4	1	0	710	1	4	0	128	117	0	1	99
fixed	4	10	11	919272	5	2	2	2	0	1020	2	4	0	112	118	0	1	99
fixed	4	10	12	921324	4	3	3	1	0	861	1	4	0	120	119	0	1	99
fixed	5	1	1	923558	4	1	1	1	0	942	1	4	0	136	1	0	0	100
fixed	5	1	2	925148	1	2	2	1	0	827	1	4	0	144	2	0	0	100
fixed	5	1	3	926415	6	4	4	1	0	710	1	4	0	160	3	0	0	100
fixed	5	1	4	927911	2	1	1	1	0	918	1	4	0	136	4	0	0	100
fixed	5	1	5	929434	5	3	3	1	0	830	1	4	0	152	5	0	0	100
fixed	5	1	6	931073	6	4	4	1	0	1001	1	4	0	160	6	0	0	100
fixed	5	1	7	932911	3	1	1	2	0	1003	2	4	0	136	7	0	0	100
fixed	5	1	8	934243	2	3	3	1	0	826	1	4	0	152	8	0	0	100
fixed	5	1	9	936100	3	2	2	1	0	796	1	4	0	144	9	0	0	100
fixed	5	1	10	937604	1	4	4	1	0	708	1	4	0	160	10	0	0	100
fixed	5	1	11	939067	5	2	2	1	0	758	1	4	0	144	11	0	0	100
fixed	5	1	12	940665	4	3	3	1	0	995	1	4	0	152	12	0	0	100
fixed	5	2	1	942240	4	1	1	1	0	943	1	4	0	136	13	0	0	100
fixed	5	2	2	944157	1	2	2	1	0	807	1	4	0	144	14	0	0	100
fixed	5	2	3	945481	6	4	4	1	0	774	1	4	0	160	15	0	0	100
fixed	5	2	4	946766	2	1	1	1	0	1064	1	4	0	136	16	0	0	100
fixed	5	2	5	948658	5	3	3	1	0	1136	1	4	0	152	17	0	0	100
fixed	5	2	6	950448	6	4	4	1	0	812	1	4	0	160	18	0	0	100
fixed	5	2	7	951670	3	1	1	1	0	1032	1	4	0	136	19	0	0	100
fixed	5	2	8	953423	2	3	3	1	0	814	1	4	0	152	20	0	0	100
fixed	5	2	9	954548	3	2	2	1	0	814	1	4	0	144	21	0	0	100
fixed	5	2	10	955947	1	4	4	1	0	851	1	4	0	160	22	0	0	100
fixed	5	2	11	957618	5	2	2	1	0	1100	1	4	0	144	23	0	0	100
fixed	5	2	12	959510	4	3	3	1	0	948	1	4	0	152	24	0	0	100
fixed	5	3	1	961053	4	1	1	1	0	914	1	4	0	136	25	0	0	100
fixed	5	3	2	962570	1	2	2	1	0	835	1	4	0	144	26	0	0	100
fixed	5	3	3	963977	6	4	4	1	0	743	1	4	0	160	27	0	0	100
fixed	5	3	4	965175	2	1	1	1	0	884	1	4	0	136	28	0	0	100
fixed	5	3	5	966481	5	3	3	1	0	948	1	4	0	152	29	0	0	100
fixed	5	3	6	968293	6	4	4	1	0	720	1	4	0	160	30	0	0	100
fixed	5	3	7	969569	3	1	1	1	0	842	1	4	0	136	31	0	0	100
fixed	5	3	8	970964	2	3	3	1	0	831	1	4	0	152	32	0	0	100
fixed	5	3	9	972149	3	2	2	1	0	917	1	4	0	144	33	0	0	100
fixed	5	3	10	973947	1	4	4	1	0	809	1	4	0	160	34	0	0	100
fixed	5	3	11	975169	5	2	2	1	0	797	1	4	0	144	35	0	0	100
fixed	5	3	12	976285	4	3	3	1	0	798	1	4	0	152	36	0	0	100
fixed	5	4	1	977877	4	1	1	1	0	794	1	4	0	136	37	0	0	100
fixed	5	4	2	979023	1	2	0	1	2	0	3	4	0	144	37	0	1	97
fixed	5	4	3	982463	6	4	4	1	0	808	1	4	0	160	38	0	1	97
fixed	5	4	4	983967	2	1	1	1	0	1464	1	4	0	136	39	0	1	98
fixed	5	4	5	986100	5	3	3	1	0	782	1	4	0	152	40	0	1	98
fixed	5	4	6	987744	6	4	4	1	0	768	1	4	0	160	41	0	1	98
fixed	5	4	7	989119	3	1	1	1	0	1078	1	4	0	136	42	0	1	98
fixed	5	4	8	990658	2	3	3	1	0	900	1	4	0	152	43	0	1	98
fixed	5	4	9	992244	3	2	2	1	0	857	1	4	0	144	44	0	1	98
fixed	5	4	10	993635	1	4	4	1	0	815	1	4	0	160	45	0	1	98
fixed	5	4	11	995165	5	2	2	1	0	822	1	4	0	144	46	0	1	98
fixed	5	4	12	996829	4	3	3	3	0	2439	2	4	0	152	47	0	1	98
fixed	5	5	1	1000516	4	1	1	1	0	811	1	4	0	136	48	0	1	98
fixed	5	5	2	1001875	1	2	2	1	0	994	1	4	0	144	49	0	1	98
fixed	5	5	3	1003173	6	4	4	1	0	746	1	4	0	160	50	0	1	98
fixed	5	5	4	1004868	2	1	1	1	0	795	1	4	0	136	51	0	1	98
fixed	5	5	5	1006196	5	3	3	1	0	906	1	4	0	152	52	0	1	98
fixed	5	5	6	1007879	6	4	4	1	0	724	1	4	0	160	53	0	1	98
fixed	5	5	7	1009518	3	1	1	1	0	886	1	4	0	136	54	0	1	98
fixed	5	5	8	1011350	2	3	3	1	0	872	1	4	0	152	55	0	1	98
fixed	5	5	9	1013113	3	2	2	1	0	845	1	4	0	144	56	0	1	98
fixed	5	5	10	1014707	1	4	4	1	0	930	1	4	0	160	57	0	1	98
fixed	5	5	11	1016551	5	2	2	2	0	2100	2	4	0	144	58	0	1	98
fixed	5	5	12	1019028	4	3	3	1	0	699	1	4	0	152	59	0	1	98
fixed	5	6	1	1020382	4	1	1	1	0	962	1	4	0	136	60	0	1	98
fixed	5	6	2	1022320	1	2	2	1	0	927	1	4	0	144	61	0	1	98
fixed	5	6	3	1023934	6	4	4	1	0	700	1	4	0	160	62	0	1	98
fixed	5	6	4	1025259	2	1	1	2	0	1219	2	4	0	136	63	0	1	98
fixed	5	6	5	1027301	5	3	3	1	0	861	1	4	0	152	64	0	1	98
fixed	5	6	6	1028792	6	4	4	1	0	990	1	4	0	160	65	0	1	98
fixed	5	6	7	1030772	3	1	1	1	0	857	1	4	0	136	66	0	1	99
fixed	5	6	8	1032605	2	3	3	1	0	900	1	4	0	152	67	0	1	99
fixed	5	6	9	1033799	3	2	2	1	0	921	1	4	0	144	68	0	1	99
fixed	5	6	10	1035694	1	4	4	1	0	1209	1	4	0	160	69	0	1	99
fixed	5	6	11	1037599	5	2	2	1	0	833	1	4	0	144	70	0	1	99
fixed	5	6	12	1039155	4	3	3	1	0	1367	1	4	0	152	71	0	1	99
fixed	5	7	1	1041651	4	1	1	2	0	893	2	4	0	136	72	0	1	99
fixed	5	7	2	1043025	1	2	2	1	0	843	1	4	0	144	73	0	1	99
fixed	5	7	3	1044717	6	4	4	1	0	827	1	4	0	160	74	0	1	99
fixed	5	7	4	1046142	2	1	1	3	0	1079	2	4	0	136	75	0	1	99
fixed	5	7	5	1047564	5	3	3	2	0	2098	2	4	0	152	76	0	1	99
fixed	5	7	6	1050484	6	4	4	1	0	807	1	4	0	160	77	0	1	99
fixed	5	7	7	1052109	3	1	1	1	0	818	1	4	0	136	78	0	1	99
fixed	5	7	8	1053765	2	3	3	1	0	852	1	4	0	152	79	0	1	99
fixed	5	7	9	1055600	3	2	0	0	2	0	3	4	0	144	79	0	2	98
fixed	5	7	10	1058907	1	4	4	1	0	818	1	4	0	160	80	0	2	98
fixed	5	7	11	1060319	5	2	2	1	0	798	1	4	0	144	81	0	2	98
fixed	5	7	12	1061852	4	3	3	1	0	1253	1	4	0	152	82	0	2	98
fixed	5	8	1	1064256	4	1	1	1	0	879	1	4	0	136	83	0	2	98
fixed	5	8	2	1065692	1	2	2	1	0	802	1	4	0	144	84	0	2	98
fixed	5	8	3	1067045	6	4	4	1	0	865	1	4	0	160	85	0	2	98
fixed	5	8	4	1068808	2	1	1	1	0	1007	1	4	0	136	86	0	2	98
fixed	5	8	5	1070740	5	3	0	0	2	0	3	4	0	152	86	0	3	97
fixed	5	8	6	1074100	6	4	4	1	0	767	1	4	0	160	87	0	3	97
fixed	5	8	7	1075754	3	1	1	1	0	856	1	4	0	136	88	0	3	97
fixed	5	8	8	1077566	2	3	3	1	0	924	1	4	0	152	89	0	3	97
fixed	5	8	9	1078892	3	2	2	1	0	771	1	4	0	144	90	0	3	97
fixed	5	8	10	1080011	1	4	4	1	0	812	1	4	0	160	91	0	3	97
fixed	5	8	11	1081704	5	2	2	1	0	1076	1	4	0	144	92	0	3	97
fixed	5	8	12	1083749	4	3	3	1	0	886	1	4	0	152	93	0	3	97
fixed	5	9	1	1085926	4	1	1	1	0	921	1	4	0	136	94	0	3	97
fixed	5	9	2	1087847	1	2	0	0	2	0	3	4	0	144	94	0	4	96
fixed	5	9	3	1091183	6	4	4	1	0	827	1	4	0	160	95	0	4	96
fixed	5	9	4	1092617	2	1	1	1	0	2206	1	4	0	136	96	0	4	96
fixed	5	9	5	1095737	5	3	3	1	0	762	1	4	0	152	97	0	4	96
fixed	5	9	6	1097437	6	4	4	1	0	1130	1	4	0	160	98	0	4	96
fixed	5	9	7	1099022	3	1	1	1	0	1079	1	4	0	136	99	0	4	96
fixed	5	9	8	1100617	2	3	3	1	0	851	1	4	0	152	100	0	4	96
fixed	5	9	9	1101936	3	2	2	1	0	915	1	4	0	144	101	0	4	96
fixed	5	9	10	1103218	1	4	4	1	0	1181	1	4	0	160	102	0	4	96
fixed	5	9	11	1104887	5	2	2	1	0	1294	1	4	0	144	103	0	4	96
fixed	5	9	12	1106879	4	3	0	0	2	0	3	4	0	152	103	0	5	95
fixed	5	10	1	1110302	4	1	1	2	0	873	2	4	0	136	104	0	5	95
fixed	5	10	2	1111538	1	2	2	2	0	2261	2	4	0	144	105	0	5	95
fixed	5	10	3	1114741	6	4	4	1	0	781	1	4	0	160	106	0	5	95
fixed	5	10	4	1115830	2	1	1	1	0	943	1	4	0	136	107	0	5	96
fixed	5	10	5	1117252	5	3	3	1	0	899	1	4	0	152	108	0	5	96
fixed	5	10	6	1119142	6	4	4	1	0	1323	1	4	0	160	109	0	5	96
fixed	5	10	7	1121411	3	1	1	1	0	834	1	4	0	136	110	0	5	96
fixed	5	10	8	1122581	2	3	3	1	0	961	1	4	0	152	111	0	5	96
fixed	5	10	9	1124213	3	2	2	1	0	916	1	4	0	144	112	0	5	96
fixed	5	10	10	1126123	1	4	4	1	0	715	1	4	0	160	113	0	5	96
fixed	5	10	11	1127167	5	2	2	1	0	927	1	4	0	144	114	0	5	96
fixed	5	10	12	1128461	4	3	3	1	0	928	1	4	0	152	115	0	5	96
random	6	1	1	1220621	6	1	1	1	0	968	1	4	0	168	1	0	0	100
random	6	1	2	1221898	4	4	4	1	0	707	1	4	0	192	2	0	0	100
random	6	1	3	1223539	2	2	2	1	0	781	1	4	0	176	3	0	0	100
random	6	1	4	1224907	3	3	3	1	0	787	1	4	0	184	4	0	0	100
random	6	1	5	1226299	5	2	2	1	0	688	1	4	0	176	5	0	0	100
random	6	1	6	1228016	1	4	4	1	0	639	1	4	0	192	6	0	0	100
random	6	1	7	1229501	6	1	1	1	0	904	1	4	0	168	7	0	0	100
random	6	1	8	1231231	2	3	3	1	0	799	1	4	0	184	8	0	0	100
random	6	1	9	1232556	4	2	2	1	0	527	1	4	0	176	9	0	0	100
random	6	1	10	1233439	1	1	1	1	0	833	1	4	0	168	10	0	0	100
random	6	1	11	1234943	5	4	4	1	0	682	1	4	0	192	11	0	0	100
random	6	1	12	1236633	3	3	3	1	0	738	1	4	0	184	12	0	0	100
random	6	1	13	1238600	5	2	2	1	0	735	1	4	0	176	13	0	0	100
random	6	1	14	1239801	1	4	4	1	0	660	1	4	0	192	14	0	0	100
random	6	1	15	1241196	3	1	1	1	0	905	1	4	0	168	15	0	0	100
random	6	1	16	1242891	4	3	3	1	0	689	1	4	0	184	16	0	0	100
random	6	1	17	1244583	6	4	4	1	0	633	1	4	0	192	17	0	0	100
random	6	1	18	1245505	2	1	1	1	0	883	1	4	0	168	18	0	0	100
random	6	1	19	1247022	5	3	3	1	0	754	1	4	0	184	19	0	0	100
random	6	1	20	1248255	2	2	2	1	0	846	1	4	0	176	20	0	0	100
random	6	1	21	1249831	3	3	3	1	0	587	1	4	0	184	21	0	0	100
random	6	1	22	1251170	6	1	1	1	0	947	1	4	0	168	22	0	0	100
random	6	1	23	1252976	4	2	2	1	0	742	1	4	0	176	23	0	0	100
random	6	1	24	1254251	1	4	4	1	0	688	1	4	0	192	24	0	0	100
random	6	1	25	1255726	4	3	3	1	0	1009	1	4	0	184	25	0	0	100
random	6	1	26	1257128	2	1	1	1	0	854	1	4	0	168	26	0	0	100
random	6	1	27	1258348	5	2	2	1	0	842	1	4	0	176	27	0	0	100
random	6	1	28	1259601	6	4	4	1	0	685	1	4	0	192	28	0	0	100
random	6	1	29	1261110	1	3	3	1	0	822	1	4	0	184	29	0	0	100
random	6	1	30	1262827	5	2	2	1	0	749	1	4	0	176	30	0	0	100
random	6	1	31	1264068	2	1	1	1	0	1248	1	4	0	168	31	0	0	100
random	6	1	32	1266136	3	3	3	1	0	865	1	4	0	184	32	0	0	100
random	6	1	33	1267301	6	4	4	1	0	784	1	4	0	192	33	0	0	100
random	6	1	34	1268756	4	2	2	1	0	786	1	4	0	176	34	0	0	100
random	6	1	35	1270241	3	4	4	1	0	699	1	4	0	192	35	0	0	100
random	6	1	36	1271903	1	1	1	1	0	932	1	4	0	168	36	0	0	100
random	6	1	37	1273904	3	4	4	1	0	848	1	4	0	192	37	0	0	100
random	6	1	38	1275153	5	3	3	1	0	915	1	4	0	184	38	0	0	100
random	6	1	39	1276511	6	1	1	1	0	1001	1	4	0	168	39	0	0	100
random	6	1	40	1278391	1	2	2	2	0	2146	2	4	0	176	40	0	0	100
random	6	1	41	1281117	2	3	3	1	0	847	1	4	0	184	41	0	0	100
random	6	1	42	1282276	4	4	4	1	0	1125	1	4	0	192	42	0	0	100
random	6	1	43	1283838	1	2	2	1	0	811	1	4	0	176	43	0	0	100
random	6	1	44	1284938	6	3	3	1	0	772	1	4	0	184	44	0	0	100
random	6	1	45	1286667	3	1	1	1	0	811	1	4	0	168	45	0	0	100
random	6	1	46	1287973	4	4	4	1	0	828	1	4	0	192	46	0	0	100
random	6	1	47	1289593	2	2	2	1	0	799	1	4	0	176	47	0	0	100
random	6	1	48	1290900	5	1	1	1	0	1384	1	4	0	168	48	0	0	100
random	6	1	49	1292900	2	3	3	1	0	795	1	4	0	184	49	0	0	100
random	6	1	50	1294161	3	1	1	1	0	974	1	4	0	168	50	0	0	100
random	6	1	51	1295932	1	4	4	1	0	715	1	4	0	192	51	0	0	100
random	6	1	52	1297428	5	3	3	1	0	779	1	4	0	184	52	0	0	100
random	6	1	53	1298801	3	2	2	1	0	633	1	4	0	176	53	0	0	100
random	6	1	54	1299870	6	4	4	1	0	708	1	4	0	192	54	0	0	100
random	6	1	55	1301333	4	2	2	1	0	966	1	4	0	176	55	0	0	100
random	6	1	56	1303319	1	1	1	1	0	914	1	4	0	168	56	0	0	100
random	6	1	57	1304704	5	4	4	1	0	903	1	4	0	192	57	0	0	100
random	6	1	58	1306613	2	1	1	1	0	1639	1	4	0	168	58	0	0	100
random	6	1	59	1308740	6	2	2	1	0	812	1	4	0	176	59	0	0	100
random	6	1	60	1310167	4	3	3	1	0	712	1	4	0	184	60	0	0	100
random	6	1	61	1312164	1	2	2	1	0	771	1	4	0	176	61	0	0	100
random	6	1	62	1313700	6	4	4	1	0	786	1	4	0	192	62	0	0	100
random	6	1	63	1315007	4	1	0	2	2	0	3	4	0	168	62	0	1	98
random	6	1	64	1318088	2	2	2	1	0	912	1	4	0	176	63	0	1	98
random	6	1	65	1319552	4	3	0	0	2	0	3	4	0	184	63	0	2	97
random	6	1	66	1322521	3	1	1	1	0	948	1	4	0	168	64	0	2	97
random	6	1	67	1324339	1	3	3	1	0	800	1	4	0	184	65	0	2	97
random	6	1	68	1325451	5	4	4	1	0	824	1	4	0	192	66	0	2	97
random	6	1	69	1326717	2	2	2	1	0	723	1	4	0	176	67	0	2	97
random	6	1	70	1328368	3	1	1	1	0	877	1	4	0	168	68	0	2	97
random	6	1	71	1329797	5	4	4	1	0	680	1	4	0	192	69	0	2	97
random	6	1	72	1331104	6	3	3	1	0	793	1	4	0	184	70	0	2	97
random	6	1	73	1332698	2	1	1	1	0	781	1	4	0	168	71	0	2	97
random	6	1	74	1334360	5	3	3	1	0	799	1	4	0	184	72	0	2	97
random	6	1	75	1335544	1	4	4	1	0	805	1	4	0	192	73	0	2	97
random	6	1	76	1336721	6	2	2	1	0	971	1	4	0	176	74	0	2	97
random	6	1	77	1337994	2	1	1	1	0	1125	1	4	0	168	75	0	2	97
random	6	1	78	1339889	4	4	4	1	0	733	1	4	0	192	76	0	2	97
random	6	1	79	1341379	3	2	2	1	0	854	1	4	0	176	77	0	2	97
random	6	1	80	1342973	4	3	3	2	0	1074	2	4	0	184	78	0	2	98
random	6	1	81	1344757	1	4	4	1	0	759	1	4	0	192	79	0	2	98
random	6	1	82	1346473	5	1	1	1	0	782	1	4	0	168	80	0	2	98
random	6	1	83	1347794	3	2	2	1	0	806	1	4	0	176	81	0	2	98
random	6	1	84	1349608	6	3	3	1	0	777	1	4	0	184	82	0	2	98
random	6	1	85	1351661	3	2	2	1	0	810	1	4	0	176	83	0	2	98
random	6	1	86	1353351	1	3	3	1	0	707	1	4	0	184	84	0	2	98
random	6	1	87	1354369	4	4	4	1	0	871	1	4	0	192	85	0	2	98
random	6	1	88	1355598	2	1	1	1	0	940	1	4	0	168	86	0	2	98
random	6	1	89	1357464	6	4	4	1	0	973	1	4	0	192	87	0	2	98
random	6	1	90	1359361	3	3	3	1	0	844	1	4	0	184	88	0	2	98
random	6	1	91	1361083	5	4	4	1	0	1643	1	4	0	192	89	0	2	98
random	6	1	92	1363082	1	2	2	1	0	1119	1	4	0	176	90	0	2	98
random	6	1	93	1364561	5	1	1	1	0	1488	1	4	0	168	91	0	2	98
random	6	1	94	1366746	4	3	3	1	0	787	1	4	0	184	92	0	2	98
random	6	1	95	1368500	6	1	1	1	0	1017	1	4	0	168	93	0	2	98
random	6	1	96	1370086	2	2	2	1	0	958	1	4	0	176	94	0	2	98
random	6	1	97	1371911	4	3	3	2	0	1264	2	4	0	184	95	0	2	98
random	6	1	98	1373720	3	2	2	1	0	676	1	4	0	176	96	0	2	98
random	6	1	99	1374942	6	3	3	1	0	752	1	4	0	184	97	0	2	98
random	6	1	100	1376346	1	4	4	1	0	773	1	4	0	192	98	0	2	98
random	6	1	101	1377594	4	1	1	1	0	1192	1	4	0	168	99	0	2	98
random	6	1	102	1379623	5	2	2	1	0	2322	1	4	0	176	100	0	2	98
random	6	1	103	1382718	2	4	4	1	0	823	1	4	0	192	101	0	2	98
random	6	1	104	1384194	3	1	1	2	0	976	2	4	0	168	102	0	2	98
random	6	1	105	1385671	1	3	3	1	0	858	1	4	0	184	103	0	2	98
random	6	1	106	1387144	2	2	2	1	0	780	1	4	0	176	104	0	2	98
random	6	1	107	1388358	5	4	4	1	0	832	1	4	0	192	105	0	2	98
random	6	1	108	1390157	6	1	1	1	0	892	1	4	0	168	106	0	2	98
random	6	1	109	1392244	5	4	4	1	0	819	1	4	0	192	107	0	2	98
random	6	1	110	1393673	6	3	3	1	0	807	1	4	0	184	108	0	2	98
random	6	1	111	1395327	2	2	2	1	0	833	1	4	0	176	109	0	2	98
random	6	1	112	1396478	3	1	0	0	2	0	3	4	0	168	109	0	3	97
random	6	1	113	1399923	1	2	2	1	0	1142	1	4	0	176	110	0	3	97
random	6	1	114	1401541	2	3	3	1	0	698	1	4	0	184	111	0	3	97
random	6	1	115	1403041	3	1	1	1	0	762	1	4	0	168	112	0	3	97
random	6	1	116	1404652	4	4	4	1	0	734	1	4	0	192	113	0	3	97
random	6	1	117	1406316	6	1	0	1	2	0	3	4	0	168	113	0	4	97
random	6	1	118	1409189	5	3	3	1	0	758	1	4	0	184	114	0	4	97
random	6	1	119	1410853	1	4	4	1	0	784	1	4	0	192	115	0	4	97
random	6	1	120	1412366	4	2	2	1	0	719	1	4	0	176	116	0	4	97
fixed	7	1	1	1414196	4	1	1	1	0	985	1	4	0	200	1	0	0	100
fixed	7	1	2	1416086	1	2	2	1	0	745	1	4	0	208	2	0	0	100
fixed	7	1	3	1417514	6	4	4	1	0	653	1	4	0	224	3	0	0	100
fixed	7	1	4	1419199	2	1	1	2	0	798	2	4	0	200	4	0	0	100
fixed	7	1	5	1420767	5	3	3	1	0	1051	1	4	0	216	5	0	0	100
fixed	7	1	6	1422825	6	4	4	1	0	748	1	4	0	224	6	0	0	100
fixed	7	1	7	1424486	3	1	1	1	0	758	1	4	0	200	7	0	0	100
fixed	7	1	8	1426211	2	3	3	1	0	788	1	4	0	216	8	0	0	100
fixed	7	1	9	1427435	3	2	2	1	0	737	1	4	0	208	9	0	0	100
fixed	7	1	10	1428552	1	4	4	1	0	737	1	4	0	224	10	0	0	100
fixed	7	1	11	1429618	5	2	2	1	0	828	1	4	0	208	11	0	0	100
fixed	7	1	12	1431205	4	3	3	1	0	785	1	4	0	216	12	0	0	100
fixed	7	2	1	1433178	4	1	1	1	0	933	1	4	0	200	1	0	0	8
fixed	7	2	2	1435074	1	2	0	0	2	0	3	4	0	208	1	0	1	7
fixed	7	2	3	1438022	6	4	4	1	0	704	1	4	0	224	2	0	1	13
fixed	7	2	4	1439160	2	1	1	1	0	960	1	4	0	200	3	0	1	19
fixed	7	2	5	1440949	5	3	3	1	0	676	1	4	0	216	4	0	1	24
fixed	7	2	6	1442615	6	4	4	1	0	742	1	4	0	224	5	0	1	28
fixed	7	2	7	1444081	3	1	1	1	0	744	1	4	0	200	6	0	1	32
fixed	7	2	8	1445555	2	3	0	0	2	0	3	4	0	216	6	0	2	30
fixed	7	2	9	1448611	3	2	2	1	0	776	1	4	0	208	7	0	2	33
fixed	7	2	10	1450393	1	4	4	1	0	868	1	4	0	224	8	0	2	36
fixed	7	2	11	1451754	5	2	2	1	0	818	1	4	0	208	9	0	2	39
fixed	7	2	12	1453249	4	3	3	1	0	763	1	4	0	216	10	0	2	42
fixed	7	3	1	1455032	4	1	1	2	0	1144	2	4	0	200	1	0	0	4
fixed	7	3	2	1456470	1	2	2	1	0	731	1	4	0	208	2	0	0	8
fixed	7	3	3	1458056	6	4	4	1	0	712	1	4	0	224	3	0	0	11
fixed	7	3	4	1459157	2	1	1	1	0	1049	1	4	0	200	4	0	0	14
fixed	7	3	5	1460963	5	3	3	1	0	949	1	4	0	216	5	0	0	17
fixed	7	3	6	1462737	6	4	4	1	0	1738	1	4	0	224	6	0	0	20
fixed	7	3	7	1465511	3	1	1	1	0	820	1	4	0	200	7	0	0	23
fixed	7	3	8	1467264	2	3	3	1	0	754	1	4	0	216	8	0	0	25
fixed	7	3	9	1468862	3	2	0	0	2	0	3	4	0	208	8	0	1	24
fixed	7	3	10	1471666	1	4	4	1	0	792	1	4	0	224	9	0	1	26
fixed	7	3	11	1472937	5	2	2	1	0	722	1	4	0	208	10	0	1	29
fixed	7	3	12	1474255	4	3	3	2	0	2418	2	4	0	216	11	0	1	31
fixed	7	4	1	1477537	4	1	1	1	0	871	1	4	0	200	1	0	0	3
fixed	7	4	2	1479163	1	2	0	1	2	0	3	4	0	208	1	0	1	3
fixed	7	4	3	1482083	6	4	4	1	0	1046	1	4	0	224	2	0	1	5
fixed	7	4	4	1483659	2	1	1	1	0	924	1	4	0	200	3	0	1	8
fixed	7	4	5	1485465	5	3	3	1	0	1351	1	4	0	216	4	0	1	10
fixed	7	4	6	1487658	6	4	4	1	0	866	1	4	0	224	5	0	1	12
fixed	7	4	7	1488975	3	1	1	1	0	898	1	4	0	200	6	0	1	14
fixed	7	4	8	1490607	2	3	3	1	0	1125	1	4	0	216	7	0	1	16
fixed	7	4	9	1492322	3	2	2	1	0	892	1	4	0	208	8	0	1	18
fixed	7	4	10	1494193	1	4	4	1	0	781	1	4	0	224	9	0	1	20
fixed	7	4	11	1495900	5	2	2	1	0	757	1	4	0	208	10	0	1	21
fixed	7	4	12	1497200	4	3	3	1	0	846	1	4	0	216	11	0	1	23
fixed	7	5	1	1499340	4	1	1	1	0	819	1	4	0	200	1	0	0	2
fixed	7	5	2	1500610	1	2	2	1	0	837	1	4	0	208	2	0	0	4
fixed	7	5	3	1502039	6	4	4	1	0	721	1	4	0	224	3	0	0	6
fixed	7	5	4	1503110	2	1	1	1	0	940	1	4	0	200	4	0	0	8
fixed	7	5	5	1504895	5	3	3	1	0	968	1	4	0	216	5	0	0	9
fixed	7	5	6	1506440	6	4	4	1	0	766	1	4	0	224	6	0	0	11
fixed	7	5	7	1508028	3	1	1	2	0	939	2	4	0	200	7	0	0	13
fixed	7	5	8	1509390	2	3	3	1	0	810	1	4	0	216	8	0	0	14
fixed	7	5	9	1511060	3	2	2	1	0	1755	1	4	0	208	9	0	0	16
fixed	7	5	10	1513306	1	4	4	1	0	707	1	4	0	224	10	0	0	17
fixed	7	5	11	1514581	5	2	2	1	0	886	1	4	0	208	11	0	0	19
fixed	7	5	12	1515973	4	3	3	1	0	867	1	4	0	216	12	0	0	20
fixed	7	6	1	1517435	4	1	1	1	0	1045	1	4	0	200	1	0	0	2
fixed	7	6	2	1519200	1	2	2	1	0	738	1	4	0	208	2	0	0	3
fixed	7	6	3	1520635	6	4	4	1	0	1093	1	4	0	224	3	0	0	5
fixed	7	6	4	1522167	2	1	0	2	2	0	3	4	0	200	3	0	1	5
fixed	7	6	5	1525047	5	3	3	1	0	851	1	4	0	216	4	0	1	6
fixed	7	6	6	1526293	6	4	4	3	0	2022	2	4	0	224	5	0	1	8
fixed	7	6	7	1529181	3	1	1	1	0	859	1	4	0	200	6	0	1	9
fixed	7	6	8	1530502	2	3	3	1	0	883	1	4	0	216	7	0	1	10
fixed	7	6	9	1531726	3	2	2	1	0	768	1	4	0	208	8	0	1	12
fixed	7	6	10	1533237	1	4	4	1	0	759	1	4	0	224	9	0	1	13
fixed	7	6	11	1534629	5	2	2	1	0	764	1	4	0	208	10	0	1	14
fixed	7	6	12	1536012	4	3	3	1	0	794	1	4	0	216	11	0	1	15
fixed	7	7	1	1537668	4	1	1	1	0	1012	1	4	0	200	1	0	0	1
fixed	7	7	2	1539665	1	2	2	1	0	1207	1	4	0	208	2	0	0	3
fixed	7	7	3	1541471	6	4	4	1	0	723	1	4	0	224	3	0	0	4
fixed	7	7	4	1542629	2	1	1	1	0	1057	1	4	0	200	4	0	0	5
fixed	7	7	5	1544380	5	3	3	1	0	24	1	4	0	216	5	0	0	6
fixed	7	7	6	1545188	6	4	4	1	0	765	1	4	0	224	6	0	0	8
fixed	7	7	7	1546301	3	1	1	2	0	1118	2	4	0	200	7	0	0	9
fixed	7	7	8	1548157	2	3	3	1	0	880	1	4	0	216	8	0	0	10
fixed	7	7	9	1549976	3	2	2	1	0	1171	1	4	0	208	9	0	0	11
fixed	7	7	10	1552031	1	4	4	1	0	740	1	4	0	224	10	0	0	12
fixed	7	7	11	1553530	5	2	2	1	0	948	1	4	0	208	11	0	0	13
fixed	7	7	12	1555462	4	3	3	1	0	418	1	4	0	216	12	0	0	14
fixed	7	8	1	1556832	4	1	1	1	0	1416	1	4	0	200	1	0	0	1
fixed	7	8	2	1558716	1	2	2	1	0	817	1	4	0	208	2	0	0	2
fixed	7	8	3	1559823	6	4	4	1	0	921	1	4	0	224	3	0	0	3
fixed	7	8	4	1561640	2	1	1	2	0	837	2	4	0	200	4	0	0	5
fixed	7	8	5	1563251	5	3	3	1	0	1664	1	4	0	216	5	0	0	6
fixed	7	8	6	1565235	6	4	4	1	0	900	1	4	0	224	6	0	0	7
fixed	7	8	7	1566471	3	1	1	3	0	1376	2	4	0	200	7	0	0	8
fixed	7	8	8	1568880	2	3	0	0	2	0	3	4	0	216	7	0	1	8
fixed	7	8	9	1572182	3	2	0	0	2	0	3	4	0	208	7	0	2	8
fixed	7	8	10	1575596	1	4	0	0	2	0	3	4	0	224	7	0	3	7
fixed	7	8	11	1578558	5	2	0	0	2	0	3	4	0	208	7	0	4	7
fixed	7	8	12	1581471	4	3	0	0	2	0	3	4	0	216	7	0	5	7
fixed	7	9	1	1584867	4	1	1	1	0	1780	1	4	0	200	1	0	0	1
fixed	7	9	2	1586988	1	2	2	1	0	2091	1	4	0	208	2	0	0	2
fixed	7	9	3	1589943	6	4	4	1	0	741	1	4	0	224	3	0	0	3
fixed	7	9	4	1591696	2	1	1	1	0	836	1	4	0	200	4	0	0	4
fixed	7	9	5	1593283	5	3	3	1	0	929	1	4	0	216	5	0	0	5
fixed	7	9	6	1594554	6	4	4	1	0	1075	1	4	0	224	6	0	0	6
fixed	7	9	7	1596467	3	1	1	2	0	1009	2	4	0	200	7	0	0	7
fixed	7	9	8	1597880	2	3	3	1	0	885	1	4	0	216	8	0	0	8
fixed	7	9	9	1599074	3	2	2	1	0	803	1	4	0	208	9	0	0	9
fixed	7	9	10	1600707	1	4	4	1	0	598	1	4	0	224	10	0	0	9
fixed	7	9	11	1601886	5	2	2	1	0	788	1	4	0	208	11	0	0	10
fixed	7	9	12	1603350	4	3	0	1	2	0	3	4	0	216	11	0	1	10
fixed	7	10	1	1606837	4	1	1	2	0	930	2	4	0	200	1	0	0	1
fixed	7	10	2	1608220	1	2	0	1	2	0	3	4	0	208	1	0	1	1
fixed	7	10	3	1611312	6	4	4	1	0	677	1	4	0	224	2	0	1	2
fixed	7	10	4	1612476	2	1	1	1	0	867	1	4	0	200	3	0	1	3
fixed	7	10	5	1614019	5	3	3	1	0	1034	1	4	0	216	4	0	1	4
fixed	7	10	6	1615823	6	4	4	1	0	694	1	4	0	224	5	0	1	4
fixed	7	10	7	1617085	3	1	1	1	0	928	1	4	0	200	6	0	1	5
fixed	7	10	8	1618375	2	3	3	2	0	1242	2	4	0	216	7	0	1	6
fixed	7	10	9	1620056	3	2	2	1	0	658	1	4	0	208	8	0	1	7
fixed	7	10	10	1621588	1	4	4	1	0	609	1	4	0	224	9	0	1	8
fixed	7	10	11	1622717	5	2	2	3	0	1242	2	4	0	208	10	0	1	8
fixed	7	10	12	1624705	4	3	3	1	0	901	1	4	0	216	11	0	1	9
