type	block	sequ.	trial	time	Pos.	Color	Button	NumRsp	Resp_1	RT_1	R_Code	Resp_2	RT_2	Trigg.	n_hit	n_inc	n_miss	score_%

random	1	1	1	5660	6	1	1	1	0	1682	1	4	0	8	1	0	0	100
random	1	1	2	7918	4	4	4	1	0	1218	1	4	0	32	2	0	0	100
random	1	1	3	9691	2	2	2	1	0	1343	1	4	0	16	3	0	0	100
random	1	1	4	11799	3	3	3	1	0	990	1	4	0	24	4	0	0	100
random	1	1	5	13196	5	2	2	1	0	1307	1	4	0	16	5	0	0	100
random	1	1	6	15074	1	4	4	1	0	995	1	4	0	32	6	0	0	100
random	1	1	7	16828	6	1	1	1	0	1017	1	4	0	8	7	0	0	100
random	1	1	8	18598	2	3	3	2	0	2486	2	4	0	24	8	0	0	100
random	1	1	9	21377	4	2	2	1	0	1017	1	4	0	16	9	0	0	100
random	1	1	10	22903	1	1	1	1	0	903	1	4	0	8	10	0	0	100
random	1	1	11	24754	5	4	4	1	0	826	1	4	0	32	11	0	0	100
random	1	1	12	26147	3	3	3	1	0	1518	1	4	0	24	12	0	0	100
random	1	1	13	28735	5	2	2	1	0	1337	1	4	0	16	13	0	0	100
random	1	1	14	30544	1	4	4	1	0	1028	1	4	0	32	14	0	0	100
random	1	1	15	32246	3	1	1	1	0	876	1	4	0	8	15	0	0	100
random	1	1	16	33689	4	3	3	1	0	967	1	4	0	24	16	0	0	100
random	1	1	17	35535	6	4	4	1	0	929	1	4	0	32	17	0	0	100
random	1	1	18	37238	2	1	1	1	0	856	1	4	0	8	18	0	0	100
random	1	1	19	38690	5	3	3	1	0	1155	1	4	0	24	19	0	0	100
random	1	1	20	40340	2	2	2	1	0	1213	1	4	0	16	20	0	0	100
random	1	1	21	41914	3	3	3	1	0	987	1	4	0	24	21	0	0	100
random	1	1	22	43544	6	1	1	1	0	814	1	4	0	8	22	0	0	100
random	1	1	23	45373	4	2	2	1	0	1160	1	4	0	16	23	0	0	100
random	1	1	24	47387	1	4	4	1	0	715	1	4	0	32	24	0	0	100
random	1	1	25	49202	4	3	3	1	0	1222	1	4	0	24	25	0	0	100
random	1	1	26	50922	2	1	1	1	0	821	1	4	0	8	26	0	0	100
random	1	1	27	52170	5	2	2	1	0	1048	1	4	0	16	27	0	0	100
random	1	1	28	53579	6	4	4	1	0	676	1	4	0	32	28	0	0	100
random	1	1	29	55135	1	3	3	1	0	1394	1	4	0	24	29	0	0	100
random	1	1	30	57024	5	2	2	2	0	2066	2	4	0	16	30	0	0	100
random	1	1	31	60092	2	1	1	1	0	849	1	4	0	8	31	0	0	100
random	1	1	32	61851	3	3	3	1	0	926	1	4	0	24	32	0	0	100
random	1	1	33	63548	6	4	4	1	0	814	1	4	0	32	33	0	0	100
random	1	1	34	65281	4	2	2	1	0	1749	1	4	0	16	34	0	0	100
random	1	1	35	67625	3	4	4	1	0	690	1	4	0	32	35	0	0	100
random	1	1	36	68651	1	1	1	1	0	910	1	4	0	8	36	0	0	100
random	1	1	37	70605	3	4	4	1	0	843	1	4	0	32	37	0	0	100
random	1	1	38	72344	5	3	3	1	0	1378	1	4	0	24	38	0	0	100
random	1	1	39	74176	6	1	1	1	0	756	1	4	0	8	39	0	0	100
random	1	1	40	75260	1	2	2	1	0	646	1	4	0	16	40	0	0	100
random	1	1	41	76806	2	3	3	2	0	1125	2	4	0	24	41	0	0	100
random	1	1	42	78348	4	4	4	1	0	843	1	4	0	32	42	0	0	100
random	1	1	43	79725	1	2	2	1	0	1065	1	4	0	16	43	0	0	100
random	1	1	44	81588	6	3	3	1	0	954	1	4	0	24	44	0	0	100
random	1	1	45	83276	3	1	1	1	0	675	1	4	0	8	45	0	0	100
random	1	1	46	84287	4	4	4	1	0	760	1	4	0	32	46	0	0	100
random	1	1	47	85818	2	2	2	1	0	1407	1	4	0	16	47	0	0	100
random	1	1	48	88163	5	1	1	1	0	715	1	4	0	8	48	0	0	100
random	1	1	49	89435	2	3	3	2	0	1550	2	4	0	24	49	0	0	100
random	1	1	50	91822	3	1	1	1	0	776	1	4	0	8	50	0	0	100
random	1	1	51	93104	1	4	4	1	0	803	1	4	0	32	51	0	0	100
random	1	1	52	94647	5	3	3	1	0	1441	1	4	0	24	52	0	0	100
random	1	1	53	96677	3	2	2	1	0	1107	1	4	0	16	53	0	0	100
random	1	1	54	98690	6	4	4	1	0	830	1	4	0	32	54	0	0	100
random	1	1	55	100522	4	2	2	1	0	960	1	4	0	16	55	0	0	100
random	1	1	56	102430	1	1	1	1	0	808	1	4	0	8	56	0	0	100
random	1	1	57	103521	5	4	4	1	0	801	1	4	0	32	57	0	0	100
random	1	1	58	104938	2	1	1	1	0	853	1	4	0	8	58	0	0	100
random	1	1	59	106686	6	2	2	1	0	1003	1	4	0	16	59	0	0	100
random	1	1	60	108285	4	3	3	1	0	687	1	4	0	24	60	0	0	100
random	1	1	61	109668	1	2	2	1	0	1181	1	4	0	16	61	0	0	100
random	1	1	62	111458	6	4	4	1	0	873	1	4	0	32	62	0	0	100
random	1	1	63	113370	4	1	1	1	0	504	1	4	0	8	63	0	0	100
random	1	1	64	114550	2	2	2	1	0	838	1	4	0	16	64	0	0	100
random	1	1	65	116097	4	3	3	1	0	1205	1	4	0	24	65	0	0	100
random	1	1	66	118092	3	1	1	1	0	816	1	4	0	8	66	0	0	100
random	1	1	67	119262	1	3	3	1	0	1262	1	4	0	24	67	0	0	100
random	1	1	68	121318	5	4	4	1	0	559	1	4	0	32	68	0	0	100
random	1	1	69	122833	2	2	2	1	0	807	1	4	0	16	69	0	0	100
random	1	1	70	123937	3	1	1	1	0	680	1	4	0	8	70	0	0	100
random	1	1	71	125424	5	4	4	1	0	753	1	4	0	32	71	0	0	100
random	1	1	72	127196	6	3	3	1	0	1126	1	4	0	24	72	0	0	100
random	1	1	73	129049	2	1	1	1	0	928	1	4	0	8	73	0	0	100
random	1	1	74	130330	5	3	3	1	0	930	1	4	0	24	74	0	0	100
random	1	1	75	131582	1	4	4	1	0	941	1	4	0	32	75	0	0	100
random	1	1	76	133500	6	2	2	1	0	987	1	4	0	16	76	0	0	100
random	1	1	77	135062	2	1	1	1	0	865	1	4	0	8	77	0	0	100
random	1	1	78	136344	4	4	4	1	0	859	1	4	0	32	78	0	0	100
random	1	1	79	137643	3	2	2	1	0	1108	1	4	0	16	79	0	0	100
random	1	1	80	139217	4	3	3	1	0	937	1	4	0	24	80	0	0	100
random	1	1	81	140582	1	4	4	1	0	735	1	4	0	32	81	0	0	100
random	1	1	82	141839	5	1	1	1	0	706	1	4	0	8	82	0	0	100
random	1	1	83	143062	3	2	2	1	0	1215	1	4	0	16	83	0	0	100
random	1	1	84	144767	6	3	3	1	0	775	1	4	0	24	84	0	0	100
random	1	1	85	146257	3	2	2	1	0	927	1	4	0	16	85	0	0	100
random	1	1	86	148156	1	3	3	1	0	623	1	4	0	24	86	0	0	100
random	1	1	87	149698	4	4	4	1	0	629	1	4	0	32	87	0	0	100
random	1	1	88	150774	2	1	1	1	0	392	1	4	0	8	88	0	0	100
random	1	1	89	151548	6	4	4	1	0	703	1	4	0	32	89	0	0	100
random	1	1	90	153200	3	3	3	1	0	1113	1	4	0	24	90	0	0	100
random	1	1	91	154810	5	4	4	1	0	980	1	4	0	32	91	0	0	100
random	1	1	92	156617	1	2	2	1	0	1808	1	4	0	16	92	0	0	100
random	1	1	93	158975	5	1	1	1	0	836	1	4	0	8	93	0	0	100
random	1	1	94	160851	4	3	3	1	0	1493	1	4	0	24	94	0	0	100
random	1	1	95	162646	6	1	1	1	0	1153	1	4	0	8	95	0	0	100
random	1	1	96	164495	2	2	2	1	0	1203	1	4	0	16	96	0	0	100
random	1	1	97	166290	4	3	3	2	0	1758	2	4	0	24	97	0	0	100
random	1	1	98	168922	3	2	2	1	0	1127	1	4	0	16	98	0	0	100
random	1	1	99	170480	6	3	3	1	0	1453	1	4	0	24	99	0	0	100
random	1	1	100	172552	1	4	4	1	0	742	1	4	0	32	100	0	0	100
random	1	1	101	173967	4	1	1	1	0	530	1	4	0	8	101	0	0	100
random	1	1	102	175038	5	2	2	1	0	980	1	4	0	16	102	0	0	100
random	1	1	103	176336	2	4	4	1	0	1357	1	4	0	32	103	0	0	100
random	1	1	104	178513	3	1	1	1	0	889	1	4	0	8	104	0	0	100
random	1	1	105	180408	1	3	3	1	0	1152	1	4	0	24	105	0	0	100
random	1	1	106	182150	2	2	2	1	0	575	1	4	0	16	106	0	0	100
random	1	1	107	183063	5	4	4	1	0	744	1	4	0	32	107	0	0	100
random	1	1	108	184728	6	1	1	1	0	602	1	4	0	8	108	0	0	100
random	1	1	109	186055	5	4	4	1	0	785	1	4	0	32	109	0	0	100
random	1	1	110	187228	6	3	3	1	0	1056	1	4	0	24	110	0	0	100
random	1	1	111	189224	2	2	2	1	0	491	1	4	0	16	111	0	0	100
random	1	1	112	190306	3	1	1	1	0	397	1	4	0	8	112	0	0	100
random	1	1	113	191188	1	2	2	1	0	1352	1	4	0	16	113	0	0	100
random	1	1	114	193314	2	3	3	1	0	630	1	4	0	24	114	0	0	100
random	1	1	115	194916	3	1	1	1	0	826	1	4	0	8	115	0	0	100
random	1	1	116	196197	4	4	4	1	0	500	1	4	0	32	116	0	0	100
random	1	1	117	197676	6	1	1	1	0	1285	1	4	0	8	117	0	0	100
random	1	1	118	199912	5	3	3	1	0	1198	1	4	0	24	118	0	0	100
random	1	1	119	202050	1	4	4	1	0	644	1	4	0	32	119	0	0	100
random	1	1	120	203729	4	2	2	1	0	405	1	4	0	16	120	0	0	100
fixed	2	1	1	205066	4	1	1	1	0	900	1	4	0	40	1	0	0	100
fixed	2	1	2	206515	1	2	2	1	0	1311	1	4	0	48	2	0	0	100
fixed	2	1	3	208246	6	4	4	1	0	709	1	4	0	64	3	0	0	100
fixed	2	1	4	209808	2	1	1	1	0	780	1	4	0	40	4	0	0	100
fixed	2	1	5	211402	5	3	3	1	0	1592	1	4	0	56	5	0	0	100
fixed	2	1	6	213326	6	4	4	1	0	910	1	4	0	64	6	0	0	100
fixed	2	1	7	215048	3	1	1	1	0	733	1	4	0	40	7	0	0	100
fixed	2	1	8	216412	2	3	3	1	0	1395	1	4	0	56	8	0	0	100
fixed	2	1	9	218618	3	2	2	1	0	982	1	4	0	48	9	0	0	100
fixed	2	1	10	219901	1	4	4	1	0	736	1	4	0	64	10	0	0	100
fixed	2	1	11	221231	5	2	2	1	0	1192	1	4	0	48	11	0	0	100
fixed	2	1	12	222833	4	3	3	1	0	1100	1	4	0	56	12	0	0	100
fixed	2	2	1	224550	4	1	1	1	0	587	1	4	0	40	13	0	0	100
fixed	2	2	2	226174	1	2	2	1	0	1062	1	4	0	48	14	0	0	100
fixed	2	2	3	227760	6	4	4	1	0	611	1	4	0	64	15	0	0	100
fixed	2	2	4	229290	2	1	1	1	0	682	1	4	0	40	16	0	0	100
fixed	2	2	5	230692	5	3	3	1	0	807	1	4	0	56	17	0	0	100
fixed	2	2	6	232361	6	4	4	1	0	832	1	4	0	64	18	0	0	100
fixed	2	2	7	233528	3	1	1	1	0	1007	1	4	0	40	19	0	0	100
fixed	2	2	8	235259	2	3	3	1	0	1285	1	4	0	56	20	0	0	100
fixed	2	2	9	237128	3	2	2	1	0	735	1	4	0	48	21	0	0	100
fixed	2	2	10	238771	1	4	4	1	0	640	1	4	0	64	22	0	0	100
fixed	2	2	11	239967	5	2	2	1	0	1110	1	4	0	48	23	0	0	100
fixed	2	2	12	241489	4	3	3	1	0	837	1	4	0	56	24	0	0	100
fixed	2	3	1	243346	4	1	1	1	0	743	1	4	0	40	25	0	0	100
fixed	2	3	2	244754	1	2	0	1	2	0	3	4	0	48	25	0	1	96
fixed	2	3	3	248150	6	4	4	1	0	1051	1	4	0	64	26	0	1	96
fixed	2	3	4	249875	2	1	1	1	0	779	1	4	0	40	27	0	1	96
fixed	2	3	5	250972	5	3	3	1	0	1380	1	4	0	56	28	0	1	97
fixed	2	3	6	253065	6	4	4	1	0	739	1	4	0	64	29	0	1	97
fixed	2	3	7	254676	3	1	1	1	0	863	1	4	0	40	30	0	1	97
fixed	2	3	8	255860	2	3	3	1	0	1445	1	4	0	56	31	0	1	97
fixed	2	3	9	258274	3	2	2	1	0	543	1	4	0	48	32	0	1	97
fixed	2	3	10	259729	1	4	4	1	0	689	1	4	0	64	33	0	1	97
fixed	2	3	11	261132	5	2	2	1	0	1118	1	4	0	48	34	0	1	97
fixed	2	3	12	263185	4	3	3	1	0	823	1	4	0	56	35	0	1	97
fixed	2	4	1	265032	4	1	1	1	0	752	1	4	0	40	36	0	1	97
fixed	2	4	2	266580	1	2	2	1	0	1055	1	4	0	48	37	0	1	97
fixed	2	4	3	268314	6	4	0	0	2	0	3	4	0	64	37	0	2	95
fixed	2	4	4	271809	2	1	1	1	0	841	1	4	0	40	38	0	2	95
fixed	2	4	5	273460	5	3	3	2	0	1907	2	4	0	56	39	0	2	95
fixed	2	4	6	276156	6	4	4	1	0	761	1	4	0	64	40	0	2	95
fixed	2	4	7	277305	3	1	1	1	0	753	1	4	0	40	41	0	2	95
fixed	2	4	8	278629	2	3	3	1	0	1873	1	4	0	56	42	0	2	95
fixed	2	4	9	281394	3	2	2	1	0	699	1	4	0	48	43	0	2	96
fixed	2	4	10	282990	1	4	4	1	0	896	1	4	0	64	44	0	2	96
fixed	2	4	11	284812	5	2	2	1	0	1178	1	4	0	48	45	0	2	96
fixed	2	4	12	286717	4	3	3	1	0	585	1	4	0	56	46	0	2	96
fixed	2	5	1	288273	4	1	1	1	0	712	1	4	0	40	47	0	2	96
fixed	2	5	2	289282	1	2	2	1	0	1021	1	4	0	48	48	0	2	96
fixed	2	5	3	291300	6	4	4	1	0	712	1	4	0	64	49	0	2	96
fixed	2	5	4	292825	2	1	1	1	0	639	1	4	0	40	50	0	2	96
fixed	2	5	5	294365	5	3	3	1	0	630	1	4	0	56	51	0	2	96
fixed	2	5	6	295937	6	4	4	1	0	708	1	4	0	64	52	0	2	96
fixed	2	5	7	297040	3	1	1	1	0	813	1	4	0	40	53	0	2	96
fixed	2	5	8	298843	2	3	3	1	0	1328	1	4	0	56	54	0	2	96
fixed	2	5	9	301092	3	2	2	1	0	409	1	4	0	48	55	0	2	96
fixed	2	5	10	302262	1	4	4	1	0	759	1	4	0	64	56	0	2	97
fixed	2	5	11	303445	5	2	2	1	0	1253	1	4	0	48	57	0	2	97
fixed	2	5	12	305114	4	3	3	1	0	494	1	4	0	56	58	0	2	97
fixed	2	6	1	306684	4	1	1	1	0	580	1	4	0	40	59	0	2	97
fixed	2	6	2	307654	1	2	2	1	0	987	1	4	0	48	60	0	2	97
fixed	2	6	3	309245	6	4	4	1	0	664	1	4	0	64	61	0	2	97
fixed	2	6	4	310610	2	1	1	1	0	646	1	4	0	40	62	0	2	97
fixed	2	6	5	312242	5	3	3	1	0	521	1	4	0	56	63	0	2	97
fixed	2	6	6	313679	6	4	4	1	0	1284	1	4	0	64	64	0	2	97
fixed	2	6	7	315928	3	1	1	1	0	460	1	4	0	40	65	0	2	97
fixed	2	6	8	316962	2	3	3	1	0	1033	1	4	0	56	66	0	2	97
fixed	2	6	9	318486	3	2	2	1	0	608	1	4	0	48	67	0	2	97
fixed	2	6	10	319983	1	4	4	1	0	577	1	4	0	64	68	0	2	97
fixed	2	6	11	321425	5	2	2	1	0	988	1	4	0	48	69	0	2	97
fixed	2	6	12	322739	4	3	3	1	0	540	1	4	0	56	70	0	2	97
fixed	2	7	1	324161	4	1	1	1	0	536	1	4	0	40	71	0	2	97
fixed	2	7	2	325673	1	2	2	1	0	928	1	4	0	48	72	0	2	97
fixed	2	7	3	327172	6	4	4	1	0	992	1	4	0	64	73	0	2	97
fixed	2	7	4	329173	2	1	1	1	0	819	1	4	0	40	74	0	2	97
fixed	2	7	5	330772	5	3	3	1	0	688	1	4	0	56	75	0	2	97
fixed	2	7	6	331929	6	4	4	1	0	1119	1	4	0	64	76	0	2	97
fixed	2	7	7	333556	3	1	1	1	0	714	1	4	0	40	77	0	2	97
fixed	2	7	8	335027	2	3	3	2	0	1148	2	4	0	56	78	0	2	98
fixed	2	7	9	336787	3	2	2	1	0	945	1	4	0	48	79	0	2	98
fixed	2	7	10	338636	1	4	4	1	0	755	1	4	0	64	80	0	2	98
fixed	2	7	11	340256	5	2	2	1	0	1014	1	4	0	48	81	0	2	98
fixed	2	7	12	341651	4	3	3	1	0	907	1	4	0	56	82	0	2	98
fixed	2	8	1	343508	4	1	1	1	0	708	1	4	0	40	83	0	2	98
fixed	2	8	2	344558	1	2	2	1	0	1296	1	4	0	48	84	0	2	98
fixed	2	8	3	346569	6	4	4	1	0	691	1	4	0	64	85	0	2	98
fixed	2	8	4	347597	2	1	1	1	0	1575	1	4	0	40	86	0	2	98
fixed	2	8	5	349522	5	3	3	1	0	813	1	4	0	56	87	0	2	98
fixed	2	8	6	350842	6	4	4	1	0	909	1	4	0	64	88	0	2	98
fixed	2	8	7	352154	3	1	1	1	0	670	1	4	0	40	89	0	2	98
fixed	2	8	8	353835	2	3	3	1	0	1319	1	4	0	56	90	0	2	98
fixed	2	8	9	355785	3	2	2	1	0	661	1	4	0	48	91	0	2	98
fixed	2	8	10	357458	1	4	4	1	0	893	1	4	0	64	92	0	2	98
fixed	2	8	11	358737	5	2	2	1	0	1271	1	4	0	48	93	0	2	98
fixed	2	8	12	360639	4	3	3	2	0	1111	2	4	0	56	94	0	2	98
fixed	2	9	1	362572	4	1	1	1	0	645	1	4	0	40	95	0	2	98
fixed	2	9	2	364242	1	2	2	1	0	1294	1	4	0	48	96	0	2	98
fixed	2	9	3	366174	6	4	4	1	0	797	1	4	0	64	97	0	2	98
fixed	2	9	4	367901	2	1	1	1	0	931	1	4	0	40	98	0	2	98
fixed	2	9	5	369518	5	3	3	1	0	983	1	4	0	56	99	0	2	98
fixed	2	9	6	371060	6	4	4	1	0	797	1	4	0	64	100	0	2	98
fixed	2	9	7	372493	3	1	1	1	0	857	1	4	0	40	101	0	2	98
fixed	2	9	8	374217	2	3	3	1	0	1223	1	4	0	56	102	0	2	98
fixed	2	9	9	376250	3	2	2	1	0	594	1	4	0	48	103	0	2	98
fixed	2	9	10	377799	1	4	4	1	0	928	1	4	0	64	104	0	2	98
fixed	2	9	11	379710	5	2	2	1	0	863	1	4	0	48	105	0	2	98
fixed	2	9	12	381108	4	3	3	1	0	604	1	4	0	56	106	0	2	98
fixed	2	10	1	382487	4	1	1	1	0	433	1	4	0	40	107	0	2	98
fixed	2	10	2	383317	1	2	2	1	0	950	1	4	0	48	108	0	2	98
fixed	2	10	3	384939	6	4	4	1	0	650	1	4	0	64	109	0	2	98
fixed	2	10	4	386253	2	1	1	1	0	618	1	4	0	40	110	0	2	98
fixed	2	10	5	387270	5	3	3	1	0	679	1	4	0	56	111	0	2	98
fixed	2	10	6	388766	6	4	4	1	0	808	1	4	0	64	112	0	2	98
fixed	2	10	7	390009	3	1	1	1	0	643	1	4	0	40	113	0	2	98
fixed	2	10	8	391112	2	3	3	1	0	1540	1	4	0	56	114	0	2	98
fixed	2	10	9	393503	3	2	2	1	0	591	1	4	0	48	115	0	2	98
fixed	2	10	10	394575	1	4	4	1	0	1033	1	4	0	64	116	0	2	98
fixed	2	10	11	396221	5	2	2	1	0	900	1	4	0	48	117	0	2	98
fixed	2	10	12	397812	4	3	3	1	0	480	1	4	0	56	118	0	2	98
fixed	3	1	1	399360	4	1	1	2	0	1166	2	4	0	72	1	0	0	100
fixed	3	1	2	401428	1	2	2	1	0	2047	1	4	0	80	2	0	0	100
fixed	3	1	3	403840	6	4	4	1	0	769	1	4	0	96	3	0	0	100
fixed	3	1	4	404989	2	1	1	1	0	649	1	4	0	72	4	0	0	100
fixed	3	1	5	406023	5	3	3	1	0	597	1	4	0	88	5	0	0	100
fixed	3	1	6	407205	6	4	4	1	0	811	1	4	0	96	6	0	0	100
fixed	3	1	7	408754	3	1	1	1	0	577	1	4	0	72	7	0	0	100
fixed	3	1	8	409765	2	3	3	1	0	1070	1	4	0	88	8	0	0	100
fixed	3	1	9	411750	3	2	2	1	0	746	1	4	0	80	9	0	0	100
fixed	3	1	10	413025	1	4	4	1	0	1284	1	4	0	96	10	0	0	100
fixed	3	1	11	414734	5	2	2	1	0	867	1	4	0	80	11	0	0	100
fixed	3	1	12	416177	4	3	3	1	0	414	1	4	0	88	12	0	0	100
fixed	3	2	1	417557	4	1	1	1	0	788	1	4	0	72	13	0	0	100
fixed	3	2	2	418744	1	2	2	1	0	1569	1	4	0	80	14	0	0	100
fixed	3	2	3	420790	6	4	4	1	0	691	1	4	0	96	15	0	0	100
fixed	3	2	4	422277	2	1	1	1	0	764	1	4	0	72	16	0	0	100
fixed	3	2	5	423697	5	3	3	1	0	800	1	4	0	88	17	0	0	100
fixed	3	2	6	424903	6	4	4	1	0	1277	1	4	0	96	18	0	0	100
fixed	3	2	7	426708	3	1	1	1	0	713	1	4	0	72	19	0	0	100
fixed	3	2	8	428444	2	3	3	1	0	1375	1	4	0	88	20	0	0	100
fixed	3	2	9	430564	3	2	2	1	0	637	1	4	0	80	21	0	0	100
fixed	3	2	10	431950	1	4	4	1	0	666	1	4	0	96	22	0	0	100
fixed	3	2	11	432962	5	2	2	1	0	1663	1	4	0	80	23	0	0	100
fixed	3	2	12	435355	4	3	3	1	0	490	1	4	0	88	24	0	0	100
fixed	3	3	1	437138	4	1	1	1	0	782	1	4	0	72	25	0	0	100
fixed	3	3	2	438270	1	2	2	1	0	1119	1	4	0	80	26	0	0	100
fixed	3	3	3	439931	6	4	4	1	0	592	1	4	0	96	27	0	0	100
fixed	3	3	4	441108	2	1	1	1	0	623	1	4	0	72	28	0	0	100
fixed	3	3	5	442470	5	3	3	1	0	517	1	4	0	88	29	0	0	100
fixed	3	3	6	443951	6	4	4	1	0	870	1	4	0	96	30	0	0	100
fixed	3	3	7	445228	3	1	1	1	0	704	1	4	0	72	31	0	0	100
fixed	3	3	8	446457	2	3	3	1	0	1540	1	4	0	88	32	0	0	100
fixed	3	3	9	449000	3	2	2	2	0	464	2	4	0	80	33	0	0	100
fixed	3	3	10	450333	1	4	4	1	0	864	1	4	0	96	34	0	0	100
fixed	3	3	11	451942	5	2	2	1	0	2083	1	4	0	80	35	0	0	100
fixed	3	3	12	454729	4	3	3	1	0	589	1	4	0	88	36	0	0	100
fixed	3	4	1	456619	4	1	1	1	0	701	1	4	0	72	37	0	0	100
fixed	3	4	2	458226	1	2	2	1	0	961	1	4	0	80	38	0	0	100
fixed	3	4	3	459974	6	4	4	1	0	720	1	4	0	96	39	0	0	100
fixed	3	4	4	461235	2	1	1	1	0	1106	1	4	0	72	40	0	0	100
fixed	3	4	5	463044	5	3	3	1	0	974	1	4	0	88	41	0	0	100
fixed	3	4	6	464834	6	4	4	1	0	722	1	4	0	96	42	0	0	100
fixed	3	4	7	466467	3	1	1	1	0	1052	1	4	0	72	43	0	0	100
fixed	3	4	8	468417	2	3	3	1	0	1218	1	4	0	88	44	0	0	100
fixed	3	4	9	470239	3	2	2	1	0	509	1	4	0	80	45	0	0	100
fixed	3	4	10	471710	1	4	4	1	0	454	1	4	0	96	46	0	0	100
fixed	3	4	11	472834	5	2	2	1	0	1255	1	4	0	80	47	0	0	100
fixed	3	4	12	474781	4	3	3	1	0	588	1	4	0	88	48	0	0	100
fixed	3	5	1	476317	4	1	1	1	0	683	1	4	0	72	49	0	0	100
fixed	3	5	2	477422	1	2	2	1	0	1197	1	4	0	80	50	0	0	100
fixed	3	5	3	479315	6	4	4	1	0	804	1	4	0	96	51	0	0	100
fixed	3	5	4	480789	2	1	1	1	0	742	1	4	0	72	52	0	0	100
fixed	3	5	5	482054	5	3	3	1	0	1128	1	4	0	88	53	0	0	100
fixed	3	5	6	483853	6	4	4	1	0	828	1	4	0	96	54	0	0	100
fixed	3	5	7	485616	3	1	1	1	0	1066	1	4	0	72	55	0	0	100
fixed	3	5	8	487701	2	3	3	1	0	1617	1	4	0	88	56	0	0	100
fixed	3	5	9	489763	3	2	2	1	0	554	1	4	0	80	57	0	0	100
fixed	3	5	10	490809	1	4	4	1	0	437	1	4	0	96	58	0	0	100
fixed	3	5	11	491878	5	2	2	1	0	1376	1	4	0	80	59	0	0	100
fixed	3	5	12	493601	4	3	3	1	0	855	1	4	0	88	60	0	0	100
fixed	3	6	1	495013	4	1	1	1	0	755	1	4	0	72	61	0	0	100
fixed	3	6	2	496769	1	2	2	1	0	1529	1	4	0	80	62	0	0	100
fixed	3	6	3	498652	6	4	4	1	0	721	1	4	0	96	63	0	0	100
fixed	3	6	4	500251	2	1	1	1	0	1654	1	4	0	72	64	0	0	100
fixed	3	6	5	502882	5	3	3	1	0	934	1	4	0	88	65	0	0	100
fixed	3	6	6	504783	6	4	4	1	0	694	1	4	0	96	66	0	0	100
fixed	3	6	7	506108	3	1	1	1	0	893	1	4	0	72	67	0	0	100
fixed	3	6	8	507345	2	3	3	1	0	985	1	4	0	88	68	0	0	100
fixed	3	6	9	508661	3	2	2	1	0	489	1	4	0	80	69	0	0	100
fixed	3	6	10	510159	1	4	4	1	0	754	1	4	0	96	70	0	0	100
fixed	3	6	11	511461	5	2	2	1	0	1011	1	4	0	80	71	0	0	100
fixed	3	6	12	512986	4	3	3	1	0	762	1	4	0	88	72	0	0	100
fixed	3	7	1	514695	4	1	1	1	0	625	1	4	0	72	73	0	0	100
fixed	3	7	2	515952	1	2	2	1	0	996	1	4	0	80	74	0	0	100
fixed	3	7	3	517368	6	4	4	1	0	616	1	4	0	96	75	0	0	100
fixed	3	7	4	518675	2	1	1	1	0	721	1	4	0	72	76	0	0	100
fixed	3	7	5	519770	5	3	3	1	0	731	1	4	0	88	77	0	0	100
fixed	3	7	6	520948	6	4	4	1	0	841	1	4	0	96	78	0	0	100
fixed	3	7	7	522413	3	1	1	1	0	586	1	4	0	72	79	0	0	100
fixed	3	7	8	523388	2	3	3	1	0	953	1	4	0	88	80	0	0	100
fixed	3	7	9	525312	3	2	2	1	0	704	1	4	0	80	81	0	0	100
fixed	3	7	10	526326	1	4	4	1	0	925	1	4	0	96	82	0	0	100
fixed	3	7	11	528021	5	2	2	1	0	1109	1	4	0	80	83	0	0	100
fixed	3	7	12	529543	4	3	3	1	0	637	1	4	0	88	84	0	0	100
fixed	3	8	1	531135	4	1	1	1	0	449	1	4	0	72	85	0	0	100
fixed	3	8	2	532149	1	2	2	2	0	1623	2	4	0	80	86	0	0	100
fixed	3	8	3	534756	6	4	4	1	0	728	1	4	0	96	87	0	0	100
fixed	3	8	4	536287	2	1	1	1	0	671	1	4	0	72	88	0	0	100
fixed	3	8	5	537517	5	3	3	1	0	843	1	4	0	88	89	0	0	100
fixed	3	8	6	538992	6	4	4	1	0	765	1	4	0	96	90	0	0	100
fixed	3	8	7	540574	3	1	1	1	0	809	1	4	0	72	91	0	0	100
fixed	3	8	8	542147	2	3	3	1	0	1103	1	4	0	88	92	0	0	100
fixed	3	8	9	543654	3	2	2	1	0	567	1	4	0	80	93	0	0	100
fixed	3	8	10	544809	1	4	4	1	0	838	1	4	0	96	94	0	0	100
fixed	3	8	11	546258	5	2	2	1	0	1153	1	4	0	80	95	0	0	100
fixed	3	8	12	547988	4	3	3	1	0	416	1	4	0	88	96	0	0	100
fixed	3	9	1	549230	4	1	1	1	0	467	1	4	0	72	97	0	0	100
fixed	3	9	2	550592	1	2	2	1	0	1337	1	4	0	80	98	0	0	100
fixed	3	9	3	552418	6	4	4	1	0	708	1	4	0	96	99	0	0	100
fixed	3	9	4	553545	2	1	1	1	0	740	1	4	0	72	100	0	0	100
fixed	3	9	5	555315	5	3	3	1	0	1169	1	4	0	88	101	0	0	100
fixed	3	9	6	557328	6	4	4	1	0	892	1	4	0	96	102	0	0	100
fixed	3	9	7	558881	3	1	1	1	0	922	1	4	0	72	103	0	0	100
fixed	3	9	8	560563	2	3	3	1	0	1675	1	4	0	88	104	0	0	100
fixed	3	9	9	562684	3	2	2	1	0	553	1	4	0	80	105	0	0	100
fixed	3	9	10	563592	1	4	4	1	0	667	1	4	0	96	106	0	0	100
fixed	3	9	11	564729	5	2	2	1	0	1099	1	4	0	80	107	0	0	100
fixed	3	9	12	566682	4	3	3	1	0	496	1	4	0	88	108	0	0	100
fixed	3	10	1	568059	4	1	1	1	0	685	1	4	0	72	109	0	0	100
fixed	3	10	2	569558	1	2	2	1	0	974	1	4	0	80	110	0	0	100
fixed	3	10	3	571171	6	4	4	1	0	650	1	4	0	96	111	0	0	100
fixed	3	10	4	572186	2	1	1	1	0	710	1	4	0	72	112	0	0	100
fixed	3	10	5	573706	5	3	3	1	0	726	1	4	0	88	113	0	0	100
fixed	3	10	6	575204	6	4	4	1	0	1559	1	4	0	96	114	0	0	100
fixed	3	10	7	577232	3	1	1	1	0	769	1	4	0	72	115	0	0	100
fixed	3	10	8	578853	2	3	3	1	0	1068	1	4	0	88	116	0	0	100
fixed	3	10	9	580219	3	2	2	1	0	851	1	4	0	80	117	0	0	100
fixed	3	10	10	581466	1	4	4	1	0	758	1	4	0	96	118	0	0	100
fixed	3	10	11	582707	5	2	2	1	0	1033	1	4	0	80	119	0	0	100
fixed	3	10	12	584088	4	3	3	1	0	551	1	4	0	88	120	0	0	100
fixed	4	1	1	690591	4	1	1	1	0	1039	1	4	0	104	1	0	0	100
fixed	4	1	2	692496	1	2	2	1	0	846	1	4	0	112	2	0	0	100
fixed	4	1	3	693691	6	4	4	1	0	596	1	4	0	128	3	0	0	100
fixed	4	1	4	695227	2	1	1	1	0	699	1	4	0	104	4	0	0	100
fixed	4	1	5	696450	5	3	3	1	0	767	1	4	0	120	5	0	0	100
fixed	4	1	6	698017	6	4	4	1	0	717	1	4	0	128	6	0	0	100
fixed	4	1	7	699456	3	1	1	1	0	792	1	4	0	104	7	0	0	100
fixed	4	1	8	700874	2	3	3	1	0	996	1	4	0	120	8	0	0	100
fixed	4	1	9	702681	3	2	2	1	0	488	1	4	0	112	9	0	0	100
fixed	4	1	10	703546	1	4	4	1	0	659	1	4	0	128	10	0	0	100
fixed	4	1	11	704830	5	2	2	1	0	964	1	4	0	112	11	0	0	100
fixed	4	1	12	706448	4	3	3	1	0	752	1	4	0	120	12	0	0	100
fixed	4	2	1	708069	4	1	1	1	0	475	1	4	0	104	13	0	0	100
fixed	4	2	2	709005	1	2	2	1	0	923	1	4	0	112	14	0	0	100
fixed	4	2	3	710231	6	4	4	1	0	648	1	4	0	128	15	0	0	100
fixed	4	2	4	711621	2	1	1	1	0	677	1	4	0	104	16	0	0	100
fixed	4	2	5	713239	5	3	3	1	0	872	1	4	0	120	17	0	0	100
fixed	4	2	6	714882	6	4	4	1	0	827	1	4	0	128	18	0	0	100
fixed	4	2	7	716725	3	1	1	1	0	716	1	4	0	104	19	0	0	100
fixed	4	2	8	718342	2	3	3	1	0	1008	1	4	0	120	20	0	0	100
fixed	4	2	9	719824	3	2	2	1	0	649	1	4	0	112	21	0	0	100
fixed	4	2	10	721462	1	4	4	1	0	348	1	4	0	128	22	0	0	100
fixed	4	2	11	722799	5	2	2	1	0	859	1	4	0	112	23	0	0	100
fixed	4	2	12	724393	4	3	3	1	0	592	1	4	0	120	24	0	0	100
fixed	4	3	1	725880	4	1	1	1	0	529	1	4	0	104	25	0	0	100
fixed	4	3	2	727077	1	2	2	1	0	926	1	4	0	112	26	0	0	100
fixed	4	3	3	728504	6	4	4	1	0	745	1	4	0	128	27	0	0	100
fixed	4	3	4	730064	2	1	1	1	0	760	1	4	0	104	28	0	0	100
fixed	4	3	5	731315	5	3	3	1	0	715	1	4	0	120	29	0	0	100
fixed	4	3	6	732888	6	4	4	1	0	784	1	4	0	128	30	0	0	100
fixed	4	3	7	734356	3	1	1	1	0	610	1	4	0	104	31	0	0	100
fixed	4	3	8	735746	2	3	3	1	0	855	1	4	0	120	32	0	0	100
fixed	4	3	9	737598	3	2	2	1	0	616	1	4	0	112	33	0	0	100
fixed	4	3	10	739155	1	4	4	1	0	591	1	4	0	128	34	0	0	100
fixed	4	3	11	740159	5	2	2	1	0	1540	1	4	0	112	35	0	0	100
fixed	4	3	12	742523	4	3	3	1	0	368	1	4	0	120	36	0	0	100
fixed	4	4	1	743974	4	1	1	1	0	402	1	4	0	104	37	0	0	100
fixed	4	4	2	744896	1	2	2	1	0	843	1	4	0	112	38	0	0	100
fixed	4	4	3	746677	6	4	4	1	0	640	1	4	0	128	39	0	0	100
fixed	4	4	4	748271	2	1	1	1	0	788	1	4	0	104	40	0	0	100
fixed	4	4	5	749776	5	3	3	2	0	1581	2	4	0	120	41	0	0	100
fixed	4	4	6	752180	6	4	4	1	0	727	1	4	0	128	42	0	0	100
fixed	4	4	7	753389	3	1	1	1	0	668	1	4	0	104	43	0	0	100
fixed	4	4	8	754365	2	3	3	1	0	1042	1	4	0	120	44	0	0	100
fixed	4	4	9	755981	3	2	2	1	0	726	1	4	0	112	45	0	0	100
fixed	4	4	10	757356	1	4	4	1	0	779	1	4	0	128	46	0	0	100
fixed	4	4	11	758885	5	2	2	1	0	835	1	4	0	112	47	0	0	100
fixed	4	4	12	760547	4	3	3	1	0	652	1	4	0	120	48	0	0	100
fixed	4	5	1	762152	4	1	1	1	0	696	1	4	0	104	49	0	0	100
fixed	4	5	2	763419	1	2	2	1	0	963	1	4	0	112	50	0	0	100
fixed	4	5	3	765105	6	4	4	1	0	724	1	4	0	128	51	0	0	100
fixed	4	5	4	766769	2	1	1	1	0	1149	1	4	0	104	52	0	0	100
fixed	4	5	5	768676	5	3	3	1	0	1636	1	4	0	120	53	0	0	100
fixed	4	5	6	771001	6	4	4	1	0	786	1	4	0	128	54	0	0	100
fixed	4	5	7	772131	3	1	1	1	0	794	1	4	0	104	55	0	0	100
fixed	4	5	8	773370	2	3	3	1	0	893	1	4	0	120	56	0	0	100
fixed	4	5	9	774550	3	2	2	1	0	563	1	4	0	112	57	0	0	100
fixed	4	5	10	776134	1	4	4	1	0	584	1	4	0	128	58	0	0	100
fixed	4	5	11	777485	5	2	2	1	0	1655	1	4	0	112	59	0	0	100
fixed	4	5	12	779595	4	3	3	1	0	677	1	4	0	120	60	0	0	100
fixed	4	6	1	781266	4	1	1	1	0	727	1	4	0	104	61	0	0	100
fixed	4	6	2	783016	1	2	2	1	0	765	1	4	0	112	62	0	0	100
fixed	4	6	3	784347	6	4	4	1	0	780	1	4	0	128	63	0	0	100
fixed	4	6	4	785684	2	1	1	1	0	1844	1	4	0	104	64	0	0	100
fixed	4	6	5	788386	5	3	3	1	0	873	1	4	0	120	65	0	0	100
fixed	4	6	6	789803	6	4	4	1	0	773	1	4	0	128	66	0	0	100
fixed	4	6	7	791504	3	1	1	1	0	1006	1	4	0	104	67	0	0	100
fixed	4	6	8	793088	2	3	3	1	0	1026	1	4	0	120	68	0	0	100
fixed	4	6	9	794648	3	2	2	1	0	752	1	4	0	112	69	0	0	100
fixed	4	6	10	796323	1	4	4	1	0	473	1	4	0	128	70	0	0	100
fixed	4	6	11	797575	5	2	2	1	0	764	1	4	0	112	71	0	0	100
fixed	4	6	12	799027	4	3	3	1	0	702	1	4	0	120	72	0	0	100
fixed	4	7	1	800296	4	1	1	1	0	721	1	4	0	104	73	0	0	100
fixed	4	7	2	801698	1	2	2	1	0	957	1	4	0	112	74	0	0	100
fixed	4	7	3	803155	6	4	4	1	0	800	1	4	0	128	75	0	0	100
fixed	4	7	4	804441	2	1	1	1	0	1049	1	4	0	104	76	0	0	100
fixed	4	7	5	806181	5	3	3	1	0	832	1	4	0	120	77	0	0	100
fixed	4	7	6	807381	6	4	4	1	0	885	1	4	0	128	78	0	0	100
fixed	4	7	7	808561	3	1	1	1	0	851	1	4	0	104	79	0	0	100
fixed	4	7	8	810418	2	3	3	1	0	1092	1	4	0	120	80	0	0	100
fixed	4	7	9	812025	3	2	2	1	0	536	1	4	0	112	81	0	0	100
fixed	4	7	10	813540	1	4	4	1	0	1064	1	4	0	128	82	0	0	100
fixed	4	7	11	815204	5	2	2	1	0	1233	1	4	0	112	83	0	0	100
fixed	4	7	12	816800	4	3	3	1	0	589	1	4	0	120	84	0	0	100
fixed	4	8	1	818390	4	1	1	1	0	506	1	4	0	104	85	0	0	100
fixed	4	8	2	819843	1	2	2	1	0	765	1	4	0	112	86	0	0	100
fixed	4	8	3	821446	6	4	4	1	0	497	1	4	0	128	87	0	0	100
fixed	4	8	4	822577	2	1	1	1	0	1985	1	4	0	104	88	0	0	100
fixed	4	8	5	825258	5	3	3	1	0	1047	1	4	0	120	89	0	0	100
fixed	4	8	6	826933	6	4	4	1	0	913	1	4	0	128	90	0	0	100
fixed	4	8	7	828177	3	1	1	1	0	836	1	4	0	104	91	0	0	100
fixed	4	8	8	829532	2	3	3	1	0	1050	1	4	0	120	92	0	0	100
fixed	4	8	9	831202	3	2	2	1	0	436	1	4	0	112	93	0	0	100
fixed	4	8	10	831966	1	4	4	1	0	884	1	4	0	128	94	0	0	100
fixed	4	8	11	833742	5	2	2	1	0	1312	1	4	0	112	95	0	0	100
fixed	4	8	12	835534	4	3	3	1	0	628	1	4	0	120	96	0	0	100
fixed	4	9	1	837086	4	1	1	1	0	602	1	4	0	104	97	0	0	100
fixed	4	9	2	838244	1	2	2	1	0	858	1	4	0	112	98	0	0	100
fixed	4	9	3	840067	6	4	4	1	0	836	1	4	0	128	99	0	0	100
fixed	4	9	4	841623	2	1	1	1	0	1107	1	4	0	104	100	0	0	100
fixed	4	9	5	843050	5	3	3	1	0	1046	1	4	0	120	101	0	0	100
fixed	4	9	6	844675	6	4	4	1	0	825	1	4	0	128	102	0	0	100
fixed	4	9	7	846274	3	1	1	1	0	965	1	4	0	104	103	0	0	100
fixed	4	9	8	848231	2	3	3	1	0	1562	1	4	0	120	104	0	0	100
fixed	4	9	9	850336	3	2	2	1	0	569	1	4	0	112	105	0	0	100
fixed	4	9	10	851555	1	4	4	1	0	677	1	4	0	128	106	0	0	100
fixed	4	9	11	852865	5	2	2	1	0	886	1	4	0	112	107	0	0	100
fixed	4	9	12	854536	4	3	3	1	0	816	1	4	0	120	108	0	0	100
fixed	4	10	1	856016	4	1	1	1	0	633	1	4	0	104	109	0	0	100
fixed	4	10	2	857370	1	2	2	1	0	863	1	4	0	112	110	0	0	100
fixed	4	10	3	858750	6	4	4	1	0	749	1	4	0	128	111	0	0	100
fixed	4	10	4	860280	2	1	1	1	0	748	1	4	0	104	112	0	0	100
fixed	4	10	5	861548	5	3	3	1	0	1662	1	4	0	120	113	0	0	100
fixed	4	10	6	864040	6	4	4	1	0	813	1	4	0	128	114	0	0	100
fixed	4	10	7	865220	3	1	1	1	0	667	1	4	0	104	115	0	0	100
fixed	4	10	8	866178	2	3	3	1	0	1162	1	4	0	120	116	0	0	100
fixed	4	10	9	867715	3	2	2	1	0	697	1	4	0	112	117	0	0	100
fixed	4	10	10	868842	1	4	4	1	0	1562	1	4	0	128	118	0	0	100
fixed	4	10	11	870865	5	2	2	1	0	852	1	4	0	112	119	0	0	100
fixed	4	10	12	872136	4	3	3	1	0	534	1	4	0	120	120	0	0	100
fixed	5	1	1	874041	4	1	1	1	0	405	1	4	0	136	1	0	0	100
fixed	5	1	2	875361	1	2	2	1	0	1061	1	4	0	144	2	0	0	100
fixed	5	1	3	877281	6	4	4	1	0	836	1	4	0	160	3	0	0	100
fixed	5	1	4	878840	2	1	1	1	0	914	1	4	0	136	4	0	0	100
fixed	5	1	5	880260	5	3	3	1	0	894	1	4	0	152	5	0	0	100
fixed	5	1	6	882059	6	4	4	1	0	698	1	4	0	160	6	0	0	100
fixed	5	1	7	883352	3	1	1	1	0	747	1	4	0	136	7	0	0	100
fixed	5	1	8	884876	2	3	3	1	0	1698	1	4	0	152	8	0	0	100
fixed	5	1	9	887160	3	2	2	1	0	473	1	4	0	144	9	0	0	100
fixed	5	1	10	888055	1	4	4	1	0	740	1	4	0	160	10	0	0	100
fixed	5	1	11	889680	5	2	2	2	0	1231	2	4	0	144	11	0	0	100
fixed	5	1	12	891410	4	3	3	2	0	1734	2	4	0	152	12	0	0	100
fixed	5	2	1	894343	4	1	1	1	0	1089	1	4	0	136	13	0	0	100
fixed	5	2	2	895746	1	2	2	2	0	1646	2	4	0	144	14	0	0	100
fixed	5	2	3	898344	6	4	4	1	0	800	1	4	0	160	15	0	0	100
fixed	5	2	4	899485	2	1	1	1	0	856	1	4	0	136	16	0	0	100
fixed	5	2	5	901217	5	3	3	1	0	1502	1	4	0	152	17	0	0	100
fixed	5	2	6	903128	6	4	4	1	0	734	1	4	0	160	18	0	0	100
fixed	5	2	7	904305	3	1	1	1	0	875	1	4	0	136	19	0	0	100
fixed	5	2	8	906057	2	3	3	1	0	1577	1	4	0	152	20	0	0	100
fixed	5	2	9	908659	3	2	2	1	0	707	1	4	0	144	21	0	0	100
fixed	5	2	10	910345	1	4	4	1	0	956	1	4	0	160	22	0	0	100
fixed	5	2	11	912272	5	2	2	1	0	1010	1	4	0	144	23	0	0	100
fixed	5	2	12	914235	4	3	3	1	0	775	1	4	0	152	24	0	0	100
fixed	5	3	1	915679	4	1	1	1	0	681	1	4	0	136	25	0	0	100
fixed	5	3	2	917223	1	2	2	1	0	1104	1	4	0	144	26	0	0	100
fixed	5	3	3	919240	6	4	4	1	0	731	1	4	0	160	27	0	0	100
fixed	5	3	4	920427	2	1	1	1	0	888	1	4	0	136	28	0	0	100
fixed	5	3	5	921620	5	3	3	1	0	1006	1	4	0	152	29	0	0	100
fixed	5	3	6	923413	6	4	4	1	0	922	1	4	0	160	30	0	0	100
fixed	5	3	7	925217	3	1	1	1	0	781	1	4	0	136	31	0	0	100
fixed	5	3	8	926758	2	3	3	1	0	1156	1	4	0	152	32	0	0	100
fixed	5	3	9	928924	3	2	2	1	0	753	1	4	0	144	33	0	0	100
fixed	5	3	10	930473	1	4	4	1	0	848	1	4	0	160	34	0	0	100
fixed	5	3	11	932290	5	2	2	1	0	826	1	4	0	144	35	0	0	100
fixed	5	3	12	933947	4	3	3	1	0	476	1	4	0	152	36	0	0	100
fixed	5	4	1	935060	4	1	1	1	0	517	1	4	0	136	37	0	0	100
fixed	5	4	2	936092	1	2	2	1	0	833	1	4	0	144	38	0	0	100
fixed	5	4	3	937705	6	4	4	1	0	909	1	4	0	160	39	0	0	100
fixed	5	4	4	939200	2	1	1	1	0	950	1	4	0	136	40	0	0	100
fixed	5	4	5	940622	5	3	3	1	0	953	1	4	0	152	41	0	0	100
fixed	5	4	6	942305	6	4	4	1	0	738	1	4	0	160	42	0	0	100
fixed	5	4	7	943352	3	1	1	1	0	726	1	4	0	136	43	0	0	100
fixed	5	4	8	944840	2	3	3	1	0	1311	1	4	0	152	44	0	0	100
fixed	5	4	9	947038	3	2	2	1	0	785	1	4	0	144	45	0	0	100
fixed	5	4	10	948854	1	4	4	1	0	629	1	4	0	160	46	0	0	100
fixed	5	4	11	950065	5	2	2	1	0	1425	1	4	0	144	47	0	0	100
fixed	5	4	12	952424	4	3	3	1	0	629	1	4	0	152	48	0	0	100
fixed	5	5	1	953722	4	1	1	1	0	422	1	4	0	136	49	0	0	100
fixed	5	5	2	955056	1	2	2	1	0	918	1	4	0	144	50	0	0	100
fixed	5	5	3	956797	6	4	4	1	0	684	1	4	0	160	51	0	0	100
fixed	5	5	4	958066	2	1	1	1	0	1110	1	4	0	136	52	0	0	100
fixed	5	5	5	960036	5	3	3	1	0	915	1	4	0	152	53	0	0	100
fixed	5	5	6	961611	6	4	4	1	0	896	1	4	0	160	54	0	0	100
fixed	5	5	7	963107	3	1	1	1	0	945	1	4	0	136	55	0	0	100
fixed	5	5	8	964619	2	3	3	2	0	1393	2	4	0	152	56	0	0	100
fixed	5	5	9	966936	3	2	2	1	0	742	1	4	0	144	57	0	0	100
fixed	5	5	10	968594	1	4	4	1	0	704	1	4	0	160	58	0	0	100
fixed	5	5	11	969853	5	2	2	1	0	931	1	4	0	144	59	0	0	100
fixed	5	5	12	971658	4	3	3	1	0	1047	1	4	0	152	60	0	0	100
fixed	5	6	1	973370	4	1	1	1	0	678	1	4	0	136	61	0	0	100
fixed	5	6	2	974967	1	2	2	1	0	1395	1	4	0	144	62	0	0	100
fixed	5	6	3	977025	6	4	4	1	0	724	1	4	0	160	63	0	0	100
fixed	5	6	4	978060	2	1	1	1	0	2024	1	4	0	136	64	0	0	100
fixed	5	6	5	980482	5	3	3	1	0	897	1	4	0	152	65	0	0	100
fixed	5	6	6	982036	6	4	4	1	0	735	1	4	0	160	66	0	0	100
fixed	5	6	7	983260	3	1	1	1	0	787	1	4	0	136	67	0	0	100
fixed	5	6	8	984682	2	3	3	1	0	1055	1	4	0	152	68	0	0	100
fixed	5	6	9	986496	3	2	2	1	0	714	1	4	0	144	69	0	0	100
fixed	5	6	10	987919	1	4	4	1	0	1590	1	4	0	160	70	0	0	100
fixed	5	6	11	989851	5	2	2	1	0	900	1	4	0	144	71	0	0	100
fixed	5	6	12	991495	4	3	3	1	0	711	1	4	0	152	72	0	0	100
fixed	5	7	1	993420	4	1	1	1	0	885	1	4	0	136	73	0	0	100
fixed	5	7	2	994921	1	2	2	1	0	1309	1	4	0	144	74	0	0	100
fixed	5	7	3	996645	6	4	4	1	0	1148	1	4	0	160	75	0	0	100
fixed	5	7	4	998356	2	1	1	1	0	684	1	4	0	136	76	0	0	100
fixed	5	7	5	999354	5	3	3	1	0	929	1	4	0	152	77	0	0	100
fixed	5	7	6	1000693	6	4	4	1	0	1833	1	4	0	160	78	0	0	100
fixed	5	7	7	1003151	3	1	1	1	0	729	1	4	0	136	79	0	0	100
fixed	5	7	8	1004852	2	3	3	1	0	873	1	4	0	152	80	0	0	100
fixed	5	7	9	1006188	3	2	2	1	0	496	1	4	0	144	81	0	0	100
fixed	5	7	10	1006979	1	4	4	1	0	975	1	4	0	160	82	0	0	100
fixed	5	7	11	1008740	5	2	2	1	0	932	1	4	0	144	83	0	0	100
fixed	5	7	12	1010239	4	3	3	1	0	533	1	4	0	152	84	0	0	100
fixed	5	8	1	1011414	4	1	1	1	0	691	1	4	0	136	85	0	0	100
fixed	5	8	2	1012733	1	2	2	2	0	1459	2	4	0	144	86	0	0	100
fixed	5	8	3	1014623	6	4	4	1	0	803	1	4	0	160	87	0	0	100
fixed	5	8	4	1016132	2	1	1	1	0	763	1	4	0	136	88	0	0	100
fixed	5	8	5	1017381	5	3	3	1	0	1486	1	4	0	152	89	0	0	100
fixed	5	8	6	1019522	6	4	4	1	0	763	1	4	0	160	90	0	0	100
fixed	5	8	7	1021127	3	1	1	1	0	583	1	4	0	136	91	0	0	100
fixed	5	8	8	1022245	2	3	3	1	0	1144	1	4	0	152	92	0	0	100
fixed	5	8	9	1024409	3	2	2	2	0	1197	2	4	0	144	93	0	0	100
fixed	5	8	10	1026587	1	4	4	1	0	1232	1	4	0	160	94	0	0	100
fixed	5	8	11	1028444	5	2	2	1	0	1489	1	4	0	144	95	0	0	100
fixed	5	8	12	1030755	4	3	3	1	0	704	1	4	0	152	96	0	0	100
fixed	5	9	1	1032482	4	1	1	1	0	750	1	4	0	136	97	0	0	100
fixed	5	9	2	1034214	1	2	2	1	0	1493	1	4	0	144	98	0	0	100
fixed	5	9	3	1036354	6	4	4	1	0	635	1	4	0	160	99	0	0	100
fixed	5	9	4	1037626	2	1	1	1	0	708	1	4	0	136	100	0	0	100
fixed	5	9	5	1038902	5	3	3	1	0	598	1	4	0	152	101	0	0	100
fixed	5	9	6	1040199	6	4	4	1	0	959	1	4	0	160	102	0	0	100
fixed	5	9	7	1041928	3	1	1	1	0	670	1	4	0	136	103	0	0	100
fixed	5	9	8	1042984	2	3	3	1	0	858	1	4	0	152	104	0	0	100
fixed	5	9	9	1044299	3	2	2	1	0	666	1	4	0	144	105	0	0	100
fixed	5	9	10	1045634	1	4	4	1	0	633	1	4	0	160	106	0	0	100
fixed	5	9	11	1047023	5	2	2	1	0	894	1	4	0	144	107	0	0	100
fixed	5	9	12	1048620	4	3	3	1	0	467	1	4	0	152	108	0	0	100
fixed	5	10	1	1049675	4	1	1	1	0	710	1	4	0	136	109	0	0	100
fixed	5	10	2	1051191	1	2	2	2	0	2254	2	4	0	144	110	0	0	100
fixed	5	10	3	1053820	6	4	4	1	0	1478	1	4	0	160	111	0	0	100
fixed	5	10	4	1056141	2	1	1	1	0	892	1	4	0	136	112	0	0	100
fixed	5	10	5	1057528	5	3	3	1	0	1025	1	4	0	152	113	0	0	100
fixed	5	10	6	1059163	6	4	4	1	0	1708	1	4	0	160	114	0	0	100
fixed	5	10	7	1061904	3	1	1	1	0	1352	1	4	0	136	115	0	0	100
fixed	5	10	8	1063752	2	3	3	1	0	1090	1	4	0	152	116	0	0	100
fixed	5	10	9	1065399	3	2	2	1	0	612	1	4	0	144	117	0	0	100
fixed	5	10	10	1066749	1	4	4	1	0	1627	1	4	0	160	118	0	0	100
fixed	5	10	11	1069157	5	2	2	2	0	1645	2	4	0	144	119	0	0	100
fixed	5	10	12	1071502	4	3	3	1	0	474	1	4	0	152	120	0	0	100
random	6	1	1	1170669	6	1	1	1	0	865	1	4	0	168	1	0	0	100
random	6	1	2	1171837	4	4	4	1	0	784	1	4	0	192	2	0	0	100
random	6	1	3	1172910	2	2	2	1	0	1162	1	4	0	176	3	0	0	100
random	6	1	4	1175052	3	3	3	1	0	432	1	4	0	184	4	0	0	100
random	6	1	5	1176385	5	2	2	1	0	855	1	4	0	176	5	0	0	100
random	6	1	6	1177789	1	4	4	1	0	628	1	4	0	192	6	0	0	100
random	6	1	7	1179190	6	1	1	1	0	768	1	4	0	168	7	0	0	100
random	6	1	8	1180498	2	3	3	1	0	633	1	4	0	184	8	0	0	100
random	6	1	9	1181622	4	2	2	1	0	946	1	4	0	176	9	0	0	100
random	6	1	10	1182886	1	1	1	1	0	908	1	4	0	168	10	0	0	100
random	6	1	11	1184774	5	4	4	1	0	660	1	4	0	192	11	0	0	100
random	6	1	12	1186356	3	3	3	1	0	1065	1	4	0	184	12	0	0	100
random	6	1	13	1188131	5	2	2	1	0	822	1	4	0	176	13	0	0	100
random	6	1	14	1189634	1	4	4	1	0	926	1	4	0	192	14	0	0	100
random	6	1	15	1191265	3	1	1	1	0	729	1	4	0	168	15	0	0	100
random	6	1	16	1192839	4	3	3	1	0	799	1	4	0	184	16	0	0	100
random	6	1	17	1194339	6	4	4	1	0	863	1	4	0	192	17	0	0	100
random	6	1	18	1195592	2	1	1	1	0	682	1	4	0	168	18	0	0	100
random	6	1	19	1196807	5	3	3	1	0	878	1	4	0	184	19	0	0	100
random	6	1	20	1198092	2	2	2	1	0	456	1	4	0	176	20	0	0	100
random	6	1	21	1198912	3	3	3	1	0	1341	1	4	0	184	21	0	0	100
random	6	1	22	1201078	6	1	1	1	0	841	1	4	0	168	22	0	0	100
random	6	1	23	1202739	4	2	2	1	0	1019	1	4	0	176	23	0	0	100
random	6	1	24	1204515	1	4	4	1	0	768	1	4	0	192	24	0	0	100
random	6	1	25	1205925	4	3	3	1	0	1220	1	4	0	184	25	0	0	100
random	6	1	26	1208047	2	1	1	1	0	698	1	4	0	168	26	0	0	100
random	6	1	27	1209167	5	2	2	1	0	971	1	4	0	176	27	0	0	100
random	6	1	28	1211074	6	4	4	1	0	1306	1	4	0	192	28	0	0	100
random	6	1	29	1212687	1	3	3	1	0	1094	1	4	0	184	29	0	0	100
random	6	1	30	1214324	5	2	2	1	0	441	1	4	0	176	30	0	0	100
random	6	1	31	1215614	2	1	1	1	0	409	1	4	0	168	31	0	0	100
random	6	1	32	1217065	3	3	3	1	0	933	1	4	0	184	32	0	0	100
random	6	1	33	1218381	6	4	4	1	0	853	1	4	0	192	33	0	0	100
random	6	1	34	1220117	4	2	2	1	0	891	1	4	0	176	34	0	0	100
random	6	1	35	1221998	3	4	4	1	0	755	1	4	0	192	35	0	0	100
random	6	1	36	1223499	1	1	1	1	0	715	1	4	0	168	36	0	0	100
random	6	1	37	1224971	3	4	4	1	0	1053	1	4	0	192	37	0	0	100
random	6	1	38	1226584	5	3	3	1	0	913	1	4	0	184	38	0	0	100
random	6	1	39	1228187	6	1	1	1	0	653	1	4	0	168	39	0	0	100
random	6	1	40	1229360	1	2	2	1	0	460	1	4	0	176	40	0	0	100
random	6	1	41	1230173	2	3	3	1	0	1025	1	4	0	184	41	0	0	100
random	6	1	42	1231659	4	4	4	1	0	778	1	4	0	192	42	0	0	100
random	6	1	43	1233132	1	2	2	1	0	1460	1	4	0	176	43	0	0	100
random	6	1	44	1235173	6	3	3	1	0	493	1	4	0	184	44	0	0	100
random	6	1	45	1236661	3	1	1	1	0	727	1	4	0	168	45	0	0	100
random	6	1	46	1237967	4	4	4	1	0	631	1	4	0	192	46	0	0	100
random	6	1	47	1239596	2	2	2	1	0	1130	1	4	0	176	47	0	0	100
random	6	1	48	1241453	5	1	1	1	0	811	1	4	0	168	48	0	0	100
random	6	1	49	1243383	2	3	3	1	0	585	1	4	0	184	49	0	0	100
random	6	1	50	1244906	3	1	1	1	0	761	1	4	0	168	50	0	0	100
random	6	1	51	1246498	1	4	4	1	0	590	1	4	0	192	51	0	0	100
random	6	1	52	1248124	5	3	3	1	0	1337	1	4	0	184	52	0	0	100
random	6	1	53	1250379	3	2	2	2	0	1241	2	4	0	176	53	0	0	100
random	6	1	54	1252538	6	4	4	1	0	1070	1	4	0	192	54	0	0	100
random	6	1	55	1254249	4	2	2	2	0	1541	2	4	0	176	55	0	0	100
random	6	1	56	1256169	1	1	1	1	0	1604	1	4	0	168	56	0	0	100
random	6	1	57	1258617	5	4	4	1	0	717	1	4	0	192	57	0	0	100
random	6	1	58	1259705	2	1	1	1	0	990	1	4	0	168	58	0	0	100
random	6	1	59	1261232	6	2	2	1	0	965	1	4	0	176	59	0	0	100
random	6	1	60	1262661	4	3	3	1	0	553	1	4	0	184	60	0	0	100
random	6	1	61	1264134	1	2	2	1	0	1458	1	4	0	176	61	0	0	100
random	6	1	62	1265896	6	4	4	1	0	800	1	4	0	192	62	0	0	100
random	6	1	63	1267446	4	1	1	1	0	566	1	4	0	168	63	0	0	100
random	6	1	64	1268378	2	2	2	1	0	1215	1	4	0	176	64	0	0	100
random	6	1	65	1270186	4	3	3	1	0	850	1	4	0	184	65	0	0	100
random	6	1	66	1271892	3	1	1	1	0	810	1	4	0	168	66	0	0	100
random	6	1	67	1273506	1	3	3	1	0	757	1	4	0	184	67	0	0	100
random	6	1	68	1275106	5	4	4	1	0	834	1	4	0	192	68	0	0	100
random	6	1	69	1276925	2	2	2	1	0	1461	1	4	0	176	69	0	0	100
random	6	1	70	1279300	3	1	1	1	0	737	1	4	0	168	70	0	0	100
random	6	1	71	1280983	5	4	4	1	0	793	1	4	0	192	71	0	0	100
random	6	1	72	1282298	6	3	3	1	0	1393	1	4	0	184	72	0	0	100
random	6	1	73	1284935	2	1	1	1	0	777	1	4	0	168	73	0	0	100
random	6	1	74	1286013	5	3	3	1	0	892	1	4	0	184	74	0	0	100
random	6	1	75	1287706	1	4	4	1	0	709	1	4	0	192	75	0	0	100
random	6	1	76	1289118	6	2	2	1	0	1184	1	4	0	176	76	0	0	100
random	6	1	77	1290797	2	1	1	1	0	929	1	4	0	168	77	0	0	100
random	6	1	78	1292320	4	4	4	1	0	889	1	4	0	192	78	0	0	100
random	6	1	79	1294011	3	2	2	1	0	993	1	4	0	176	79	0	0	100
random	6	1	80	1296026	4	3	3	1	0	692	1	4	0	184	80	0	0	100
random	6	1	81	1297296	1	4	4	2	0	2174	2	4	0	192	81	0	0	100
random	6	1	82	1300181	5	1	1	1	0	668	1	4	0	168	82	0	0	100
random	6	1	83	1301820	3	2	2	1	0	1007	1	4	0	176	83	0	0	100
random	6	1	84	1303479	6	3	3	1	0	536	1	4	0	184	84	0	0	100
random	6	1	85	1305168	3	2	2	1	0	1080	1	4	0	176	85	0	0	100
random	6	1	86	1307027	1	3	3	1	0	562	1	4	0	184	86	0	0	100
random	6	1	87	1308478	4	4	4	1	0	780	1	4	0	192	87	0	0	100
random	6	1	88	1309875	2	1	1	1	0	537	1	4	0	168	88	0	0	100
random	6	1	89	1310837	6	4	4	1	0	793	1	4	0	192	89	0	0	100
random	6	1	90	1312221	3	3	3	1	0	886	1	4	0	184	90	0	0	100
random	6	1	91	1313521	5	4	4	1	0	911	1	4	0	192	91	0	0	100
random	6	1	92	1315198	1	2	2	1	0	784	1	4	0	176	92	0	0	100
random	6	1	93	1316485	5	1	1	1	0	729	1	4	0	168	93	0	0	100
random	6	1	94	1317705	4	3	3	1	0	838	1	4	0	184	94	0	0	100
random	6	1	95	1319087	6	1	1	1	0	979	1	4	0	168	95	0	0	100
random	6	1	96	1320369	2	2	2	1	0	1125	1	4	0	176	96	0	0	100
random	6	1	97	1322511	4	3	3	2	0	1706	2	4	0	184	97	0	0	100
random	6	1	98	1324947	3	2	2	1	0	939	1	4	0	176	98	0	0	100
random	6	1	99	1326918	6	3	3	1	0	1576	1	4	0	184	99	0	0	100
random	6	1	100	1329021	1	4	4	1	0	1847	1	4	0	192	100	0	0	100
random	6	1	101	1331732	4	1	1	1	0	539	1	4	0	168	101	0	0	100
random	6	1	102	1332998	5	2	2	1	0	862	1	4	0	176	102	0	0	100
random	6	1	103	1334388	2	4	4	1	0	747	1	4	0	192	103	0	0	100
random	6	1	104	1336002	3	1	1	1	0	991	1	4	0	168	104	0	0	100
random	6	1	105	1337740	1	3	3	1	0	1029	1	4	0	184	105	0	0	100
random	6	1	106	1339390	2	2	2	1	0	967	1	4	0	176	106	0	0	100
random	6	1	107	1340773	5	4	4	1	0	620	1	4	0	192	107	0	0	100
random	6	1	108	1342292	6	1	1	1	0	980	1	4	0	168	108	0	0	100
random	6	1	109	1344097	5	4	4	2	0	1231	2	4	0	192	109	0	0	100
random	6	1	110	1346030	6	3	3	1	0	1262	1	4	0	184	110	0	0	100
random	6	1	111	1347968	2	2	2	1	0	908	1	4	0	176	111	0	0	100
random	6	1	112	1349351	3	1	1	1	0	753	1	4	0	168	112	0	0	100
random	6	1	113	1350484	1	2	2	1	0	1017	1	4	0	176	113	0	0	100
random	6	1	114	1352525	2	3	3	1	0	531	1	4	0	184	114	0	0	100
random	6	1	115	1353501	3	1	1	1	0	1009	1	4	0	168	115	0	0	100
random	6	1	116	1355429	4	4	4	1	0	856	1	4	0	192	116	0	0	100
random	6	1	117	1356745	6	1	1	1	0	752	1	4	0	168	117	0	0	100
random	6	1	118	1358485	5	3	3	1	0	998	1	4	0	184	118	0	0	100
random	6	1	119	1360066	1	4	4	1	0	1332	1	4	0	192	119	0	0	100
random	6	1	120	1361966	4	2	2	1	0	827	1	4	0	176	120	0	0	100
fixed	7	1	1	1364244	4	1	1	1	0	866	1	4	0	200	1	0	0	100
fixed	7	1	2	1366131	1	2	2	1	0	1843	1	4	0	208	2	0	0	100
fixed	7	1	3	1368728	6	4	4	1	0	884	1	4	0	224	3	0	0	100
fixed	7	1	4	1370606	2	1	1	1	0	749	1	4	0	200	4	0	0	100
fixed	7	1	5	1371826	5	3	3	1	0	770	1	4	0	216	5	0	0	100
fixed	7	1	6	1373101	6	4	4	1	0	971	1	4	0	224	6	0	0	100
fixed	7	1	7	1374616	3	1	1	1	0	707	1	4	0	200	7	0	0	100
fixed	7	1	8	1375623	2	3	3	1	0	1576	1	4	0	216	8	0	0	100
fixed	7	1	9	1378238	3	2	2	1	0	810	1	4	0	208	9	0	0	100
fixed	7	1	10	1379663	1	4	4	1	0	934	1	4	0	224	10	0	0	100
fixed	7	1	11	1381505	5	2	2	2	0	1039	2	4	0	208	11	0	0	100
fixed	7	1	12	1383504	4	3	3	1	0	915	1	4	0	216	12	0	0	100
fixed	7	2	1	1385649	4	1	1	1	0	688	1	4	0	200	1	0	0	8
fixed	7	2	2	1386850	1	2	2	1	0	1125	1	4	0	208	2	0	0	14
fixed	7	2	3	1388621	6	4	4	1	0	530	1	4	0	224	3	0	0	20
fixed	7	2	4	1390164	2	1	1	1	0	745	1	4	0	200	4	0	0	25
fixed	7	2	5	1391562	5	3	3	1	0	789	1	4	0	216	5	0	0	29
fixed	7	2	6	1393157	6	4	4	1	0	762	1	4	0	224	6	0	0	33
fixed	7	2	7	1394332	3	1	1	1	0	760	1	4	0	200	7	0	0	37
fixed	7	2	8	1395447	2	3	3	1	0	1009	1	4	0	216	8	0	0	40
fixed	7	2	9	1397292	3	2	2	1	0	602	1	4	0	208	9	0	0	43
fixed	7	2	10	1398353	1	4	4	1	0	838	1	4	0	224	10	0	0	45
fixed	7	2	11	1400134	5	2	2	1	0	1130	1	4	0	208	11	0	0	48
fixed	7	2	12	1401660	4	3	3	1	0	498	1	4	0	216	12	0	0	50
fixed	7	3	1	1403192	4	1	1	1	0	809	1	4	0	200	1	0	0	4
fixed	7	3	2	1404590	1	2	2	1	0	1662	1	4	0	208	2	0	0	8
fixed	7	3	3	1406757	6	4	4	1	0	714	1	4	0	224	3	0	0	11
fixed	7	3	4	1408480	2	1	1	1	0	785	1	4	0	200	4	0	0	14
fixed	7	3	5	1409678	5	3	3	1	0	894	1	4	0	216	5	0	0	17
fixed	7	3	6	1411025	6	4	4	1	0	733	1	4	0	224	6	0	0	20
fixed	7	3	7	1412662	3	1	1	1	0	1424	1	4	0	200	7	0	0	23
fixed	7	3	8	1414431	2	3	3	1	0	917	1	4	0	216	8	0	0	25
fixed	7	3	9	1415963	3	2	2	1	0	796	1	4	0	208	9	0	0	27
fixed	7	3	10	1417199	1	4	4	1	0	608	1	4	0	224	10	0	0	29
fixed	7	3	11	1418182	5	2	2	1	0	1158	1	4	0	208	11	0	0	31
fixed	7	3	12	1420103	4	3	3	1	0	636	1	4	0	216	12	0	0	33
fixed	7	4	1	1421604	4	1	1	1	0	997	1	4	0	200	1	0	0	3
fixed	7	4	2	1423207	1	2	2	1	0	993	1	4	0	208	2	0	0	5
fixed	7	4	3	1424919	6	4	4	1	0	537	1	4	0	224	3	0	0	8
fixed	7	4	4	1425769	2	1	1	1	0	844	1	4	0	200	4	0	0	10
fixed	7	4	5	1427500	5	3	3	1	0	707	1	4	0	216	5	0	0	12
fixed	7	4	6	1428875	6	4	4	1	0	1201	1	4	0	224	6	0	0	14
fixed	7	4	7	1430707	3	1	1	1	0	708	1	4	0	200	7	0	0	16
fixed	7	4	8	1431749	2	3	3	1	0	863	1	4	0	216	8	0	0	18
fixed	7	4	9	1433467	3	2	2	1	0	606	1	4	0	208	9	0	0	20
fixed	7	4	10	1434880	1	4	4	1	0	1003	1	4	0	224	10	0	0	22
fixed	7	4	11	1436315	5	2	2	1	0	1262	1	4	0	208	11	0	0	23
fixed	7	4	12	1437957	4	3	3	1	0	505	1	4	0	216	12	0	0	25
fixed	7	5	1	1439297	4	1	1	1	0	463	1	4	0	200	1	0	0	2
fixed	7	5	2	1440234	1	2	2	1	0	1096	1	4	0	208	2	0	0	4
fixed	7	5	3	1441998	6	4	4	1	0	757	1	4	0	224	3	0	0	6
fixed	7	5	4	1443592	2	1	1	1	0	1033	1	4	0	200	4	0	0	8
fixed	7	5	5	1445434	5	3	3	1	0	1556	1	4	0	216	5	0	0	9
fixed	7	5	6	1447320	6	4	4	1	0	788	1	4	0	224	6	0	0	11
fixed	7	5	7	1449024	3	1	1	1	0	755	1	4	0	200	7	0	0	13
fixed	7	5	8	1450177	2	3	3	1	0	1019	1	4	0	216	8	0	0	14
fixed	7	5	9	1451901	3	2	2	1	0	946	1	4	0	208	9	0	0	16
fixed	7	5	10	1453479	1	4	4	1	0	1191	1	4	0	224	10	0	0	17
fixed	7	5	11	1455026	5	2	2	1	0	957	1	4	0	208	11	0	0	19
fixed	7	5	12	1456381	4	3	3	1	0	1180	1	4	0	216	12	0	0	20
fixed	7	6	1	1458778	4	1	1	1	0	574	1	4	0	200	1	0	0	2
fixed	7	6	2	1460047	1	2	2	1	0	928	1	4	0	208	2	0	0	3
fixed	7	6	3	1461624	6	4	4	1	0	670	1	4	0	224	3	0	0	5
fixed	7	6	4	1463011	2	1	1	1	0	1531	1	4	0	200	4	0	0	6
fixed	7	6	5	1464959	5	3	3	1	0	1160	1	4	0	216	5	0	0	8
fixed	7	6	6	1467021	6	4	4	1	0	793	1	4	0	224	6	0	0	9
fixed	7	6	7	1468530	3	1	1	1	0	794	1	4	0	200	7	0	0	10
fixed	7	6	8	1469990	2	3	3	1	0	891	1	4	0	216	8	0	0	12
fixed	7	6	9	1471714	3	2	2	1	0	730	1	4	0	208	9	0	0	13
fixed	7	6	10	1473461	1	4	4	1	0	825	1	4	0	224	10	0	0	14
fixed	7	6	11	1475089	5	2	2	1	0	827	1	4	0	208	11	0	0	15
fixed	7	6	12	1476720	4	3	3	1	0	862	1	4	0	216	12	0	0	17
fixed	7	7	1	1478460	4	1	1	1	0	452	1	4	0	200	1	0	0	1
fixed	7	7	2	1479644	1	2	2	1	0	978	1	4	0	208	2	0	0	3
fixed	7	7	3	1481352	6	4	4	1	0	746	1	4	0	224	3	0	0	4
fixed	7	7	4	1482700	2	1	1	1	0	713	1	4	0	200	4	0	0	5
fixed	7	7	5	1484235	5	3	3	1	0	736	1	4	0	216	5	0	0	6
fixed	7	7	6	1485619	6	4	4	1	0	806	1	4	0	224	6	0	0	8
fixed	7	7	7	1486803	3	1	1	1	0	803	1	4	0	200	7	0	0	9
fixed	7	7	8	1488341	2	3	3	1	0	1090	1	4	0	216	8	0	0	10
fixed	7	7	9	1489933	3	2	2	1	0	631	1	4	0	208	9	0	0	11
fixed	7	7	10	1491554	1	4	4	1	0	762	1	4	0	224	10	0	0	12
fixed	7	7	11	1492743	5	2	2	1	0	935	1	4	0	208	11	0	0	13
fixed	7	7	12	1494336	4	3	3	1	0	476	1	4	0	216	12	0	0	14
fixed	7	8	1	1495468	4	1	1	1	0	492	1	4	0	200	1	0	0	1
fixed	7	8	2	1496625	1	2	2	1	0	1123	1	4	0	208	2	0	0	2
fixed	7	8	3	1498288	6	4	4	1	0	869	1	4	0	224	3	0	0	3
fixed	7	8	4	1499531	2	1	1	1	0	944	1	4	0	200	4	0	0	5
fixed	7	8	5	1500833	5	3	3	1	0	1473	1	4	0	216	5	0	0	6
fixed	7	8	6	1503312	6	4	4	1	0	736	1	4	0	224	6	0	0	7
fixed	7	8	7	1504433	3	1	1	1	0	769	1	4	0	200	7	0	0	8
fixed	7	8	8	1506079	2	3	3	1	0	907	1	4	0	216	8	0	0	9
fixed	7	8	9	1507413	3	2	2	1	0	514	1	4	0	208	9	0	0	10
fixed	7	8	10	1508692	1	4	4	1	0	908	1	4	0	224	10	0	0	11
fixed	7	8	11	1510363	5	2	2	1	0	862	1	4	0	208	11	0	0	12
fixed	7	8	12	1512060	4	3	3	1	0	453	1	4	0	216	12	0	0	13
fixed	7	9	1	1513797	4	1	1	1	0	812	1	4	0	200	1	0	0	1
fixed	7	9	2	1515175	1	2	2	1	0	778	1	4	0	208	2	0	0	2
fixed	7	9	3	1516853	6	4	4	1	0	682	1	4	0	224	3	0	0	3
fixed	7	9	4	1518564	2	1	1	1	0	810	1	4	0	200	4	0	0	4
fixed	7	9	5	1519718	5	3	3	1	0	833	1	4	0	216	5	0	0	5
fixed	7	9	6	1520991	6	4	4	1	0	787	1	4	0	224	6	0	0	6
fixed	7	9	7	1522299	3	1	1	1	0	740	1	4	0	200	7	0	0	7
fixed	7	9	8	1523758	2	3	3	1	0	1142	1	4	0	216	8	0	0	8
fixed	7	9	9	1525579	3	2	2	1	0	737	1	4	0	208	9	0	0	9
fixed	7	9	10	1526900	1	4	4	1	0	641	1	4	0	224	10	0	0	9
fixed	7	9	11	1528066	5	2	2	1	0	1047	1	4	0	208	11	0	0	10
fixed	7	9	12	1529812	4	3	3	1	0	566	1	4	0	216	12	0	0	11
fixed	7	10	1	1531557	4	1	1	1	0	628	1	4	0	200	1	0	0	1
fixed	7	10	2	1533090	1	2	2	1	0	995	1	4	0	208	2	0	0	2
fixed	7	10	3	1534451	6	4	4	1	0	737	1	4	0	224	3	0	0	3
fixed	7	10	4	1536170	2	1	1	1	0	808	1	4	0	200	4	0	0	4
fixed	7	10	5	1537879	5	3	3	1	0	976	1	4	0	216	5	0	0	4
fixed	7	10	6	1539255	6	4	4	1	0	886	1	4	0	224	6	0	0	5
fixed	7	10	7	1540816	3	1	1	1	0	723	1	4	0	200	7	0	0	6
fixed	7	10	8	1542244	2	3	3	1	0	1079	1	4	0	216	8	0	0	7
fixed	7	10	9	1544340	3	2	2	1	0	486	1	4	0	208	9	0	0	8
fixed	7	10	10	1545850	1	4	4	1	0	638	1	4	0	224	10	0	0	8
fixed	7	10	11	1547454	5	2	2	1	0	1443	1	4	0	208	11	0	0	9
fixed	7	10	12	1549482	4	3	3	1	0	549	1	4	0	216	12	0	0	10
