type	block	sequ.	trial	time	Pos.	Color	Button	NumRsp	Resp_1	RT_1	R_Code	Resp_2	RT_2	Trigg.	n_hit	n_inc	n_miss	score_%

random	1	1	1	5359	6	1	1	1	0	910	1	4	0	8	1	0	0	100
random	1	1	2	6897	4	4	4	1	0	661	1	4	0	32	2	0	0	100
random	1	1	3	8369	2	2	2	2	0	1383	2	4	0	16	3	0	0	100
random	1	1	4	10662	3	3	3	1	0	558	1	4	0	24	4	0	0	100
random	1	1	5	11798	5	2	2	1	0	1230	1	4	0	16	5	0	0	100
random	1	1	6	13493	1	4	4	1	0	630	1	4	0	32	6	0	0	100
random	1	1	7	14846	6	1	1	1	0	749	1	4	0	8	7	0	0	100
random	1	1	8	15892	2	3	3	1	0	873	1	4	0	24	8	0	0	100
random	1	1	9	17503	4	2	2	1	0	733	1	4	0	16	9	0	0	100
random	1	1	10	18727	1	1	1	1	0	840	1	4	0	8	10	0	0	100
random	1	1	11	20533	5	4	4	1	0	660	1	4	0	32	11	0	0	100
random	1	1	12	21531	3	3	3	1	0	1034	1	4	0	24	12	0	0	100
random	1	1	13	23806	5	2	2	1	0	1201	1	4	0	16	13	0	0	100
random	1	1	14	25347	1	4	4	1	0	720	1	4	0	32	14	0	0	100
random	1	1	15	27096	3	1	1	1	0	702	1	4	0	8	15	0	0	100
random	1	1	16	28317	4	3	3	1	0	810	1	4	0	24	16	0	0	100
random	1	1	17	30055	6	4	4	1	0	792	1	4	0	32	17	0	0	100
random	1	1	18	31782	2	1	1	1	0	896	1	4	0	8	18	0	0	100
random	1	1	19	33489	5	3	3	1	0	991	1	4	0	24	19	0	0	100
random	1	1	20	35416	2	2	2	1	0	918	1	4	0	16	20	0	0	100
random	1	1	21	37266	3	3	3	1	0	975	1	4	0	24	21	0	0	100
random	1	1	22	38762	6	1	1	1	0	768	1	4	0	8	22	0	0	100
random	1	1	23	39833	4	2	2	1	0	874	1	4	0	16	23	0	0	100
random	1	1	24	41246	1	4	4	1	0	479	1	4	0	32	24	0	0	100
random	1	1	25	42335	4	3	3	1	0	1232	1	4	0	24	25	0	0	100
random	1	1	26	44246	2	1	1	1	0	784	1	4	0	8	26	0	0	100
random	1	1	27	45383	5	2	2	1	0	832	1	4	0	16	27	0	0	100
random	1	1	28	46709	6	4	4	1	0	664	1	4	0	32	28	0	0	100
random	1	1	29	48006	1	3	3	1	0	1120	1	4	0	24	29	0	0	100
random	1	1	30	49443	5	2	2	1	0	476	1	4	0	16	30	0	0	100
random	1	1	31	50458	2	1	1	1	0	760	1	4	0	8	31	0	0	100
random	1	1	32	51867	3	3	3	1	0	1125	1	4	0	24	32	0	0	100
random	1	1	33	53484	6	4	4	1	0	944	1	4	0	32	33	0	0	100
random	1	1	34	54783	4	2	2	1	0	705	1	4	0	16	34	0	0	100
random	1	1	35	55961	3	4	4	1	0	856	1	4	0	32	35	0	0	100
random	1	1	36	57504	1	1	1	1	0	910	1	4	0	8	36	0	0	100
random	1	1	37	59628	3	4	4	1	0	1924	1	4	0	32	37	0	0	100
random	1	1	38	62494	5	3	3	1	0	1075	1	4	0	24	38	0	0	100
random	1	1	39	63895	6	1	1	1	0	759	1	4	0	8	39	0	0	100
random	1	1	40	65250	1	2	2	1	0	686	1	4	0	16	40	0	0	100
random	1	1	41	66729	2	3	3	1	0	959	1	4	0	24	41	0	0	100
random	1	1	42	68267	4	4	4	1	0	678	1	4	0	32	42	0	0	100
random	1	1	43	69873	1	2	2	1	0	1514	1	4	0	16	43	0	0	100
random	1	1	44	71760	6	3	3	1	0	818	1	4	0	24	44	0	0	100
random	1	1	45	73112	3	1	1	1	0	761	1	4	0	8	45	0	0	100
random	1	1	46	74297	4	4	4	1	0	847	1	4	0	32	46	0	0	100
random	1	1	47	76087	2	2	2	1	0	915	1	4	0	16	47	0	0	100
random	1	1	48	77647	5	1	1	1	0	953	1	4	0	8	48	0	0	100
random	1	1	49	79694	2	3	3	1	0	922	1	4	0	24	49	0	0	100
random	1	1	50	80917	3	1	1	1	0	1014	1	4	0	8	50	0	0	100
random	1	1	51	82427	1	4	4	1	0	703	1	4	0	32	51	0	0	100
random	1	1	52	83646	5	3	3	1	0	795	1	4	0	24	52	0	0	100
random	1	1	53	85310	3	2	2	1	0	780	1	4	0	16	53	0	0	100
random	1	1	54	87034	6	4	4	1	0	763	1	4	0	32	54	0	0	100
random	1	1	55	88584	4	2	2	1	0	705	1	4	0	16	55	0	0	100
random	1	1	56	90072	1	1	1	1	0	811	1	4	0	8	56	0	0	100
random	1	1	57	91910	5	4	4	1	0	669	1	4	0	32	57	0	0	100
random	1	1	58	93437	2	1	1	1	0	884	1	4	0	8	58	0	0	100
random	1	1	59	94706	6	2	2	1	0	934	1	4	0	16	59	0	0	100
random	1	1	60	96552	4	3	3	1	0	680	1	4	0	24	60	0	0	100
random	1	1	61	98223	1	2	2	1	0	1001	1	4	0	16	61	0	0	100
random	1	1	62	99868	6	4	4	1	0	660	1	4	0	32	62	0	0	100
random	1	1	63	101548	4	1	1	1	0	724	1	4	0	8	63	0	0	100
random	1	1	64	103033	2	2	2	1	0	901	1	4	0	16	64	0	0	100
random	1	1	65	104677	4	3	3	1	0	720	1	4	0	24	65	0	0	100
random	1	1	66	106009	3	1	1	1	0	679	1	4	0	8	66	0	0	100
random	1	1	67	107479	1	3	3	1	0	921	1	4	0	24	67	0	0	100
random	1	1	68	109400	5	4	4	2	0	1504	2	4	0	32	68	0	0	100
random	1	1	69	111509	2	2	2	1	0	943	1	4	0	16	69	0	0	100
random	1	1	70	112959	3	1	1	1	0	745	1	4	0	8	70	0	0	100
random	1	1	71	114001	5	4	4	1	0	797	1	4	0	32	71	0	0	100
random	1	1	72	115776	6	3	3	1	0	970	1	4	0	24	72	0	0	100
random	1	1	73	117671	2	1	1	1	0	1033	1	4	0	8	73	0	0	100
random	1	1	74	119464	5	3	3	1	0	878	1	4	0	24	74	0	0	100
random	1	1	75	120990	1	4	4	1	0	1021	1	4	0	32	75	0	0	100
random	1	1	76	122779	6	2	2	1	0	674	1	4	0	16	76	0	0	100
random	1	1	77	124309	2	1	1	1	0	913	1	4	0	8	77	0	0	100
random	1	1	78	125596	4	4	4	1	0	858	1	4	0	32	78	0	0	100
random	1	1	79	127284	3	2	2	1	0	1675	1	4	0	16	79	0	0	100
random	1	1	80	129446	4	3	3	1	0	479	1	4	0	24	80	0	0	100
random	1	1	81	130941	1	4	4	1	0	1312	1	4	0	32	81	0	0	100
random	1	1	82	132733	5	1	1	1	0	676	1	4	0	8	82	0	0	100
random	1	1	83	133897	3	2	2	1	0	914	1	4	0	16	83	0	0	100
random	1	1	84	135352	6	3	3	1	0	493	1	4	0	24	84	0	0	100
random	1	1	85	136918	3	2	2	1	0	1026	1	4	0	16	85	0	0	100
random	1	1	86	138760	1	3	3	1	0	908	1	4	0	24	86	0	0	100
random	1	1	87	140202	4	4	4	1	0	1128	1	4	0	32	87	0	0	100
random	1	1	88	142280	2	1	1	1	0	455	1	4	0	8	88	0	0	100
random	1	1	89	143743	6	4	4	1	0	1394	1	4	0	32	89	0	0	100
random	1	1	90	145957	3	3	3	1	0	1003	1	4	0	24	90	0	0	100
random	1	1	91	147501	5	4	4	1	0	762	1	4	0	32	91	0	0	100
random	1	1	92	148884	1	2	2	1	0	664	1	4	0	16	92	0	0	100
random	1	1	93	150552	5	1	1	1	0	377	1	4	0	8	93	0	0	100
random	1	1	94	151652	4	3	3	1	0	946	1	4	0	24	94	0	0	100
random	1	1	95	153098	6	1	1	2	0	1941	2	4	0	8	95	0	0	100
random	1	1	96	155450	2	2	2	1	0	857	1	4	0	16	96	0	0	100
random	1	1	97	157218	4	3	3	1	0	1126	1	4	0	24	97	0	0	100
random	1	1	98	158646	3	2	2	1	0	834	1	4	0	16	98	0	0	100
random	1	1	99	160146	6	3	3	1	0	1059	1	4	0	24	99	0	0	100
random	1	1	100	162030	1	4	4	1	0	1091	1	4	0	32	100	0	0	100
random	1	1	101	163655	4	1	1	1	0	558	1	4	0	8	101	0	0	100
random	1	1	102	165110	5	2	2	1	0	960	1	4	0	16	102	0	0	100
random	1	1	103	166622	2	4	4	1	0	912	1	4	0	32	103	0	0	100
random	1	1	104	167847	3	1	1	1	0	740	1	4	0	8	104	0	0	100
random	1	1	105	169541	1	3	3	1	0	1013	1	4	0	24	105	0	0	100
random	1	1	106	171455	2	2	2	1	0	875	1	4	0	16	106	0	0	100
random	1	1	107	172799	5	4	4	1	0	763	1	4	0	32	107	0	0	100
random	1	1	108	174402	6	1	1	1	0	831	1	4	0	8	108	0	0	100
random	1	1	109	176315	5	4	4	1	0	894	1	4	0	32	109	0	0	100
random	1	1	110	177897	6	3	3	1	0	867	1	4	0	24	110	0	0	100
random	1	1	111	179405	2	2	2	1	0	427	1	4	0	16	111	0	0	100
random	1	1	112	180675	3	1	0	0	2	0	3	4	0	8	111	0	1	99
random	1	1	113	183892	1	2	2	1	0	909	1	4	0	16	112	0	1	99
random	1	1	114	185625	2	3	3	1	0	771	1	4	0	24	113	0	1	99
random	1	1	115	186959	3	1	1	1	0	771	1	4	0	8	114	0	1	99
random	1	1	116	188759	4	4	4	1	0	671	1	4	0	32	115	0	1	99
random	1	1	117	189923	6	1	1	1	0	822	1	4	0	8	116	0	1	99
random	1	1	118	191251	5	3	3	1	0	1037	1	4	0	24	117	0	1	99
random	1	1	119	192859	1	4	4	1	0	1233	1	4	0	32	118	0	1	99
random	1	1	120	194686	4	2	2	1	0	652	1	4	0	16	119	0	1	99
fixed	2	1	1	196829	4	1	1	1	0	921	1	4	0	40	1	0	0	100
fixed	2	1	2	198229	1	2	2	2	0	1990	2	4	0	48	2	0	0	100
fixed	2	1	3	201007	6	4	4	1	0	1736	1	4	0	64	3	0	0	100
fixed	2	1	4	203517	2	1	1	1	0	709	1	4	0	40	4	0	0	100
fixed	2	1	5	204558	5	3	3	1	0	1330	1	4	0	56	5	0	0	100
fixed	2	1	6	206322	6	4	4	1	0	807	1	4	0	64	6	0	0	100
fixed	2	1	7	208109	3	1	1	1	0	1107	1	4	0	40	7	0	0	100
fixed	2	1	8	209847	2	3	3	1	0	905	1	4	0	56	8	0	0	100
fixed	2	1	9	211128	3	2	2	1	0	707	1	4	0	48	9	0	0	100
fixed	2	1	10	212201	1	4	4	1	0	661	1	4	0	64	10	0	0	100
fixed	2	1	11	213471	5	2	2	1	0	864	1	4	0	48	11	0	0	100
fixed	2	1	12	215217	4	3	3	1	0	518	1	4	0	56	12	0	0	100
fixed	2	2	1	216664	4	1	1	1	0	1081	1	4	0	40	13	0	0	100
fixed	2	2	2	218627	1	2	2	1	0	1454	1	4	0	48	14	0	0	100
fixed	2	2	3	220647	6	4	4	1	0	704	1	4	0	64	15	0	0	100
fixed	2	2	4	222180	2	1	1	1	0	639	1	4	0	40	16	0	0	100
fixed	2	2	5	223236	5	3	3	1	0	794	1	4	0	56	17	0	0	100
fixed	2	2	6	224771	6	4	4	2	0	1321	2	4	0	64	18	0	0	100
fixed	2	2	7	227132	3	1	1	1	0	734	1	4	0	40	19	0	0	100
fixed	2	2	8	228508	2	3	3	1	0	979	1	4	0	56	20	0	0	100
fixed	2	2	9	230508	3	2	2	1	0	695	1	4	0	48	21	0	0	100
fixed	2	2	10	231815	1	4	4	1	0	831	1	4	0	64	22	0	0	100
fixed	2	2	11	233627	5	2	2	1	0	986	1	4	0	48	23	0	0	100
fixed	2	2	12	235410	4	3	3	1	0	343	1	4	0	56	24	0	0	100
fixed	2	3	1	236696	4	1	1	1	0	344	1	4	0	40	25	0	0	100
fixed	2	3	2	237770	1	2	2	1	0	875	1	4	0	48	26	0	0	100
fixed	2	3	3	239496	6	4	4	1	0	1346	1	4	0	64	27	0	0	100
fixed	2	3	4	241436	2	1	1	1	0	672	1	4	0	40	28	0	0	100
fixed	2	3	5	242420	5	3	3	1	0	1310	1	4	0	56	29	0	0	100
fixed	2	3	6	244146	6	4	4	1	0	1076	1	4	0	64	30	0	0	100
fixed	2	3	7	245947	3	1	1	1	0	2121	1	4	0	40	31	0	0	100
fixed	2	3	8	248678	2	3	3	1	0	773	1	4	0	56	32	0	0	100
fixed	2	3	9	250082	3	2	2	1	0	833	1	4	0	48	33	0	0	100
fixed	2	3	10	251228	1	4	4	1	0	737	1	4	0	64	34	0	0	100
fixed	2	3	11	252817	5	2	2	1	0	853	1	4	0	48	35	0	0	100
fixed	2	3	12	254016	4	3	3	1	0	947	1	4	0	56	36	0	0	100
fixed	2	4	1	255943	4	1	1	1	0	329	1	4	0	40	37	0	0	100
fixed	2	4	2	257025	1	2	2	1	0	964	1	4	0	48	38	0	0	100
fixed	2	4	3	258953	6	4	4	1	0	849	1	4	0	64	39	0	0	100
fixed	2	4	4	260710	2	1	1	1	0	743	1	4	0	40	40	0	0	100
fixed	2	4	5	262491	5	3	3	1	0	851	1	4	0	56	41	0	0	100
fixed	2	4	6	264285	6	4	4	1	0	1384	1	4	0	64	42	0	0	100
fixed	2	4	7	266644	3	1	1	1	0	812	1	4	0	40	43	0	0	100
fixed	2	4	8	268129	2	3	3	1	0	949	1	4	0	56	44	0	0	100
fixed	2	4	9	269907	3	2	2	1	0	706	1	4	0	48	45	0	0	100
fixed	2	4	10	271468	1	4	4	1	0	1127	1	4	0	64	46	0	0	100
fixed	2	4	11	273209	5	2	2	1	0	1118	1	4	0	48	47	0	0	100
fixed	2	4	12	274660	4	3	3	1	0	752	1	4	0	56	48	0	0	100
fixed	2	5	1	276661	4	1	1	1	0	387	1	4	0	40	49	0	0	100
fixed	2	5	2	277495	1	2	2	1	0	1224	1	4	0	48	50	0	0	100
fixed	2	5	3	279267	6	4	4	1	0	661	1	4	0	64	51	0	0	100
fixed	2	5	4	280510	2	1	1	1	0	753	1	4	0	40	52	0	0	100
fixed	2	5	5	282244	5	3	3	1	0	927	1	4	0	56	53	0	0	100
fixed	2	5	6	283744	6	4	4	1	0	1543	1	4	0	64	54	0	0	100
fixed	2	5	7	285639	3	1	1	1	0	959	1	4	0	40	55	0	0	100
fixed	2	5	8	287467	2	3	3	1	0	1186	1	4	0	56	56	0	0	100
fixed	2	5	9	289027	3	2	2	1	0	864	1	4	0	48	57	0	0	100
fixed	2	5	10	290871	1	4	4	1	0	602	1	4	0	64	58	0	0	100
fixed	2	5	11	291883	5	2	2	1	0	1007	1	4	0	48	59	0	0	100
fixed	2	5	12	293850	4	3	3	1	0	1076	1	4	0	56	60	0	0	100
fixed	2	6	1	295641	4	1	1	1	0	311	1	4	0	40	61	0	0	100
fixed	2	6	2	296246	1	2	2	1	0	1118	1	4	0	48	62	0	0	100
fixed	2	6	3	297845	6	4	4	1	0	746	1	4	0	64	63	0	0	100
fixed	2	6	4	299075	2	1	1	1	0	1766	1	4	0	40	64	0	0	100
fixed	2	6	5	301204	5	3	3	1	0	988	1	4	0	56	65	0	0	100
fixed	2	6	6	302576	6	4	4	1	0	1170	1	4	0	64	66	0	0	100
fixed	2	6	7	304370	3	1	1	1	0	782	1	4	0	40	67	0	0	100
fixed	2	6	8	305876	2	3	3	1	0	814	1	4	0	56	68	0	0	100
fixed	2	6	9	307257	3	2	2	1	0	1100	1	4	0	48	69	0	0	100
fixed	2	6	10	308748	1	4	4	1	0	1029	1	4	0	64	70	0	0	100
fixed	2	6	11	310075	5	2	2	1	0	1172	1	4	0	48	71	0	0	100
fixed	2	6	12	312195	4	3	3	1	0	683	1	4	0	56	72	0	0	100
fixed	2	7	1	313585	4	1	1	1	0	335	1	4	0	40	73	0	0	100
fixed	2	7	2	314855	1	2	2	1	0	1530	1	4	0	48	74	0	0	100
fixed	2	7	3	317299	6	4	4	1	0	650	1	4	0	64	75	0	0	100
fixed	2	7	4	318862	2	1	1	1	0	920	1	4	0	40	76	0	0	100
fixed	2	7	5	320072	5	3	3	1	0	1037	1	4	0	56	77	0	0	100
fixed	2	7	6	321932	6	4	4	1	0	1190	1	4	0	64	78	0	0	100
fixed	2	7	7	323865	3	1	1	1	0	852	1	4	0	40	79	0	0	100
fixed	2	7	8	325379	2	3	3	1	0	852	1	4	0	56	80	0	0	100
fixed	2	7	9	326995	3	2	2	1	0	648	1	4	0	48	81	0	0	100
fixed	2	7	10	328020	1	4	4	1	0	764	1	4	0	64	82	0	0	100
fixed	2	7	11	329735	5	2	2	1	0	860	1	4	0	48	83	0	0	100
fixed	2	7	12	331185	4	3	3	1	0	382	1	4	0	56	84	0	0	100
fixed	2	8	1	332765	4	1	1	1	0	315	1	4	0	40	85	0	0	100
fixed	2	8	2	333744	1	2	2	1	0	1090	1	4	0	48	86	0	0	100
fixed	2	8	3	335848	6	4	4	1	0	1073	1	4	0	64	87	0	0	100
fixed	2	8	4	337399	2	1	1	1	0	807	1	4	0	40	88	0	0	100
fixed	2	8	5	339027	5	3	3	1	0	1050	1	4	0	56	89	0	0	100
fixed	2	8	6	341054	6	4	4	1	0	1524	1	4	0	64	90	0	0	100
fixed	2	8	7	343225	3	1	1	1	0	632	1	4	0	40	91	0	0	100
fixed	2	8	8	344350	2	3	3	1	0	817	1	4	0	56	92	0	0	100
fixed	2	8	9	345990	3	2	2	1	0	963	1	4	0	48	93	0	0	100
fixed	2	8	10	347281	1	4	4	1	0	693	1	4	0	64	94	0	0	100
fixed	2	8	11	348319	5	2	2	1	0	824	1	4	0	48	95	0	0	100
fixed	2	8	12	350176	4	3	3	1	0	282	1	4	0	56	96	0	0	100
fixed	2	9	1	351344	4	1	1	1	0	408	1	4	0	40	97	0	0	100
fixed	2	9	2	352129	1	2	2	1	0	1727	1	4	0	48	98	0	0	100
fixed	2	9	3	354479	6	4	4	1	0	780	1	4	0	64	99	0	0	100
fixed	2	9	4	355875	2	1	1	1	0	1392	1	4	0	40	100	0	0	100
fixed	2	9	5	358016	5	3	3	1	0	846	1	4	0	56	101	0	0	100
fixed	2	9	6	359703	6	4	4	1	0	830	1	4	0	64	102	0	0	100
fixed	2	9	7	361022	3	1	1	1	0	822	1	4	0	40	103	0	0	100
fixed	2	9	8	362207	2	3	3	1	0	1468	1	4	0	56	104	0	0	100
fixed	2	9	9	364446	3	2	2	1	0	661	1	4	0	48	105	0	0	100
fixed	2	9	10	365782	1	4	4	1	0	677	1	4	0	64	106	0	0	100
fixed	2	9	11	367354	5	2	2	1	0	746	1	4	0	48	107	0	0	100
fixed	2	9	12	368990	4	3	3	1	0	669	1	4	0	56	108	0	0	100
fixed	2	10	1	370558	4	1	1	1	0	418	1	4	0	40	109	0	0	100
fixed	2	10	2	371512	1	2	2	1	0	810	1	4	0	48	110	0	0	100
fixed	2	10	3	373021	6	4	4	1	0	722	1	4	0	64	111	0	0	100
fixed	2	10	4	374457	2	1	1	1	0	837	1	4	0	40	112	0	0	100
fixed	2	10	5	376107	5	3	3	1	0	999	1	4	0	56	113	0	0	100
fixed	2	10	6	377658	6	4	4	1	0	1326	1	4	0	64	114	0	0	100
fixed	2	10	7	379313	3	1	1	1	0	847	1	4	0	40	115	0	0	100
fixed	2	10	8	380879	2	3	3	1	0	878	1	4	0	56	116	0	0	100
fixed	2	10	9	382462	3	2	2	1	0	914	1	4	0	48	117	0	0	100
fixed	2	10	10	384206	1	4	4	1	0	528	1	4	0	64	118	0	0	100
fixed	2	10	11	385424	5	2	2	1	0	813	1	4	0	48	119	0	0	100
fixed	2	10	12	386999	4	3	3	1	0	354	1	4	0	56	120	0	0	100
fixed	3	1	1	388399	4	1	1	1	0	390	1	4	0	72	1	0	0	100
fixed	3	1	2	389358	1	2	2	1	0	1014	1	4	0	80	2	0	0	100
fixed	3	1	3	391222	6	4	4	1	0	728	1	4	0	96	3	0	0	100
fixed	3	1	4	392426	2	1	1	1	0	924	1	4	0	72	4	0	0	100
fixed	3	1	5	393749	5	3	3	1	0	1164	1	4	0	88	5	0	0	100
fixed	3	1	6	395424	6	4	4	1	0	1085	1	4	0	96	6	0	0	100
fixed	3	1	7	397341	3	1	1	1	0	764	1	4	0	72	7	0	0	100
fixed	3	1	8	399102	2	3	3	1	0	850	1	4	0	88	8	0	0	100
fixed	3	1	9	400682	3	2	2	1	0	702	1	4	0	80	9	0	0	100
fixed	3	1	10	401857	1	4	4	1	0	597	1	4	0	96	10	0	0	100
fixed	3	1	11	403025	5	2	2	1	0	843	1	4	0	80	11	0	0	100
fixed	3	1	12	404498	4	3	3	1	0	365	1	4	0	88	12	0	0	100
fixed	3	2	1	406095	4	1	1	1	0	513	1	4	0	72	13	0	0	100
fixed	3	2	2	406915	1	2	2	1	0	934	1	4	0	80	14	0	0	100
fixed	3	2	3	408239	6	4	4	1	0	710	1	4	0	96	15	0	0	100
fixed	3	2	4	409713	2	1	1	1	0	704	1	4	0	72	16	0	0	100
fixed	3	2	5	410754	5	3	3	1	0	868	1	4	0	88	17	0	0	100
fixed	3	2	6	412131	6	4	4	1	0	866	1	4	0	96	18	0	0	100
fixed	3	2	7	413844	3	1	1	1	0	913	1	4	0	72	19	0	0	100
fixed	3	2	8	415048	2	3	3	1	0	854	1	4	0	88	20	0	0	100
fixed	3	2	9	416562	3	2	2	1	0	662	1	4	0	80	21	0	0	100
fixed	3	2	10	417719	1	4	4	1	0	733	1	4	0	96	22	0	0	100
fixed	3	2	11	419176	5	2	2	1	0	1159	1	4	0	80	23	0	0	100
fixed	3	2	12	421323	4	3	3	1	0	260	1	4	0	88	24	0	0	100
fixed	3	3	1	422836	4	1	1	1	0	388	1	4	0	72	25	0	0	100
fixed	3	3	2	424128	1	2	2	1	0	813	1	4	0	80	26	0	0	100
fixed	3	3	3	425715	6	4	4	1	0	610	1	4	0	96	27	0	0	100
fixed	3	3	4	427233	2	1	1	1	0	690	1	4	0	72	28	0	0	100
fixed	3	3	5	428342	5	3	3	1	0	931	1	4	0	88	29	0	0	100
fixed	3	3	6	430269	6	4	4	1	0	945	1	4	0	96	30	0	0	100
fixed	3	3	7	431888	3	1	1	1	0	685	1	4	0	72	31	0	0	100
fixed	3	3	8	433469	2	3	3	1	0	786	1	4	0	88	32	0	0	100
fixed	3	3	9	434784	3	2	2	1	0	922	1	4	0	80	33	0	0	100
fixed	3	3	10	436675	1	4	4	1	0	506	1	4	0	96	34	0	0	100
fixed	3	3	11	437676	5	2	2	1	0	832	1	4	0	80	35	0	0	100
fixed	3	3	12	439038	4	3	3	1	0	654	1	4	0	88	36	0	0	100
fixed	3	4	1	440663	4	1	1	1	0	753	1	4	0	72	37	0	0	100
fixed	3	4	2	441998	1	2	2	1	0	1168	1	4	0	80	38	0	0	100
fixed	3	4	3	444119	6	4	4	1	0	622	1	4	0	96	39	0	0	100
fixed	3	4	4	445098	2	1	1	1	0	885	1	4	0	72	40	0	0	100
fixed	3	4	5	446436	5	3	3	1	0	1445	1	4	0	88	41	0	0	100
fixed	3	4	6	448573	6	4	4	1	0	722	1	4	0	96	42	0	0	100
fixed	3	4	7	449665	3	1	1	1	0	1220	1	4	0	72	43	0	0	100
fixed	3	4	8	451227	2	3	3	1	0	802	1	4	0	88	44	0	0	100
fixed	3	4	9	453010	3	2	2	1	0	766	1	4	0	80	45	0	0	100
fixed	3	4	10	454683	1	4	4	1	0	351	1	4	0	96	46	0	0	100
fixed	3	4	11	455858	5	2	2	1	0	662	1	4	0	80	47	0	0	100
fixed	3	4	12	457360	4	3	3	1	0	678	1	4	0	88	48	0	0	100
fixed	3	5	1	458708	4	1	1	1	0	493	1	4	0	72	49	0	0	100
fixed	3	5	2	460107	1	2	2	1	0	1186	1	4	0	80	50	0	0	100
fixed	3	5	3	461624	6	4	4	1	0	745	1	4	0	96	51	0	0	100
fixed	3	5	4	463264	2	1	1	1	0	980	1	4	0	72	52	0	0	100
fixed	3	5	5	465257	5	3	3	1	0	751	1	4	0	88	53	0	0	100
fixed	3	5	6	466930	6	4	4	1	0	616	1	4	0	96	54	0	0	100
fixed	3	5	7	468318	3	1	1	1	0	774	1	4	0	72	55	0	0	100
fixed	3	5	8	470068	2	3	3	1	0	1187	1	4	0	88	56	0	0	100
fixed	3	5	9	471954	3	2	2	1	0	836	1	4	0	80	57	0	0	100
fixed	3	5	10	473823	1	4	4	1	0	373	1	4	0	96	58	0	0	100
fixed	3	5	11	474792	5	2	2	1	0	956	1	4	0	80	59	0	0	100
fixed	3	5	12	476723	4	3	3	1	0	962	1	4	0	88	60	0	0	100
fixed	3	6	1	478473	4	1	1	1	0	327	1	4	0	72	61	0	0	100
fixed	3	6	2	479840	1	2	2	1	0	902	1	4	0	80	62	0	0	100
fixed	3	6	3	481226	6	4	4	1	0	747	1	4	0	96	63	0	0	100
fixed	3	6	4	482359	2	1	1	1	0	1003	1	4	0	72	64	0	0	100
fixed	3	6	5	484170	5	3	3	1	0	1526	1	4	0	88	65	0	0	100
fixed	3	6	6	486292	6	4	4	1	0	868	1	4	0	96	66	0	0	100
fixed	3	6	7	487615	3	1	1	1	0	636	1	4	0	72	67	0	0	100
fixed	3	6	8	488644	2	3	3	1	0	873	1	4	0	88	68	0	0	100
fixed	3	6	9	490024	3	2	2	1	0	574	1	4	0	80	69	0	0	100
fixed	3	6	10	491124	1	4	4	1	0	456	1	4	0	96	70	0	0	100
fixed	3	6	11	492439	5	2	2	1	0	792	1	4	0	80	71	0	0	100
fixed	3	6	12	493831	4	3	3	1	0	461	1	4	0	88	72	0	0	100
fixed	3	7	1	495464	4	1	1	1	0	552	1	4	0	72	73	0	0	100
fixed	3	7	2	496973	1	2	2	1	0	1008	1	4	0	80	74	0	0	100
fixed	3	7	3	498417	6	4	4	1	0	739	1	4	0	96	75	0	0	100
fixed	3	7	4	499774	2	1	1	1	0	1433	1	4	0	72	76	0	0	100
fixed	3	7	5	501877	5	3	3	1	0	881	1	4	0	88	77	0	0	100
fixed	3	7	6	503059	6	4	4	1	0	782	1	4	0	96	78	0	0	100
fixed	3	7	7	504133	3	1	1	1	0	785	1	4	0	72	79	0	0	100
fixed	3	7	8	505648	2	3	3	1	0	913	1	4	0	88	80	0	0	100
fixed	3	7	9	507244	3	2	2	1	0	797	1	4	0	80	81	0	0	100
fixed	3	7	10	508342	1	4	4	1	0	935	1	4	0	96	82	0	0	100
fixed	3	7	11	509725	5	2	2	1	0	972	1	4	0	80	83	0	0	100
fixed	3	7	12	511184	4	3	3	1	0	422	1	4	0	88	84	0	0	100
fixed	3	8	1	512556	4	1	1	1	0	284	1	4	0	72	85	0	0	100
fixed	3	8	2	513421	1	2	2	1	0	1784	1	4	0	80	86	0	0	100
fixed	3	8	3	515732	6	4	4	1	0	669	1	4	0	96	87	0	0	100
fixed	3	8	4	516930	2	1	1	1	0	979	1	4	0	72	88	0	0	100
fixed	3	8	5	518884	5	3	3	1	0	456	1	4	0	88	89	0	0	100
fixed	3	8	6	519826	6	4	4	1	0	848	1	4	0	96	90	0	0	100
fixed	3	8	7	521395	3	1	1	1	0	725	1	4	0	72	91	0	0	100
fixed	3	8	8	522870	2	3	3	1	0	959	1	4	0	88	92	0	0	100
fixed	3	8	9	524500	3	2	2	1	0	610	1	4	0	80	93	0	0	100
fixed	3	8	10	526074	1	4	4	1	0	2055	1	4	0	96	94	0	0	100
fixed	3	8	11	528994	5	2	2	1	0	932	1	4	0	80	95	0	0	100
fixed	3	8	12	530536	4	3	3	1	0	306	1	4	0	88	96	0	0	100
fixed	3	9	1	531737	4	1	1	1	0	463	1	4	0	72	97	0	0	100
fixed	3	9	2	532554	1	2	2	1	0	861	1	4	0	80	98	0	0	100
fixed	3	9	3	534113	6	4	4	1	0	1051	1	4	0	96	99	0	0	100
fixed	3	9	4	535973	2	1	1	1	0	996	1	4	0	72	100	0	0	100
fixed	3	9	5	537634	5	3	3	2	0	1366	2	4	0	88	101	0	0	100
fixed	3	9	6	539347	6	4	4	1	0	1285	1	4	0	96	102	0	0	100
fixed	3	9	7	541096	3	1	1	1	0	827	1	4	0	72	103	0	0	100
fixed	3	9	8	542785	2	3	3	1	0	772	1	4	0	88	104	0	0	100
fixed	3	9	9	543981	3	2	2	1	0	593	1	4	0	80	105	0	0	100
fixed	3	9	10	544990	1	4	4	1	0	662	1	4	0	96	106	0	0	100
fixed	3	9	11	545959	5	2	2	1	0	813	1	4	0	80	107	0	0	100
fixed	3	9	12	547399	4	3	3	1	0	1224	1	4	0	88	108	0	0	100
fixed	3	10	1	549297	4	1	1	1	0	504	1	4	0	72	109	0	0	100
fixed	3	10	2	550475	1	2	2	1	0	1214	1	4	0	80	110	0	0	100
fixed	3	10	3	552253	6	4	4	1	0	650	1	4	0	96	111	0	0	100
fixed	3	10	4	553318	2	1	1	1	0	846	1	4	0	72	112	0	0	100
fixed	3	10	5	554966	5	3	3	1	0	1136	1	4	0	88	113	0	0	100
fixed	3	10	6	556745	6	4	4	1	0	1245	1	4	0	96	114	0	0	100
fixed	3	10	7	558723	3	1	1	1	0	353	1	4	0	72	115	0	0	100
fixed	3	10	8	559664	2	3	3	1	0	761	1	4	0	88	116	0	0	100
fixed	3	10	9	561097	3	2	2	1	0	556	1	4	0	80	117	0	0	100
fixed	3	10	10	561957	1	4	4	1	0	840	1	4	0	96	118	0	0	100
fixed	3	10	11	563387	5	2	2	1	0	739	1	4	0	80	119	0	0	100
fixed	3	10	12	565018	4	3	3	1	0	278	1	4	0	88	120	0	0	100
fixed	4	1	1	659214	4	1	1	1	0	960	1	4	0	104	1	0	0	100
fixed	4	1	2	660630	1	2	2	1	0	916	1	4	0	112	2	0	0	100
fixed	4	1	3	662277	6	4	4	1	0	487	1	4	0	128	3	0	0	100
fixed	4	1	4	663399	2	1	1	1	0	807	1	4	0	104	4	0	0	100
fixed	4	1	5	664497	5	3	3	1	0	968	1	4	0	120	5	0	0	100
fixed	4	1	6	665875	6	4	4	1	0	1166	1	4	0	128	6	0	0	100
fixed	4	1	7	667616	3	1	1	1	0	637	1	4	0	104	7	0	0	100
fixed	4	1	8	669191	2	3	3	1	0	818	1	4	0	120	8	0	0	100
fixed	4	1	9	670987	3	2	2	1	0	574	1	4	0	112	9	0	0	100
fixed	4	1	10	672148	1	4	4	1	0	420	1	4	0	128	10	0	0	100
fixed	4	1	11	673099	5	2	2	1	0	780	1	4	0	112	11	0	0	100
fixed	4	1	12	674446	4	3	3	1	0	347	1	4	0	120	12	0	0	100
fixed	4	2	1	675640	4	1	1	1	0	328	1	4	0	104	13	0	0	100
fixed	4	2	2	676945	1	2	2	1	0	761	1	4	0	112	14	0	0	100
fixed	4	2	3	678398	6	4	4	1	0	508	1	4	0	128	15	0	0	100
fixed	4	2	4	679489	2	1	1	1	0	1134	1	4	0	104	16	0	0	100
fixed	4	2	5	681602	5	3	3	1	0	1028	1	4	0	120	17	0	0	100
fixed	4	2	6	683620	6	4	4	1	0	871	1	4	0	128	18	0	0	100
fixed	4	2	7	684910	3	1	1	1	0	768	1	4	0	104	19	0	0	100
fixed	4	2	8	686268	2	3	3	1	0	886	1	4	0	120	20	0	0	100
fixed	4	2	9	687570	3	2	2	1	0	671	1	4	0	112	21	0	0	100
fixed	4	2	10	688888	1	4	4	1	0	423	1	4	0	128	22	0	0	100
fixed	4	2	11	689657	5	2	2	1	0	1015	1	4	0	112	23	0	0	100
fixed	4	2	12	691695	4	3	3	1	0	264	1	4	0	120	24	0	0	100
fixed	4	3	1	693233	4	1	1	1	0	1143	1	4	0	104	25	0	0	100
fixed	4	3	2	695404	1	2	2	1	0	963	1	4	0	112	26	0	0	100
fixed	4	3	3	697319	6	4	4	1	0	1075	1	4	0	128	27	0	0	100
fixed	4	3	4	699285	2	1	1	1	0	791	1	4	0	104	28	0	0	100
fixed	4	3	5	700431	5	3	3	1	0	919	1	4	0	120	29	0	0	100
fixed	4	3	6	701724	6	4	4	1	0	952	1	4	0	128	30	0	0	100
fixed	4	3	7	703699	3	1	1	1	0	884	1	4	0	104	31	0	0	100
fixed	4	3	8	705442	2	3	3	1	0	771	1	4	0	120	32	0	0	100
fixed	4	3	9	706759	3	2	2	1	0	835	1	4	0	112	33	0	0	100
fixed	4	3	10	708414	1	4	4	1	0	293	1	4	0	128	34	0	0	100
fixed	4	3	11	709525	5	2	2	1	0	853	1	4	0	112	35	0	0	100
fixed	4	3	12	711141	4	3	3	1	0	321	1	4	0	120	36	0	0	100
fixed	4	4	1	712012	4	1	1	1	0	332	1	4	0	104	37	0	0	100
fixed	4	4	2	712976	1	2	2	1	0	819	1	4	0	112	38	0	0	100
fixed	4	4	3	714522	6	4	4	1	0	1130	1	4	0	128	39	0	0	100
fixed	4	4	4	716445	2	1	1	1	0	608	1	4	0	104	40	0	0	100
fixed	4	4	5	717896	5	3	3	1	0	859	1	4	0	120	41	0	0	100
fixed	4	4	6	719072	6	4	4	1	0	745	1	4	0	128	42	0	0	100
fixed	4	4	7	720152	3	1	1	1	0	747	1	4	0	104	43	0	0	100
fixed	4	4	8	721391	2	3	3	1	0	903	1	4	0	120	44	0	0	100
fixed	4	4	9	723061	3	2	2	1	0	336	1	4	0	112	45	0	0	100
fixed	4	4	10	724375	1	4	4	1	0	360	1	4	0	128	46	0	0	100
fixed	4	4	11	725035	5	2	2	1	0	709	1	4	0	112	47	0	0	100
fixed	4	4	12	726030	4	3	3	1	0	426	1	4	0	120	48	0	0	100
fixed	4	5	1	727033	4	1	1	1	0	328	1	4	0	104	49	0	0	100
fixed	4	5	2	727658	1	2	2	1	0	1157	1	4	0	112	50	0	0	100
fixed	4	5	3	729476	6	4	4	1	0	688	1	4	0	128	51	0	0	100
fixed	4	5	4	730900	2	1	1	1	0	764	1	4	0	104	52	0	0	100
fixed	4	5	5	732257	5	3	3	1	0	739	1	4	0	120	53	0	0	100
fixed	4	5	6	733419	6	4	4	1	0	1233	1	4	0	128	54	0	0	100
fixed	4	5	7	734976	3	1	1	1	0	759	1	4	0	104	55	0	0	100
fixed	4	5	8	736750	2	3	3	1	0	852	1	4	0	120	56	0	0	100
fixed	4	5	9	738032	3	2	2	1	0	830	1	4	0	112	57	0	0	100
fixed	4	5	10	739856	1	4	4	1	0	281	1	4	0	128	58	0	0	100
fixed	4	5	11	741022	5	2	2	1	0	623	1	4	0	112	59	0	0	100
fixed	4	5	12	742325	4	3	3	1	0	304	1	4	0	120	60	0	0	100
fixed	4	6	1	743724	4	1	1	1	0	309	1	4	0	104	61	0	0	100
fixed	4	6	2	744952	1	2	2	1	0	825	1	4	0	112	62	0	0	100
fixed	4	6	3	746308	6	4	4	1	0	656	1	4	0	128	63	0	0	100
fixed	4	6	4	747453	2	1	1	1	0	727	1	4	0	104	64	0	0	100
fixed	4	6	5	748595	5	3	3	1	0	1127	1	4	0	120	65	0	0	100
fixed	4	6	6	750743	6	4	4	1	0	763	1	4	0	128	66	0	0	100
fixed	4	6	7	751933	3	1	1	1	0	665	1	4	0	104	67	0	0	100
fixed	4	6	8	753402	2	3	3	1	0	931	1	4	0	120	68	0	0	100
fixed	4	6	9	755306	3	2	2	1	0	378	1	4	0	112	69	0	0	100
fixed	4	6	10	756378	1	4	4	1	0	357	1	4	0	128	70	0	0	100
fixed	4	6	11	757030	5	2	2	1	0	761	1	4	0	112	71	0	0	100
fixed	4	6	12	758593	4	3	3	1	0	295	1	4	0	120	72	0	0	100
fixed	4	7	1	759963	4	1	1	1	0	325	1	4	0	104	73	0	0	100
fixed	4	7	2	760607	1	2	2	1	0	802	1	4	0	112	74	0	0	100
fixed	4	7	3	762355	6	4	4	1	0	624	1	4	0	128	75	0	0	100
fixed	4	7	4	763442	2	1	1	1	0	714	1	4	0	104	76	0	0	100
fixed	4	7	5	764844	5	3	3	1	0	1142	1	4	0	120	77	0	0	100
fixed	4	7	6	766346	6	4	4	1	0	742	1	4	0	128	78	0	0	100
fixed	4	7	7	767585	3	1	1	1	0	714	1	4	0	104	79	0	0	100
fixed	4	7	8	768611	2	3	3	1	0	1135	1	4	0	120	80	0	0	100
fixed	4	7	9	770563	3	2	2	1	0	828	1	4	0	112	81	0	0	100
fixed	4	7	10	772117	1	4	4	1	0	330	1	4	0	128	82	0	0	100
fixed	4	7	11	773260	5	2	2	1	0	810	1	4	0	112	83	0	0	100
fixed	4	7	12	774544	4	3	3	1	0	324	1	4	0	120	84	0	0	100
fixed	4	8	1	776137	4	1	1	1	0	344	1	4	0	104	85	0	0	100
fixed	4	8	2	777048	1	2	2	1	0	1137	1	4	0	112	86	0	0	100
fixed	4	8	3	779154	6	4	4	1	0	376	1	4	0	128	87	0	0	100
fixed	4	8	4	780271	2	1	1	1	0	737	1	4	0	104	88	0	0	100
fixed	4	8	5	781798	5	3	3	1	0	928	1	4	0	120	89	0	0	100
fixed	4	8	6	783168	6	4	4	1	0	750	1	4	0	128	90	0	0	100
fixed	4	8	7	784572	3	1	1	1	0	810	1	4	0	104	91	0	0	100
fixed	4	8	8	785804	2	3	3	1	0	935	1	4	0	120	92	0	0	100
fixed	4	8	9	787094	3	2	2	1	0	584	1	4	0	112	93	0	0	100
fixed	4	8	10	788502	1	4	4	1	0	308	1	4	0	128	94	0	0	100
fixed	4	8	11	789214	5	2	2	1	0	742	1	4	0	112	95	0	0	100
fixed	4	8	12	790318	4	3	3	1	0	432	1	4	0	120	96	0	0	100
fixed	4	9	1	792009	4	1	1	1	0	335	1	4	0	104	97	0	0	100
fixed	4	9	2	792681	1	2	2	1	0	715	1	4	0	112	98	0	0	100
fixed	4	9	3	794382	6	4	4	1	0	755	1	4	0	128	99	0	0	100
fixed	4	9	4	796108	2	1	1	1	0	746	1	4	0	104	100	0	0	100
fixed	4	9	5	797629	5	3	3	1	0	754	1	4	0	120	101	0	0	100
fixed	4	9	6	799106	6	4	4	1	0	891	1	4	0	128	102	0	0	100
fixed	4	9	7	800723	3	1	1	1	0	687	1	4	0	104	103	0	0	100
fixed	4	9	8	802347	2	3	3	1	0	946	1	4	0	120	104	0	0	100
fixed	4	9	9	804051	3	2	2	1	0	338	1	4	0	112	105	0	0	100
fixed	4	9	10	805372	1	4	4	1	0	362	1	4	0	128	106	0	0	100
fixed	4	9	11	806478	5	2	2	1	0	611	1	4	0	112	107	0	0	100
fixed	4	9	12	808094	4	3	3	1	0	799	1	4	0	120	108	0	0	100
fixed	4	10	1	809853	4	1	1	1	0	460	1	4	0	104	109	0	0	100
fixed	4	10	2	811009	1	2	2	1	0	755	1	4	0	112	110	0	0	100
fixed	4	10	3	812564	6	4	4	1	0	1201	1	4	0	128	111	0	0	100
fixed	4	10	4	814082	2	1	1	1	0	601	1	4	0	104	112	0	0	100
fixed	4	10	5	815294	5	3	3	1	0	934	1	4	0	120	113	0	0	100
fixed	4	10	6	816948	6	4	4	1	0	1000	1	4	0	128	114	0	0	100
fixed	4	10	7	818773	3	1	1	1	0	698	1	4	0	104	115	0	0	100
fixed	4	10	8	820003	2	3	3	1	0	886	1	4	0	120	116	0	0	100
fixed	4	10	9	821526	3	2	2	1	0	662	1	4	0	112	117	0	0	100
fixed	4	10	10	822549	1	4	4	1	0	1018	1	4	0	128	118	0	0	100
fixed	4	10	11	823916	5	2	2	1	0	793	1	4	0	112	119	0	0	100
fixed	4	10	12	825244	4	3	3	1	0	368	1	4	0	120	120	0	0	100
fixed	5	1	1	826575	4	1	1	1	0	23	1	4	0	136	1	0	0	100
fixed	5	1	2	826973	1	2	2	1	0	2135	1	4	0	144	2	0	0	100
fixed	5	1	3	829519	6	4	4	1	0	627	1	4	0	160	3	0	0	100
fixed	5	1	4	831060	2	1	1	1	0	770	1	4	0	136	4	0	0	100
fixed	5	1	5	832749	5	3	3	1	0	1026	1	4	0	152	5	0	0	100
fixed	5	1	6	834162	6	4	4	1	0	1038	1	4	0	160	6	0	0	100
fixed	5	1	7	836175	3	1	1	1	0	753	1	4	0	136	7	0	0	100
fixed	5	1	8	837222	2	3	3	1	0	957	1	4	0	152	8	0	0	100
fixed	5	1	9	839115	3	2	2	1	0	325	1	4	0	144	9	0	0	100
fixed	5	1	10	840049	1	4	4	1	0	725	1	4	0	160	10	0	0	100
fixed	5	1	11	841679	5	2	2	1	0	872	1	4	0	144	11	0	0	100
fixed	5	1	12	843061	4	3	3	1	0	366	1	4	0	152	12	0	0	100
fixed	5	2	1	844204	4	1	1	1	0	341	1	4	0	136	13	0	0	100
fixed	5	2	2	844993	1	2	2	1	0	684	1	4	0	144	14	0	0	100
fixed	5	2	3	846613	6	4	4	1	0	743	1	4	0	160	15	0	0	100
fixed	5	2	4	848149	2	1	1	1	0	742	1	4	0	136	16	0	0	100
fixed	5	2	5	849193	5	3	3	1	0	850	1	4	0	152	17	0	0	100
fixed	5	2	6	850818	6	4	4	1	0	1093	1	4	0	160	18	0	0	100
fixed	5	2	7	852223	3	1	1	1	0	753	1	4	0	136	19	0	0	100
fixed	5	2	8	853954	2	3	3	1	0	840	1	4	0	152	20	0	0	100
fixed	5	2	9	855430	3	2	2	1	0	465	1	4	0	144	21	0	0	100
fixed	5	2	10	856322	1	4	4	1	0	420	1	4	0	160	22	0	0	100
fixed	5	2	11	857251	5	2	2	1	0	652	1	4	0	144	23	0	0	100
fixed	5	2	12	858463	4	3	3	1	0	321	1	4	0	152	24	0	0	100
fixed	5	3	1	859441	4	1	1	1	0	351	1	4	0	136	25	0	0	100
fixed	5	3	2	860306	1	2	2	1	0	811	1	4	0	144	26	0	0	100
fixed	5	3	3	861719	6	4	4	1	0	743	1	4	0	160	27	0	0	100
fixed	5	3	4	863138	2	1	1	1	0	779	1	4	0	136	28	0	0	100
fixed	5	3	5	864859	5	3	3	1	0	538	1	4	0	152	29	0	0	100
fixed	5	3	6	866409	6	4	4	1	0	736	1	4	0	160	30	0	0	100
fixed	5	3	7	868188	3	1	1	1	0	421	1	4	0	136	31	0	0	100
fixed	5	3	8	869140	2	3	3	1	0	1045	1	4	0	152	32	0	0	100
fixed	5	3	9	870777	3	2	2	1	0	432	1	4	0	144	33	0	0	100
fixed	5	3	10	871713	1	4	4	1	0	376	1	4	0	160	34	0	0	100
fixed	5	3	11	872904	5	2	2	1	0	670	1	4	0	144	35	0	0	100
fixed	5	3	12	874058	4	3	3	1	0	332	1	4	0	152	36	0	0	100
fixed	5	4	1	875631	4	1	1	1	0	346	1	4	0	136	37	0	0	100
fixed	5	4	2	876825	1	2	2	1	0	895	1	4	0	144	38	0	0	100
fixed	5	4	3	878040	6	4	4	1	0	820	1	4	0	160	39	0	0	100
fixed	5	4	4	879282	2	1	1	1	0	791	1	4	0	136	40	0	0	100
fixed	5	4	5	880426	5	3	3	1	0	1007	1	4	0	152	41	0	0	100
fixed	5	4	6	882019	6	4	4	1	0	923	1	4	0	160	42	0	0	100
fixed	5	4	7	883257	3	1	1	1	0	911	1	4	0	136	43	0	0	100
fixed	5	4	8	884508	2	3	3	1	0	1522	1	4	0	152	44	0	0	100
fixed	5	4	9	886796	3	2	2	1	0	289	1	4	0	144	45	0	0	100
fixed	5	4	10	887744	1	4	4	1	0	505	1	4	0	160	46	0	0	100
fixed	5	4	11	889109	5	2	2	1	0	1423	1	4	0	144	47	0	0	100
fixed	5	4	12	891286	4	3	3	1	0	275	1	4	0	152	48	0	0	100
fixed	5	5	1	892472	4	1	1	1	0	320	1	4	0	136	49	0	0	100
fixed	5	5	2	893233	1	2	2	1	0	816	1	4	0	144	50	0	0	100
fixed	5	5	3	894527	6	4	4	1	0	745	1	4	0	160	51	0	0	100
fixed	5	5	4	895568	2	1	1	1	0	893	1	4	0	136	52	0	0	100
fixed	5	5	5	897384	5	3	3	1	0	520	1	4	0	152	53	0	0	100
fixed	5	5	6	898305	6	4	4	1	0	785	1	4	0	160	54	0	0	100
fixed	5	5	7	900116	3	1	1	1	0	933	1	4	0	136	55	0	0	100
fixed	5	5	8	901828	2	3	3	1	0	956	1	4	0	152	56	0	0	100
fixed	5	5	9	903252	3	2	2	1	0	408	1	4	0	144	57	0	0	100
fixed	5	5	10	904211	1	4	4	1	0	528	1	4	0	160	58	0	0	100
fixed	5	5	11	905331	5	2	2	1	0	592	1	4	0	144	59	0	0	100
fixed	5	5	12	906481	4	3	3	1	0	439	1	4	0	152	60	0	0	100
fixed	5	6	1	907709	4	1	1	1	0	331	1	4	0	136	61	0	0	100
fixed	5	6	2	908360	1	2	2	1	0	911	1	4	0	144	62	0	0	100
fixed	5	6	3	909630	6	4	4	1	0	906	1	4	0	160	63	0	0	100
fixed	5	6	4	911456	2	1	1	1	0	972	1	4	0	136	64	0	0	100
fixed	5	6	5	913420	5	3	3	1	0	1322	1	4	0	152	65	0	0	100
fixed	5	6	6	915218	6	4	4	1	0	717	1	4	0	160	66	0	0	100
fixed	5	6	7	916499	3	1	1	1	0	1127	1	4	0	136	67	0	0	100
fixed	5	6	8	918153	2	3	3	1	0	1009	1	4	0	152	68	0	0	100
fixed	5	6	9	920157	3	2	2	1	0	444	1	4	0	144	69	0	0	100
fixed	5	6	10	921269	1	4	4	1	0	349	1	4	0	160	70	0	0	100
fixed	5	6	11	922619	5	2	2	1	0	884	1	4	0	144	71	0	0	100
fixed	5	6	12	924506	4	3	3	1	0	300	1	4	0	152	72	0	0	100
fixed	5	7	1	925887	4	1	1	1	0	385	1	4	0	136	73	0	0	100
fixed	5	7	2	926612	1	2	2	1	0	995	1	4	0	144	74	0	0	100
fixed	5	7	3	928498	6	4	4	1	0	779	1	4	0	160	75	0	0	100
fixed	5	7	4	930156	2	1	1	1	0	1005	1	4	0	136	76	0	0	100
fixed	5	7	5	931844	5	3	3	1	0	821	1	4	0	152	77	0	0	100
fixed	5	7	6	933413	6	4	4	1	0	899	1	4	0	160	78	0	0	100
fixed	5	7	7	934807	3	1	1	1	0	679	1	4	0	136	79	0	0	100
fixed	5	7	8	936193	2	3	3	2	0	1229	2	4	0	152	80	0	0	100
fixed	5	7	9	938089	3	2	2	1	0	940	1	4	0	144	81	0	0	100
fixed	5	7	10	940033	1	4	4	1	0	746	1	4	0	160	82	0	0	100
fixed	5	7	11	941335	5	2	2	1	0	891	1	4	0	144	83	0	0	100
fixed	5	7	12	943238	4	3	3	1	0	266	1	4	0	152	84	0	0	100
fixed	5	8	1	944566	4	1	1	1	0	330	1	4	0	136	85	0	0	100
fixed	5	8	2	945287	1	2	2	1	0	747	1	4	0	144	86	0	0	100
fixed	5	8	3	946678	6	4	4	1	0	777	1	4	0	160	87	0	0	100
fixed	5	8	4	947908	2	1	1	1	0	996	1	4	0	136	88	0	0	100
fixed	5	8	5	949495	5	3	3	1	0	1113	1	4	0	152	89	0	0	100
fixed	5	8	6	951196	6	4	4	1	0	978	1	4	0	160	90	0	0	100
fixed	5	8	7	953194	3	1	1	1	0	1109	1	4	0	136	91	0	0	100
fixed	5	8	8	954884	2	3	3	1	0	1005	1	4	0	152	92	0	0	100
fixed	5	8	9	956533	3	2	2	1	0	583	1	4	0	144	93	0	0	100
fixed	5	8	10	957706	1	4	4	1	0	662	1	4	0	160	94	0	0	100
fixed	5	8	11	958852	5	2	2	1	0	661	1	4	0	144	95	0	0	100
fixed	5	8	12	960076	4	3	3	1	0	361	1	4	0	152	96	0	0	100
fixed	5	9	1	961341	4	1	1	1	0	323	1	4	0	136	97	0	0	100
fixed	5	9	2	962617	1	2	2	1	0	814	1	4	0	144	98	0	0	100
fixed	5	9	3	963956	6	4	4	1	0	797	1	4	0	160	99	0	0	100
fixed	5	9	4	965392	2	1	1	1	0	936	1	4	0	136	100	0	0	100
fixed	5	9	5	966952	5	3	3	1	0	894	1	4	0	152	101	0	0	100
fixed	5	9	6	968810	6	4	4	1	0	799	1	4	0	160	102	0	0	100
fixed	5	9	7	970169	3	1	1	1	0	678	1	4	0	136	103	0	0	100
fixed	5	9	8	971519	2	3	3	1	0	772	1	4	0	152	104	0	0	100
fixed	5	9	9	973049	3	2	2	1	0	523	1	4	0	144	105	0	0	100
fixed	5	9	10	973867	1	4	4	1	0	1257	1	4	0	160	106	0	0	100
fixed	5	9	11	976111	5	2	2	1	0	906	1	4	0	144	107	0	0	100
fixed	5	9	12	977938	4	3	3	1	0	301	1	4	0	152	108	0	0	100
fixed	5	10	1	979001	4	1	1	1	0	319	1	4	0	136	109	0	0	100
fixed	5	10	2	980168	1	2	2	1	0	710	1	4	0	144	110	0	0	100
fixed	5	10	3	981265	6	4	4	1	0	736	1	4	0	160	111	0	0	100
fixed	5	10	4	982713	2	1	1	1	0	1154	1	4	0	136	112	0	0	100
fixed	5	10	5	984343	5	3	3	1	0	726	1	4	0	152	113	0	0	100
fixed	5	10	6	985526	6	4	4	1	0	1035	1	4	0	160	114	0	0	100
fixed	5	10	7	987041	3	1	1	1	0	667	1	4	0	136	115	0	0	100
fixed	5	10	8	988164	2	3	3	1	0	1452	1	4	0	152	116	0	0	100
fixed	5	10	9	990636	3	2	2	1	0	803	1	4	0	144	117	0	0	100
fixed	5	10	10	992312	1	4	4	1	0	540	1	4	0	160	118	0	0	100
fixed	5	10	11	993164	5	2	2	1	0	920	1	4	0	144	119	0	0	100
fixed	5	10	12	994470	4	3	3	1	0	432	1	4	0	152	120	0	0	100
random	6	1	1	1081801	6	1	1	1	0	1389	1	4	0	168	1	0	0	100
random	6	1	2	1083893	4	4	4	1	0	1045	1	4	0	192	2	0	0	100
random	6	1	3	1085438	2	2	2	1	0	923	1	4	0	176	3	0	0	100
random	6	1	4	1086957	3	3	3	1	0	579	1	4	0	184	4	0	0	100
random	6	1	5	1088546	5	2	2	1	0	920	1	4	0	176	5	0	0	100
random	6	1	6	1089769	1	4	4	1	0	908	1	4	0	192	6	0	0	100
random	6	1	7	1091017	6	1	1	1	0	919	1	4	0	168	7	0	0	100
random	6	1	8	1092353	2	3	3	1	0	1055	1	4	0	184	8	0	0	100
random	6	1	9	1093931	4	2	2	1	0	987	1	4	0	176	9	0	0	100
random	6	1	10	1095241	1	1	1	1	0	780	1	4	0	168	10	0	0	100
random	6	1	11	1096505	5	4	4	1	0	750	1	4	0	192	11	0	0	100
random	6	1	12	1098253	3	3	3	1	0	965	1	4	0	184	12	0	0	100
random	6	1	13	1100182	5	2	2	2	0	1203	2	4	0	176	13	0	0	100
random	6	1	14	1101736	1	4	4	1	0	673	1	4	0	192	14	0	0	100
random	6	1	15	1103192	3	1	1	1	0	563	1	4	0	168	15	0	0	100
random	6	1	16	1104721	4	3	3	1	0	939	1	4	0	184	16	0	0	100
random	6	1	17	1106337	6	4	4	1	0	1238	1	4	0	192	17	0	0	100
random	6	1	18	1108600	2	1	1	1	0	1094	1	4	0	168	18	0	0	100
random	6	1	19	1110560	5	3	3	1	0	755	1	4	0	184	19	0	0	100
random	6	1	20	1112200	2	2	2	1	0	1286	1	4	0	176	20	0	0	100
random	6	1	21	1114128	3	3	3	1	0	1348	1	4	0	184	21	0	0	100
random	6	1	22	1115792	6	1	1	2	0	2334	2	4	0	168	22	0	0	100
random	6	1	23	1118629	4	2	2	1	0	909	1	4	0	176	23	0	0	100
random	6	1	24	1120558	1	4	4	1	0	548	1	4	0	192	24	0	0	100
random	6	1	25	1121918	4	3	3	1	0	1674	1	4	0	184	25	0	0	100
random	6	1	26	1124403	2	1	1	1	0	1545	1	4	0	168	26	0	0	100
random	6	1	27	1126245	5	2	2	1	0	1075	1	4	0	176	27	0	0	100
random	6	1	28	1127739	6	4	4	1	0	556	1	4	0	192	28	0	0	100
random	6	1	29	1129269	1	3	3	1	0	931	1	4	0	184	29	0	0	100
random	6	1	30	1130983	5	2	2	1	0	690	1	4	0	176	30	0	0	100
random	6	1	31	1132292	2	1	1	1	0	1290	1	4	0	168	31	0	0	100
random	6	1	32	1134624	3	3	3	1	0	784	1	4	0	184	32	0	0	100
random	6	1	33	1136149	6	4	4	1	0	888	1	4	0	192	33	0	0	100
random	6	1	34	1137902	4	2	2	1	0	773	1	4	0	176	34	0	0	100
random	6	1	35	1139047	3	4	4	1	0	1157	1	4	0	192	35	0	0	100
random	6	1	36	1140661	1	1	1	1	0	1153	1	4	0	168	36	0	0	100
random	6	1	37	1143053	3	4	4	1	0	995	1	4	0	192	37	0	0	100
random	6	1	38	1144524	5	3	3	1	0	1108	1	4	0	184	38	0	0	100
random	6	1	39	1146659	6	1	1	1	0	723	1	4	0	168	39	0	0	100
random	6	1	40	1148105	1	2	2	1	0	1173	1	4	0	176	40	0	0	100
random	6	1	41	1149909	2	3	3	1	0	1089	1	4	0	184	41	0	0	100
random	6	1	42	1151579	4	4	4	1	0	1522	1	4	0	192	42	0	0	100
random	6	1	43	1153613	1	2	2	1	0	803	1	4	0	176	43	0	0	100
random	6	1	44	1155122	6	3	3	1	0	1036	1	4	0	184	44	0	0	100
random	6	1	45	1157084	3	1	1	1	0	537	1	4	0	168	45	0	0	100
random	6	1	46	1158097	4	4	4	1	0	734	1	4	0	192	46	0	0	100
random	6	1	47	1159427	2	2	2	1	0	949	1	4	0	176	47	0	0	100
random	6	1	48	1160938	5	1	1	1	0	1030	1	4	0	168	48	0	0	100
random	6	1	49	1163203	2	3	3	1	0	957	1	4	0	184	49	0	0	100
random	6	1	50	1164501	3	1	1	1	0	863	1	4	0	168	50	0	0	100
random	6	1	51	1166012	1	4	4	1	0	902	1	4	0	192	51	0	0	100
random	6	1	52	1167732	5	3	3	1	0	1422	1	4	0	184	52	0	0	100
random	6	1	53	1169946	3	2	2	1	0	480	1	4	0	176	53	0	0	100
random	6	1	54	1171036	6	4	4	1	0	842	1	4	0	192	54	0	0	100
random	6	1	55	1172778	4	2	2	1	0	1048	1	4	0	176	55	0	0	100
random	6	1	56	1174693	1	1	1	1	0	639	1	4	0	168	56	0	0	100
random	6	1	57	1176224	5	4	4	1	0	774	1	4	0	192	57	0	0	100
random	6	1	58	1177411	2	1	1	1	0	908	1	4	0	168	58	0	0	100
random	6	1	59	1178879	6	2	0	1	2	0	3	4	0	176	58	0	1	98
random	6	1	60	1182382	4	3	3	1	0	905	1	4	0	184	59	0	1	98
random	6	1	61	1184589	1	2	2	1	0	755	1	4	0	176	60	0	1	98
random	6	1	62	1186324	6	4	4	1	0	682	1	4	0	192	61	0	1	98
random	6	1	63	1187427	4	1	1	1	0	1203	1	4	0	168	62	0	1	98
random	6	1	64	1189566	2	2	2	1	0	881	1	4	0	176	63	0	1	98
random	6	1	65	1191411	4	3	3	1	0	867	1	4	0	184	64	0	1	98
random	6	1	66	1192886	3	1	1	1	0	796	1	4	0	168	65	0	1	98
random	6	1	67	1193982	1	3	3	1	0	1358	1	4	0	184	66	0	1	99
random	6	1	68	1195950	5	4	4	1	0	1010	1	4	0	192	67	0	1	99
random	6	1	69	1197975	2	2	2	1	0	1237	1	4	0	176	68	0	1	99
random	6	1	70	1200044	3	1	1	1	0	749	1	4	0	168	69	0	1	99
random	6	1	71	1201155	5	4	4	1	0	1222	1	4	0	192	70	0	1	99
random	6	1	72	1202697	6	3	3	1	0	1068	1	4	0	184	71	0	1	99
random	6	1	73	1204838	2	1	1	1	0	722	1	4	0	168	72	0	1	99
random	6	1	74	1206439	5	3	3	1	0	991	1	4	0	184	73	0	1	99
random	6	1	75	1207748	1	4	4	1	0	783	1	4	0	192	74	0	1	99
random	6	1	76	1209203	6	2	2	1	0	801	1	4	0	176	75	0	1	99
random	6	1	77	1210965	2	1	1	2	0	1639	2	4	0	168	76	0	1	99
random	6	1	78	1213244	4	4	4	1	0	838	1	4	0	192	77	0	1	99
random	6	1	79	1214862	3	2	2	1	0	961	1	4	0	176	78	0	1	99
random	6	1	80	1216468	4	3	3	1	0	1269	1	4	0	184	79	0	1	99
random	6	1	81	1218358	1	4	4	1	0	1053	1	4	0	192	80	0	1	99
random	6	1	82	1219760	5	1	1	1	0	1338	1	4	0	168	81	0	1	99
random	6	1	83	1222038	3	2	2	1	0	898	1	4	0	176	82	0	1	99
random	6	1	84	1223501	6	3	3	1	0	523	1	4	0	184	83	0	1	99
random	6	1	85	1225038	3	2	2	2	0	1362	2	4	0	176	84	0	1	99
random	6	1	86	1227277	1	3	3	1	0	843	1	4	0	184	85	0	1	99
random	6	1	87	1229035	4	4	4	1	0	937	1	4	0	192	86	0	1	99
random	6	1	88	1230722	2	1	1	1	0	498	1	4	0	168	87	0	1	99
random	6	1	89	1231970	6	4	4	1	0	1277	1	4	0	192	88	0	1	99
random	6	1	90	1233762	3	3	3	1	0	881	1	4	0	184	89	0	1	99
random	6	1	91	1235591	5	4	4	1	0	1124	1	4	0	192	90	0	1	99
random	6	1	92	1237458	1	2	2	1	0	1636	1	4	0	176	91	0	1	99
random	6	1	93	1239860	5	1	1	1	0	847	1	4	0	168	92	0	1	99
random	6	1	94	1241250	4	3	3	1	0	1292	1	4	0	184	93	0	1	99
random	6	1	95	1243295	6	1	1	1	0	917	1	4	0	168	94	0	1	99
random	6	1	96	1244563	2	2	2	1	0	1064	1	4	0	176	95	0	1	99
random	6	1	97	1246875	4	3	3	1	0	1805	1	4	0	184	96	0	1	99
random	6	1	98	1249109	3	2	2	1	0	799	1	4	0	176	97	0	1	99
random	6	1	99	1250367	6	3	3	2	0	1561	2	4	0	184	98	0	1	99
random	6	1	100	1252797	1	4	4	1	0	867	1	4	0	192	99	0	1	99
random	6	1	101	1254363	4	1	1	1	0	888	1	4	0	168	100	0	1	99
random	6	1	102	1255960	5	2	2	1	0	949	1	4	0	176	101	0	1	99
random	6	1	103	1257637	2	4	4	1	0	926	1	4	0	192	102	0	1	99
random	6	1	104	1259380	3	1	1	1	0	1060	1	4	0	168	103	0	1	99
random	6	1	105	1261302	1	3	3	1	0	1555	1	4	0	184	104	0	1	99
random	6	1	106	1263654	2	2	2	1	0	567	1	4	0	176	105	0	1	99
random	6	1	107	1264505	5	4	4	1	0	651	1	4	0	192	106	0	1	99
random	6	1	108	1265499	6	1	1	1	0	889	1	4	0	168	107	0	1	99
random	6	1	109	1267225	5	4	4	1	0	815	1	4	0	192	108	0	1	99
random	6	1	110	1268608	6	3	3	1	0	1221	1	4	0	184	109	0	1	99
random	6	1	111	1270447	2	2	2	1	0	511	1	4	0	176	110	0	1	99
random	6	1	112	1271401	3	1	1	1	0	686	1	4	0	168	111	0	1	99
random	6	1	113	1273009	1	2	2	1	0	1019	1	4	0	176	112	0	1	99
random	6	1	114	1274457	2	3	3	1	0	741	1	4	0	184	113	0	1	99
random	6	1	115	1275959	3	1	1	1	0	774	1	4	0	168	114	0	1	99
random	6	1	116	1277292	4	4	4	1	0	477	1	4	0	192	115	0	1	99
random	6	1	117	1278682	6	1	1	1	0	851	1	4	0	168	116	0	1	99
random	6	1	118	1280396	5	3	3	1	0	898	1	4	0	184	117	0	1	99
random	6	1	119	1281844	1	4	4	1	0	596	1	4	0	192	118	0	1	99
random	6	1	120	1283400	4	2	2	1	0	498	1	4	0	176	119	0	1	99
fixed	7	1	1	1285350	4	1	1	1	0	816	1	4	0	200	1	0	0	100
fixed	7	1	2	1287004	1	2	2	1	0	1538	1	4	0	208	2	0	0	100
fixed	7	1	3	1288854	6	4	4	1	0	852	1	4	0	224	3	0	0	100
fixed	7	1	4	1290561	2	1	1	1	0	851	1	4	0	200	4	0	0	100
fixed	7	1	5	1292414	5	3	3	1	0	1141	1	4	0	216	5	0	0	100
fixed	7	1	6	1294233	6	4	4	1	0	1072	1	4	0	224	6	0	0	100
fixed	7	1	7	1295766	3	1	1	1	0	807	1	4	0	200	7	0	0	100
fixed	7	1	8	1297174	2	3	3	1	0	963	1	4	0	216	8	0	0	100
fixed	7	1	9	1298991	3	2	2	1	0	414	1	4	0	208	9	0	0	100
fixed	7	1	10	1300012	1	4	4	1	0	603	1	4	0	224	10	0	0	100
fixed	7	1	11	1301148	5	2	2	1	0	827	1	4	0	208	11	0	0	100
fixed	7	1	12	1302669	4	3	3	1	0	354	1	4	0	216	12	0	0	100
fixed	7	2	1	1304065	4	1	1	1	0	807	1	4	0	200	1	0	0	8
fixed	7	2	2	1305878	1	2	2	1	0	347	1	4	0	208	2	0	0	14
fixed	7	2	3	1307142	6	4	4	1	0	845	1	4	0	224	3	0	0	20
fixed	7	2	4	1308420	2	1	1	1	0	719	1	4	0	200	4	0	0	25
fixed	7	2	5	1309857	5	3	3	1	0	1090	1	4	0	216	5	0	0	29
fixed	7	2	6	1311309	6	4	4	1	0	877	1	4	0	224	6	0	0	33
fixed	7	2	7	1312949	3	1	1	1	0	759	1	4	0	200	7	0	0	37
fixed	7	2	8	1314213	2	3	3	1	0	1017	1	4	0	216	8	0	0	40
fixed	7	2	9	1315669	3	2	2	1	0	404	1	4	0	208	9	0	0	43
fixed	7	2	10	1316966	1	4	4	1	0	925	1	4	0	224	10	0	0	45
fixed	7	2	11	1318233	5	2	2	1	0	1159	1	4	0	208	11	0	0	48
fixed	7	2	12	1319703	4	3	3	1	0	417	1	4	0	216	12	0	0	50
fixed	7	3	1	1320857	4	1	1	1	0	296	1	4	0	200	1	0	0	4
fixed	7	3	2	1321991	1	2	2	2	0	752	2	4	0	208	2	0	0	8
fixed	7	3	3	1323177	6	4	4	1	0	661	1	4	0	224	3	0	0	11
fixed	7	3	4	1324169	2	1	1	1	0	804	1	4	0	200	4	0	0	14
fixed	7	3	5	1325426	5	3	3	1	0	823	1	4	0	216	5	0	0	17
fixed	7	3	6	1327215	6	4	4	1	0	1275	1	4	0	224	6	0	0	20
fixed	7	3	7	1329443	3	1	1	1	0	468	1	4	0	200	7	0	0	23
fixed	7	3	8	1330299	2	3	3	1	0	792	1	4	0	216	8	0	0	25
fixed	7	3	9	1331593	3	2	2	1	0	353	1	4	0	208	9	0	0	27
fixed	7	3	10	1332802	1	4	4	1	0	958	1	4	0	224	10	0	0	29
fixed	7	3	11	1334538	5	2	2	1	0	788	1	4	0	208	11	0	0	31
fixed	7	3	12	1335670	4	3	3	1	0	397	1	4	0	216	12	0	0	33
fixed	7	4	1	1336695	4	1	1	1	0	377	1	4	0	200	1	0	0	3
fixed	7	4	2	1337454	1	2	2	1	0	721	1	4	0	208	2	0	0	5
fixed	7	4	3	1338643	6	4	4	1	0	823	1	4	0	224	3	0	0	8
fixed	7	4	4	1340392	2	1	1	1	0	1828	1	4	0	200	4	0	0	10
fixed	7	4	5	1343086	5	3	3	1	0	803	1	4	0	216	5	0	0	12
fixed	7	4	6	1344425	6	4	4	1	0	1090	1	4	0	224	6	0	0	14
fixed	7	4	7	1346305	3	1	1	1	0	698	1	4	0	200	7	0	0	16
fixed	7	4	8	1347386	2	3	3	1	0	876	1	4	0	216	8	0	0	18
fixed	7	4	9	1348676	3	2	2	1	0	549	1	4	0	208	9	0	0	20
fixed	7	4	10	1349570	1	4	4	1	0	680	1	4	0	224	10	0	0	22
fixed	7	4	11	1350829	5	2	2	1	0	962	1	4	0	208	11	0	0	23
fixed	7	4	12	1352172	4	3	3	1	0	378	1	4	0	216	12	0	0	25
fixed	7	5	1	1353620	4	1	1	1	0	308	1	4	0	200	1	0	0	2
fixed	7	5	2	1354583	1	2	2	1	0	1012	1	4	0	208	2	0	0	4
fixed	7	5	3	1356310	6	4	4	1	0	674	1	4	0	224	3	0	0	6
fixed	7	5	4	1357951	2	1	1	1	0	1045	1	4	0	200	4	0	0	8
fixed	7	5	5	1359729	5	3	3	1	0	1186	1	4	0	216	5	0	0	9
fixed	7	5	6	1361767	6	4	4	1	0	1083	1	4	0	224	6	0	0	11
fixed	7	5	7	1363481	3	1	1	1	0	786	1	4	0	200	7	0	0	13
fixed	7	5	8	1365195	2	3	3	1	0	1370	1	4	0	216	8	0	0	14
fixed	7	5	9	1367565	3	2	2	1	0	438	1	4	0	208	9	0	0	16
fixed	7	5	10	1368319	1	4	4	1	0	774	1	4	0	224	10	0	0	17
fixed	7	5	11	1369618	5	2	2	1	0	815	1	4	0	208	11	0	0	19
fixed	7	5	12	1371413	4	3	3	1	0	314	1	4	0	216	12	0	0	20
fixed	7	6	1	1372567	4	1	1	1	0	378	1	4	0	200	1	0	0	2
fixed	7	6	2	1373330	1	2	2	1	0	834	1	4	0	208	2	0	0	3
fixed	7	6	3	1375125	6	4	4	1	0	1205	1	4	0	224	3	0	0	5
fixed	7	6	4	1376705	2	1	1	1	0	867	1	4	0	200	4	0	0	6
fixed	7	6	5	1378274	5	3	3	1	0	848	1	4	0	216	5	0	0	8
fixed	7	6	6	1379463	6	4	4	1	0	846	1	4	0	224	6	0	0	9
fixed	7	6	7	1381199	3	1	1	1	0	1044	1	4	0	200	7	0	0	10
fixed	7	6	8	1382865	2	3	3	1	0	1094	1	4	0	216	8	0	0	12
fixed	7	6	9	1384527	3	2	2	1	0	511	1	4	0	208	9	0	0	13
fixed	7	6	10	1385473	1	4	4	1	0	615	1	4	0	224	10	0	0	14
fixed	7	6	11	1386673	5	2	2	1	0	636	1	4	0	208	11	0	0	15
fixed	7	6	12	1387889	4	3	3	1	0	345	1	4	0	216	12	0	0	17
fixed	7	7	1	1388940	4	1	1	1	0	468	1	4	0	200	1	0	0	1
fixed	7	7	2	1390065	1	2	2	1	0	757	1	4	0	208	2	0	0	3
fixed	7	7	3	1391528	6	4	4	1	0	1934	1	4	0	224	3	0	0	4
fixed	7	7	4	1394250	2	1	1	1	0	532	1	4	0	200	4	0	0	5
fixed	7	7	5	1395280	5	3	3	1	0	984	1	4	0	216	5	0	0	6
fixed	7	7	6	1396970	6	4	4	1	0	784	1	4	0	224	6	0	0	8
fixed	7	7	7	1398213	3	1	1	1	0	859	1	4	0	200	7	0	0	9
fixed	7	7	8	1399932	2	3	3	1	0	946	1	4	0	216	8	0	0	10
fixed	7	7	9	1401452	3	2	2	1	0	418	1	4	0	208	9	0	0	11
fixed	7	7	10	1402242	1	4	4	1	0	825	1	4	0	224	10	0	0	12
fixed	7	7	11	1403744	5	2	2	1	0	617	1	4	0	208	11	0	0	13
fixed	7	7	12	1404760	4	3	3	1	0	422	1	4	0	216	12	0	0	14
fixed	7	8	1	1405865	4	1	1	1	0	335	1	4	0	200	1	0	0	1
fixed	7	8	2	1407024	1	2	2	1	0	942	1	4	0	208	2	0	0	2
fixed	7	8	3	1408677	6	4	4	1	0	696	1	4	0	224	3	0	0	3
fixed	7	8	4	1410030	2	1	1	1	0	983	1	4	0	200	4	0	0	5
fixed	7	8	5	1411648	5	3	3	1	0	1194	1	4	0	216	5	0	0	6
fixed	7	8	6	1413243	6	4	4	1	0	823	1	4	0	224	6	0	0	7
fixed	7	8	7	1415103	3	1	1	1	0	736	1	4	0	200	7	0	0	8
fixed	7	8	8	1416203	2	3	3	1	0	978	1	4	0	216	8	0	0	9
fixed	7	8	9	1417913	3	2	2	1	0	353	1	4	0	208	9	0	0	10
fixed	7	8	10	1418827	1	4	4	1	0	667	1	4	0	224	10	0	0	11
fixed	7	8	11	1419997	5	2	2	1	0	1145	1	4	0	208	11	0	0	12
fixed	7	8	12	1421797	4	3	3	1	0	349	1	4	0	216	12	0	0	13
fixed	7	9	1	1422823	4	1	1	1	0	377	1	4	0	200	1	0	0	1
fixed	7	9	2	1423724	1	2	2	1	0	1379	1	4	0	208	2	0	0	2
fixed	7	9	3	1425504	6	4	4	1	0	712	1	4	0	224	3	0	0	3
fixed	7	9	4	1426629	2	1	1	1	0	1064	1	4	0	200	4	0	0	4
fixed	7	9	5	1428349	5	3	3	1	0	535	1	4	0	216	5	0	0	5
fixed	7	9	6	1429913	6	4	4	1	0	573	1	4	0	224	6	0	0	6
fixed	7	9	7	1430887	3	1	1	1	0	580	1	4	0	200	7	0	0	7
fixed	7	9	8	1432148	2	3	3	1	0	878	1	4	0	216	8	0	0	8
fixed	7	9	9	1433962	3	2	2	1	0	314	1	4	0	208	9	0	0	9
fixed	7	9	10	1435101	1	4	4	1	0	409	1	4	0	224	10	0	0	9
fixed	7	9	11	1436171	5	2	2	1	0	868	1	4	0	208	11	0	0	10
fixed	7	9	12	1437534	4	3	3	1	0	394	1	4	0	216	12	0	0	11
fixed	7	10	1	1438829	4	1	1	1	0	379	1	4	0	200	1	0	0	1
fixed	7	10	2	1439945	1	2	2	1	0	404	1	4	0	208	2	0	0	2
fixed	7	10	3	1440948	6	4	4	1	0	762	1	4	0	224	3	0	0	3
fixed	7	10	4	1442580	2	1	1	1	0	1228	1	4	0	200	4	0	0	4
fixed	7	10	5	1444609	5	3	3	1	0	454	1	4	0	216	5	0	0	4
fixed	7	10	6	1445578	6	4	4	1	0	861	1	4	0	224	6	0	0	5
fixed	7	10	7	1447479	3	1	1	1	0	661	1	4	0	200	7	0	0	6
fixed	7	10	8	1448669	2	3	3	1	0	858	1	4	0	216	8	0	0	7
fixed	7	10	9	1449977	3	2	2	1	0	443	1	4	0	208	9	0	0	8
fixed	7	10	10	1451458	1	4	4	1	0	389	1	4	0	224	10	0	0	8
fixed	7	10	11	1452688	5	2	2	1	0	656	1	4	0	208	11	0	0	9
fixed	7	10	12	1453838	4	3	3	1	0	311	1	4	0	216	12	0	0	10
