type	block	sequ.	trial	time	Pos.	Color	Button	NumRsp	Resp_1	RT_1	R_Code	Resp_2	RT_2	Trigg.	n_hit	n_inc	n_miss	score_%

random	1	1	1	6327	6	1	1	1	0	1279	1	4	0	8	1	0	0	100
random	1	1	2	7984	4	4	4	1	0	1081	1	4	0	32	2	0	0	100
random	1	1	3	9758	2	2	2	1	0	830	1	4	0	16	3	0	0	100
random	1	1	4	10891	3	3	3	1	0	590	1	4	0	24	4	0	0	100
random	1	1	5	11804	5	2	2	2	0	1672	2	4	0	16	5	0	0	100
random	1	1	6	14189	1	4	4	1	0	866	1	4	0	32	6	0	0	100
random	1	1	7	15643	6	1	1	1	0	1277	1	4	0	8	7	0	0	100
random	1	1	8	17322	2	3	3	1	0	1861	1	4	0	24	8	0	0	100
random	1	1	9	19999	4	2	2	1	0	892	1	4	0	16	9	0	0	100
random	1	1	10	21459	1	1	1	1	0	1079	1	4	0	8	10	0	0	100
random	1	1	11	23549	5	4	4	1	0	758	1	4	0	32	11	0	0	100
random	1	1	12	24942	3	3	3	1	0	1171	1	4	0	24	12	0	0	100
random	1	1	13	26829	5	2	2	1	0	723	1	4	0	16	13	0	0	100
random	1	1	14	27892	1	4	4	1	0	910	1	4	0	32	14	0	0	100
random	1	1	15	29126	3	1	1	1	0	834	1	4	0	8	15	0	0	100
random	1	1	16	30563	4	3	3	1	0	1109	1	4	0	24	16	0	0	100
random	1	1	17	32632	6	4	4	1	0	757	1	4	0	32	17	0	0	100
random	1	1	18	33768	2	1	1	1	0	973	1	4	0	8	18	0	0	100
random	1	1	19	35214	5	3	3	1	0	1656	1	4	0	24	19	0	0	100
random	1	1	20	37846	2	2	2	1	0	768	1	4	0	16	20	0	0	100
random	1	1	21	39146	3	3	3	1	0	1105	1	4	0	24	21	0	0	100
random	1	1	22	40979	6	1	1	1	0	699	1	4	0	8	22	0	0	100
random	1	1	23	42219	4	2	2	1	0	911	1	4	0	16	23	0	0	100
random	1	1	24	43467	1	4	4	1	0	835	1	4	0	32	24	0	0	100
random	1	1	25	44890	4	3	3	1	0	1190	1	4	0	24	25	0	0	100
random	1	1	26	47029	2	1	1	1	0	1043	1	4	0	8	26	0	0	100
random	1	1	27	48388	5	2	2	1	0	1018	1	4	0	16	27	0	0	100
random	1	1	28	49933	6	4	4	1	0	513	1	4	0	32	28	0	0	100
random	1	1	29	51141	1	3	3	1	0	757	1	4	0	24	29	0	0	100
random	1	1	30	52432	5	2	2	1	0	927	1	4	0	16	30	0	0	100
random	1	1	31	53765	2	1	1	1	0	598	1	4	0	8	31	0	0	100
random	1	1	32	55252	3	3	3	2	0	1655	2	4	0	24	32	0	0	100
random	1	1	33	57259	6	4	4	1	0	810	1	4	0	32	33	0	0	100
random	1	1	34	58896	4	2	2	1	0	957	1	4	0	16	34	0	0	100
random	1	1	35	60626	3	4	4	1	0	828	1	4	0	32	35	0	0	100
random	1	1	36	61993	1	1	1	1	0	1074	1	4	0	8	36	0	0	100
random	1	1	37	64255	3	4	4	1	0	906	1	4	0	32	37	0	0	100
random	1	1	38	65777	5	3	3	1	0	1345	1	4	0	24	38	0	0	100
random	1	1	39	67435	6	1	1	1	0	963	1	4	0	8	39	0	0	100
random	1	1	40	69392	1	2	2	1	0	624	1	4	0	16	40	0	0	100
random	1	1	41	70868	2	3	3	1	0	962	1	4	0	24	41	0	0	100
random	1	1	42	72853	4	4	4	1	0	558	1	4	0	32	42	0	0	100
random	1	1	43	74136	1	2	2	1	0	1567	1	4	0	16	43	0	0	100
random	1	1	44	76630	6	3	3	1	0	1502	1	4	0	24	44	0	0	100
random	1	1	45	78457	3	1	1	1	0	880	1	4	0	8	45	0	0	100
random	1	1	46	80295	4	4	4	1	0	954	1	4	0	32	46	0	0	100
random	1	1	47	81690	2	2	2	1	0	919	1	4	0	16	47	0	0	100
random	1	1	48	83197	5	1	1	1	0	752	1	4	0	8	48	0	0	100
random	1	1	49	84538	2	3	3	1	0	990	1	4	0	24	49	0	0	100
random	1	1	50	85961	3	1	1	1	0	1018	1	4	0	8	50	0	0	100
random	1	1	51	87272	1	4	4	1	0	755	1	4	0	32	51	0	0	100
random	1	1	52	89037	5	3	3	1	0	1696	1	4	0	24	52	0	0	100
random	1	1	53	91419	3	2	2	1	0	795	1	4	0	16	53	0	0	100
random	1	1	54	93207	6	4	4	1	0	583	1	4	0	32	54	0	0	100
random	1	1	55	94524	4	2	2	1	0	1032	1	4	0	16	55	0	0	100
random	1	1	56	95926	1	1	1	1	0	652	1	4	0	8	56	0	0	100
random	1	1	57	97468	5	4	4	1	0	587	1	4	0	32	57	0	0	100
random	1	1	58	98449	2	1	1	1	0	858	1	4	0	8	58	0	0	100
random	1	1	59	99893	6	2	2	1	0	804	1	4	0	16	59	0	0	100
random	1	1	60	101097	4	3	3	1	0	849	1	4	0	24	60	0	0	100
random	1	1	61	103000	1	2	2	1	0	824	1	4	0	16	61	0	0	100
random	1	1	62	104384	6	4	4	1	0	558	1	4	0	32	62	0	0	100
random	1	1	63	105404	4	1	1	1	0	475	1	4	0	8	63	0	0	100
random	1	1	64	106380	2	2	2	2	0	1529	2	4	0	16	64	0	0	100
random	1	1	65	108905	4	3	3	1	0	863	1	4	0	24	65	0	0	100
random	1	1	66	110154	3	1	1	1	0	842	1	4	0	8	66	0	0	100
random	1	1	67	111712	1	3	3	1	0	1048	1	4	0	24	67	0	0	100
random	1	1	68	113276	5	4	4	1	0	869	1	4	0	32	68	0	0	100
random	1	1	69	115135	2	2	2	1	0	927	1	4	0	16	69	0	0	100
random	1	1	70	116810	3	1	1	1	0	784	1	4	0	8	70	0	0	100
random	1	1	71	118311	5	4	4	1	0	432	1	4	0	32	71	0	0	100
random	1	1	72	119596	6	3	3	1	0	1034	1	4	0	24	72	0	0	100
random	1	1	73	121646	2	1	1	1	0	739	1	4	0	8	73	0	0	100
random	1	1	74	123258	5	3	3	1	0	1199	1	4	0	24	74	0	0	100
random	1	1	75	125239	1	4	4	1	0	619	1	4	0	32	75	0	0	100
random	1	1	76	126393	6	2	2	1	0	802	1	4	0	16	76	0	0	100
random	1	1	77	128064	2	1	1	1	0	819	1	4	0	8	77	0	0	100
random	1	1	78	129483	4	4	4	1	0	1143	1	4	0	32	78	0	0	100
random	1	1	79	131226	3	2	2	1	0	949	1	4	0	16	79	0	0	100
random	1	1	80	132881	4	3	3	1	0	591	1	4	0	24	80	0	0	100
random	1	1	81	134151	1	4	4	1	0	697	1	4	0	32	81	0	0	100
random	1	1	82	135345	5	1	1	1	0	430	1	4	0	8	82	0	0	100
random	1	1	83	136218	3	2	2	1	0	818	1	4	0	16	83	0	0	100
random	1	1	84	137785	6	3	3	1	0	527	1	4	0	24	84	0	0	100
random	1	1	85	139556	3	2	2	1	0	924	1	4	0	16	85	0	0	100
random	1	1	86	141370	1	3	3	1	0	1088	1	4	0	24	86	0	0	100
random	1	1	87	142795	4	4	4	1	0	915	1	4	0	32	87	0	0	100
random	1	1	88	144656	2	1	1	1	0	516	1	4	0	8	88	0	0	100
random	1	1	89	146006	6	4	4	1	0	731	1	4	0	32	89	0	0	100
random	1	1	90	147297	3	3	3	1	0	756	1	4	0	24	90	0	0	100
random	1	1	91	148889	5	4	4	1	0	745	1	4	0	32	91	0	0	100
random	1	1	92	150554	1	2	2	1	0	690	1	4	0	16	92	0	0	100
random	1	1	93	151696	5	1	1	1	0	794	1	4	0	8	93	0	0	100
random	1	1	94	153389	4	3	3	1	0	1322	1	4	0	24	94	0	0	100
random	1	1	95	155484	6	1	1	1	0	946	1	4	0	8	95	0	0	100
random	1	1	96	156844	2	2	2	1	0	1528	1	4	0	16	96	0	0	100
random	1	1	97	159522	4	3	3	1	0	1126	1	4	0	24	97	0	0	100
random	1	1	98	160960	3	2	2	1	0	850	1	4	0	16	98	0	0	100
random	1	1	99	162324	6	3	3	1	0	1168	1	4	0	24	99	0	0	100
random	1	1	100	163854	1	4	4	1	0	543	1	4	0	32	100	0	0	100
random	1	1	101	164874	4	1	1	1	0	420	1	4	0	8	101	0	0	100
random	1	1	102	165892	5	2	2	1	0	953	1	4	0	16	102	0	0	100
random	1	1	103	167646	2	4	4	1	0	726	1	4	0	32	103	0	0	100
random	1	1	104	169167	3	1	1	1	0	862	1	4	0	8	104	0	0	100
random	1	1	105	171010	1	3	3	1	0	1000	1	4	0	24	105	0	0	100
random	1	1	106	172577	2	2	2	1	0	582	1	4	0	16	106	0	0	100
random	1	1	107	173462	5	4	4	1	0	632	1	4	0	32	107	0	0	100
random	1	1	108	174869	6	1	1	1	0	445	1	4	0	8	108	0	0	100
random	1	1	109	176263	5	4	4	1	0	785	1	4	0	32	109	0	0	100
random	1	1	110	177536	6	3	3	2	0	1772	2	4	0	24	110	0	0	100
random	1	1	111	179638	2	2	2	1	0	962	1	4	0	16	111	0	0	100
random	1	1	112	180911	3	1	1	1	0	797	1	4	0	8	112	0	0	100
random	1	1	113	182355	1	2	2	1	0	1160	1	4	0	16	113	0	0	100
random	1	1	114	184380	2	3	3	1	0	865	1	4	0	24	114	0	0	100
random	1	1	115	185555	3	1	1	1	0	872	1	4	0	8	115	0	0	100
random	1	1	116	186770	4	4	4	1	0	532	1	4	0	32	116	0	0	100
random	1	1	117	188266	6	1	1	1	0	925	1	4	0	8	117	0	0	100
random	1	1	118	189566	5	3	3	1	0	1254	1	4	0	24	118	0	0	100
random	1	1	119	191210	1	4	4	1	0	769	1	4	0	32	119	0	0	100
random	1	1	120	192521	4	2	2	1	0	489	1	4	0	16	120	0	0	100
fixed	2	1	1	193887	4	1	1	1	0	743	1	4	0	40	1	0	0	100
fixed	2	1	2	194927	1	2	2	1	0	1099	1	4	0	48	2	0	0	100
fixed	2	1	3	196657	6	4	4	1	0	554	1	4	0	64	3	0	0	100
fixed	2	1	4	198006	2	1	1	1	0	769	1	4	0	40	4	0	0	100
fixed	2	1	5	199756	5	3	3	1	0	926	1	4	0	56	5	0	0	100
fixed	2	1	6	201236	6	4	4	1	0	640	1	4	0	64	6	0	0	100
fixed	2	1	7	202419	3	1	1	1	0	830	1	4	0	40	7	0	0	100
fixed	2	1	8	203665	2	3	3	1	0	913	1	4	0	56	8	0	0	100
fixed	2	1	9	205554	3	2	2	1	0	521	1	4	0	48	9	0	0	100
fixed	2	1	10	207109	1	4	4	1	0	447	1	4	0	64	10	0	0	100
fixed	2	1	11	207895	5	2	2	1	0	974	1	4	0	48	11	0	0	100
fixed	2	1	12	209343	4	3	3	1	0	1016	1	4	0	56	12	0	0	100
fixed	2	2	1	211332	4	1	1	1	0	836	1	4	0	40	13	0	0	100
fixed	2	2	2	212913	1	2	2	1	0	801	1	4	0	48	14	0	0	100
fixed	2	2	3	214583	6	4	4	1	0	715	1	4	0	64	15	0	0	100
fixed	2	2	4	216278	2	1	1	2	0	778	2	4	0	40	16	0	0	100
fixed	2	2	5	217677	5	3	3	1	0	1176	1	4	0	56	17	0	0	100
fixed	2	2	6	219433	6	4	4	1	0	589	1	4	0	64	18	0	0	100
fixed	2	2	7	220749	3	1	1	1	0	790	1	4	0	40	19	0	0	100
fixed	2	2	8	221984	2	3	3	1	0	945	1	4	0	56	20	0	0	100
fixed	2	2	9	223266	3	2	2	1	0	843	1	4	0	48	21	0	0	100
fixed	2	2	10	224454	1	4	4	1	0	488	1	4	0	64	22	0	0	100
fixed	2	2	11	225528	5	2	2	1	0	891	1	4	0	48	23	0	0	100
fixed	2	2	12	227095	4	3	3	1	0	1017	1	4	0	56	24	0	0	100
fixed	2	3	1	229161	4	1	1	1	0	857	1	4	0	40	25	0	0	100
fixed	2	3	2	230841	1	2	2	1	0	922	1	4	0	48	26	0	0	100
fixed	2	3	3	232529	6	4	4	1	0	659	1	4	0	64	27	0	0	100
fixed	2	3	4	234151	2	1	1	1	0	1014	1	4	0	40	28	0	0	100
fixed	2	3	5	236108	5	3	3	2	0	1642	2	4	0	56	29	0	0	100
fixed	2	3	6	238641	6	4	4	1	0	832	1	4	0	64	30	0	0	100
fixed	2	3	7	240296	3	1	1	1	0	946	1	4	0	40	31	0	0	100
fixed	2	3	8	241875	2	3	3	1	0	830	1	4	0	56	32	0	0	100
fixed	2	3	9	243666	3	2	2	1	0	683	1	4	0	48	33	0	0	100
fixed	2	3	10	244997	1	4	4	1	0	386	1	4	0	64	34	0	0	100
fixed	2	3	11	246029	5	2	2	1	0	863	1	4	0	48	35	0	0	100
fixed	2	3	12	247777	4	3	3	1	0	956	1	4	0	56	36	0	0	100
fixed	2	4	1	249844	4	1	1	1	0	709	1	4	0	40	37	0	0	100
fixed	2	4	2	251116	1	2	2	1	0	823	1	4	0	48	38	0	0	100
fixed	2	4	3	252513	6	4	4	1	0	556	1	4	0	64	39	0	0	100
fixed	2	4	4	254060	2	1	1	1	0	698	1	4	0	40	40	0	0	100
fixed	2	4	5	255296	5	3	3	1	0	814	1	4	0	56	41	0	0	100
fixed	2	4	6	256570	6	4	4	1	0	592	1	4	0	64	42	0	0	100
fixed	2	4	7	258113	3	1	1	1	0	1006	1	4	0	40	43	0	0	100
fixed	2	4	8	259527	2	3	3	1	0	1275	1	4	0	56	44	0	0	100
fixed	2	4	9	261714	3	2	2	1	0	550	1	4	0	48	45	0	0	100
fixed	2	4	10	263112	1	4	4	1	0	379	1	4	0	64	46	0	0	100
fixed	2	4	11	264121	5	2	2	1	0	984	1	4	0	48	47	0	0	100
fixed	2	4	12	265489	4	3	3	1	0	806	1	4	0	56	48	0	0	100
fixed	2	5	1	267437	4	1	1	1	0	548	1	4	0	40	49	0	0	100
fixed	2	5	2	268399	1	2	2	1	0	1035	1	4	0	48	50	0	0	100
fixed	2	5	3	270038	6	4	4	1	0	390	1	4	0	64	51	0	0	100
fixed	2	5	4	271128	2	1	1	1	0	695	1	4	0	40	52	0	0	100
fixed	2	5	5	272549	5	3	3	1	0	875	1	4	0	56	53	0	0	100
fixed	2	5	6	273837	6	4	4	1	0	669	1	4	0	64	54	0	0	100
fixed	2	5	7	275103	3	1	1	1	0	959	1	4	0	40	55	0	0	100
fixed	2	5	8	276824	2	3	3	1	0	886	1	4	0	56	56	0	0	100
fixed	2	5	9	278655	3	2	2	1	0	649	1	4	0	48	57	0	0	100
fixed	2	5	10	280234	1	4	4	1	0	374	1	4	0	64	58	0	0	100
fixed	2	5	11	281311	5	2	2	1	0	1096	1	4	0	48	59	0	0	100
fixed	2	5	12	282780	4	3	3	1	0	698	1	4	0	56	60	0	0	100
fixed	2	6	1	284278	4	1	1	1	0	818	1	4	0	40	61	0	0	100
fixed	2	6	2	286014	1	2	2	1	0	1321	1	4	0	48	62	0	0	100
fixed	2	6	3	287982	6	4	4	1	0	678	1	4	0	64	63	0	0	100
fixed	2	6	4	289176	2	1	1	1	0	707	1	4	0	40	64	0	0	100
fixed	2	6	5	290425	5	3	3	1	0	774	1	4	0	56	65	0	0	100
fixed	2	6	6	292050	6	4	4	1	0	1025	1	4	0	64	66	0	0	100
fixed	2	6	7	293489	3	1	1	1	0	836	1	4	0	40	67	0	0	100
fixed	2	6	8	295003	2	3	3	1	0	740	1	4	0	56	68	0	0	100
fixed	2	6	9	296495	3	2	2	1	0	533	1	4	0	48	69	0	0	100
fixed	2	6	10	297633	1	4	4	1	0	421	1	4	0	64	70	0	0	100
fixed	2	6	11	298730	5	2	2	1	0	862	1	4	0	48	71	0	0	100
fixed	2	6	12	300279	4	3	3	1	0	621	1	4	0	56	72	0	0	100
fixed	2	7	1	301888	4	1	1	1	0	504	1	4	0	40	73	0	0	100
fixed	2	7	2	303013	1	2	2	1	0	785	1	4	0	48	74	0	0	100
fixed	2	7	3	304585	6	4	4	1	0	622	1	4	0	64	75	0	0	100
fixed	2	7	4	306217	2	1	1	1	0	793	1	4	0	40	76	0	0	100
fixed	2	7	5	307954	5	3	3	1	0	887	1	4	0	56	77	0	0	100
fixed	2	7	6	309573	6	4	4	1	0	555	1	4	0	64	78	0	0	100
fixed	2	7	7	310562	3	1	1	1	0	817	1	4	0	40	79	0	0	100
fixed	2	7	8	311910	2	3	3	1	0	920	1	4	0	56	80	0	0	100
fixed	2	7	9	313723	3	2	2	1	0	811	1	4	0	48	81	0	0	100
fixed	2	7	10	315112	1	4	4	1	0	785	1	4	0	64	82	0	0	100
fixed	2	7	11	316207	5	2	2	1	0	1074	1	4	0	48	83	0	0	100
fixed	2	7	12	317893	4	3	3	1	0	866	1	4	0	56	84	0	0	100
fixed	2	8	1	319932	4	1	1	1	0	748	1	4	0	40	85	0	0	100
fixed	2	8	2	321586	1	2	2	1	0	742	1	4	0	48	86	0	0	100
fixed	2	8	3	322688	6	4	4	1	0	575	1	4	0	64	87	0	0	100
fixed	2	8	4	323836	2	1	1	1	0	751	1	4	0	40	88	0	0	100
fixed	2	8	5	325488	5	3	3	1	0	849	1	4	0	56	89	0	0	100
fixed	2	8	6	327164	6	4	4	1	0	594	1	4	0	64	90	0	0	100
fixed	2	8	7	328709	3	1	1	1	0	673	1	4	0	40	91	0	0	100
fixed	2	8	8	330005	2	3	3	1	0	833	1	4	0	56	92	0	0	100
fixed	2	8	9	331218	3	2	2	1	0	766	1	4	0	48	93	0	0	100
fixed	2	8	10	332722	1	4	4	1	0	911	1	4	0	64	94	0	0	100
fixed	2	8	11	334581	5	2	0	2	2	0	3	4	0	48	94	0	1	99
fixed	2	8	12	337616	4	3	3	1	0	1191	1	4	0	56	95	0	1	99
fixed	2	9	1	339664	4	1	1	1	0	776	1	4	0	40	96	0	1	99
fixed	2	9	2	341139	1	2	2	1	0	1170	1	4	0	48	97	0	1	99
fixed	2	9	3	343176	6	4	4	1	0	748	1	4	0	64	98	0	1	99
fixed	2	9	4	344853	2	1	1	1	0	973	1	4	0	40	99	0	1	99
fixed	2	9	5	346489	5	3	3	1	0	768	1	4	0	56	100	0	1	99
fixed	2	9	6	347726	6	4	4	1	0	683	1	4	0	64	101	0	1	99
fixed	2	9	7	349206	3	1	1	1	0	716	1	4	0	40	102	0	1	99
fixed	2	9	8	350619	2	3	3	1	0	1017	1	4	0	56	103	0	1	99
fixed	2	9	9	352567	3	2	2	1	0	686	1	4	0	48	104	0	1	99
fixed	2	9	10	354006	1	4	4	1	0	537	1	4	0	64	105	0	1	99
fixed	2	9	11	355420	5	2	2	1	0	1061	1	4	0	48	106	0	1	99
fixed	2	9	12	357036	4	3	3	1	0	609	1	4	0	56	107	0	1	99
fixed	2	10	1	358594	4	1	1	1	0	855	1	4	0	40	108	0	1	99
fixed	2	10	2	359972	1	2	2	1	0	989	1	4	0	48	109	0	1	99
fixed	2	10	3	361996	6	4	4	1	0	695	1	4	0	64	110	0	1	99
fixed	2	10	4	362979	2	1	1	1	0	2037	1	4	0	40	111	0	1	99
fixed	2	10	5	365646	5	3	3	1	0	1060	1	4	0	56	112	0	1	99
fixed	2	10	6	367132	6	4	4	1	0	629	1	4	0	64	113	0	1	99
fixed	2	10	7	368524	3	1	1	1	0	674	1	4	0	40	114	0	1	99
fixed	2	10	8	369930	2	3	3	1	0	1071	1	4	0	56	115	0	1	99
fixed	2	10	9	371900	3	2	2	1	0	819	1	4	0	48	116	0	1	99
fixed	2	10	10	373716	1	4	4	1	0	782	1	4	0	64	117	0	1	99
fixed	2	10	11	375285	5	2	2	1	0	868	1	4	0	48	118	0	1	99
fixed	2	10	12	376639	4	3	3	1	0	666	1	4	0	56	119	0	1	99
fixed	3	1	1	378624	4	1	1	1	0	574	1	4	0	72	1	0	0	100
fixed	3	1	2	379816	1	2	2	1	0	772	1	4	0	80	2	0	0	100
fixed	3	1	3	381562	6	4	4	1	0	450	1	4	0	96	3	0	0	100
fixed	3	1	4	382487	2	1	1	1	0	755	1	4	0	72	4	0	0	100
fixed	3	1	5	384087	5	3	3	1	0	1023	1	4	0	88	5	0	0	100
fixed	3	1	6	385781	6	4	4	1	0	671	1	4	0	96	6	0	0	100
fixed	3	1	7	387366	3	1	1	1	0	1140	1	4	0	72	7	0	0	100
fixed	3	1	8	389342	2	3	3	1	0	1136	1	4	0	88	8	0	0	100
fixed	3	1	9	391042	3	2	2	1	0	464	1	4	0	80	9	0	0	100
fixed	3	1	10	392508	1	4	4	1	0	442	1	4	0	96	10	0	0	100
fixed	3	1	11	393794	5	2	2	1	0	1316	1	4	0	80	11	0	0	100
fixed	3	1	12	395816	4	3	3	1	0	934	1	4	0	88	12	0	0	100
fixed	3	2	1	398024	4	1	1	1	0	720	1	4	0	72	13	0	0	100
fixed	3	2	2	399780	1	2	2	1	0	1494	1	4	0	80	14	0	0	100
fixed	3	2	3	402083	6	4	4	1	0	452	1	4	0	96	15	0	0	100
fixed	3	2	4	403044	2	1	1	1	0	724	1	4	0	72	16	0	0	100
fixed	3	2	5	404228	5	3	3	1	0	938	1	4	0	88	17	0	0	100
fixed	3	2	6	406130	6	4	4	1	0	1361	1	4	0	96	18	0	0	100
fixed	3	2	7	408103	3	1	1	1	0	950	1	4	0	72	19	0	0	100
fixed	3	2	8	409954	2	3	3	1	0	1191	1	4	0	88	20	0	0	100
fixed	3	2	9	411773	3	2	2	1	0	650	1	4	0	80	21	0	0	100
fixed	3	2	10	413303	1	4	4	2	0	506	2	4	0	96	22	0	0	100
fixed	3	2	11	414526	5	2	2	1	0	942	1	4	0	80	23	0	0	100
fixed	3	2	12	416464	4	3	3	1	0	860	1	4	0	88	24	0	0	100
fixed	3	3	1	418424	4	1	1	1	0	832	1	4	0	72	25	0	0	100
fixed	3	3	2	419983	1	2	2	1	0	1095	1	4	0	80	26	0	0	100
fixed	3	3	3	421430	6	4	4	1	0	657	1	4	0	96	27	0	0	100
fixed	3	3	4	422844	2	1	1	1	0	1774	1	4	0	72	28	0	0	100
fixed	3	3	5	425389	5	3	3	1	0	897	1	4	0	88	29	0	0	100
fixed	3	3	6	427324	6	4	4	1	0	1072	1	4	0	96	30	0	0	100
fixed	3	3	7	429032	3	1	1	1	0	703	1	4	0	72	31	0	0	100
fixed	3	3	8	430075	2	3	3	1	0	1011	1	4	0	88	32	0	0	100
fixed	3	3	9	431865	3	2	2	1	0	815	1	4	0	80	33	0	0	100
fixed	3	3	10	433354	1	4	4	1	0	616	1	4	0	96	34	0	0	100
fixed	3	3	11	434413	5	2	2	1	0	1107	1	4	0	80	35	0	0	100
fixed	3	3	12	436376	4	3	3	1	0	768	1	4	0	88	36	0	0	100
fixed	3	4	1	438256	4	1	1	1	0	784	1	4	0	72	37	0	0	100
fixed	3	4	2	439961	1	2	2	1	0	808	1	4	0	80	38	0	0	100
fixed	3	4	3	441648	6	4	4	1	0	665	1	4	0	96	39	0	0	100
fixed	3	4	4	443109	2	1	1	1	0	771	1	4	0	72	40	0	0	100
fixed	3	4	5	444821	5	3	3	1	0	810	1	4	0	88	41	0	0	100
fixed	3	4	6	446032	6	4	4	1	0	743	1	4	0	96	42	0	0	100
fixed	3	4	7	447465	3	1	1	1	0	826	1	4	0	72	43	0	0	100
fixed	3	4	8	449139	2	3	3	1	0	1300	1	4	0	88	44	0	0	100
fixed	3	4	9	451001	3	2	2	1	0	852	1	4	0	80	45	0	0	100
fixed	3	4	10	452332	1	4	4	1	0	581	1	4	0	96	46	0	0	100
fixed	3	4	11	453492	5	2	2	1	0	1003	1	4	0	80	47	0	0	100
fixed	3	4	12	455073	4	3	3	1	0	1320	1	4	0	88	48	0	0	100
fixed	3	5	1	457537	4	1	1	1	0	848	1	4	0	72	49	0	0	100
fixed	3	5	2	459032	1	2	2	1	0	1329	1	4	0	80	50	0	0	100
fixed	3	5	3	460999	6	4	4	1	0	685	1	4	0	96	51	0	0	100
fixed	3	5	4	462515	2	1	1	1	0	1101	1	4	0	72	52	0	0	100
fixed	3	5	5	464562	5	3	3	1	0	815	1	4	0	88	53	0	0	100
fixed	3	5	6	465910	6	4	4	1	0	845	1	4	0	96	54	0	0	100
fixed	3	5	7	467122	3	1	1	1	0	994	1	4	0	72	55	0	0	100
fixed	3	5	8	468546	2	3	3	1	0	1141	1	4	0	88	56	0	0	100
fixed	3	5	9	470114	3	2	2	1	0	796	1	4	0	80	57	0	0	100
fixed	3	5	10	471226	1	4	4	1	0	796	1	4	0	96	58	0	0	100
fixed	3	5	11	472714	5	2	2	1	0	789	1	4	0	80	59	0	0	100
fixed	3	5	12	473873	4	3	3	1	0	684	1	4	0	88	60	0	0	100
fixed	3	6	1	475230	4	1	1	1	0	802	1	4	0	72	61	0	0	100
fixed	3	6	2	476486	1	2	2	1	0	1237	1	4	0	80	62	0	0	100
fixed	3	6	3	478588	6	4	4	1	0	924	1	4	0	96	63	0	0	100
fixed	3	6	4	480249	2	1	1	1	0	750	1	4	0	72	64	0	0	100
fixed	3	6	5	481637	5	3	3	1	0	739	1	4	0	88	65	0	0	100
fixed	3	6	6	482849	6	4	4	1	0	624	1	4	0	96	66	0	0	100
fixed	3	6	7	484393	3	1	1	1	0	895	1	4	0	72	67	0	0	100
fixed	3	6	8	485630	2	3	3	1	0	930	1	4	0	88	68	0	0	100
fixed	3	6	9	487442	3	2	2	1	0	1053	1	4	0	80	69	0	0	100
fixed	3	6	10	489475	1	4	4	1	0	687	1	4	0	96	70	0	0	100
fixed	3	6	11	490739	5	2	2	1	0	866	1	4	0	80	71	0	0	100
fixed	3	6	12	491998	4	3	3	1	0	701	1	4	0	88	72	0	0	100
fixed	3	7	1	493308	4	1	1	1	0	725	1	4	0	72	73	0	0	100
fixed	3	7	2	494336	1	2	2	1	0	833	1	4	0	80	74	0	0	100
fixed	3	7	3	495993	6	4	4	1	0	651	1	4	0	96	75	0	0	100
fixed	3	7	4	497520	2	1	1	1	0	738	1	4	0	72	76	0	0	100
fixed	3	7	5	499216	5	3	3	1	0	1243	1	4	0	88	77	0	0	100
fixed	3	7	6	501341	6	4	4	1	0	737	1	4	0	96	78	0	0	100
fixed	3	7	7	502539	3	1	1	1	0	1054	1	4	0	72	79	0	0	100
fixed	3	7	8	504559	2	3	3	1	0	904	1	4	0	88	80	0	0	100
fixed	3	7	9	505812	3	2	2	1	0	1035	1	4	0	80	81	0	0	100
fixed	3	7	10	507350	1	4	4	1	0	698	1	4	0	96	82	0	0	100
fixed	3	7	11	508489	5	2	2	1	0	874	1	4	0	80	83	0	0	100
fixed	3	7	12	510247	4	3	3	1	0	815	1	4	0	88	84	0	0	100
fixed	3	8	1	511703	4	1	1	1	0	553	1	4	0	72	85	0	0	100
fixed	3	8	2	513116	1	2	2	1	0	830	1	4	0	80	86	0	0	100
fixed	3	8	3	514319	6	4	4	1	0	1411	1	4	0	96	87	0	0	100
fixed	3	8	4	516515	2	1	1	1	0	790	1	4	0	72	88	0	0	100
fixed	3	8	5	517606	5	3	3	1	0	1088	1	4	0	88	89	0	0	100
fixed	3	8	6	519391	6	4	4	1	0	732	1	4	0	96	90	0	0	100
fixed	3	8	7	520570	3	1	1	1	0	986	1	4	0	72	91	0	0	100
fixed	3	8	8	522562	2	3	3	1	0	1069	1	4	0	88	92	0	0	100
fixed	3	8	9	524246	3	2	2	1	0	1263	1	4	0	80	93	0	0	100
fixed	3	8	10	525932	1	4	4	1	0	615	1	4	0	96	94	0	0	100
fixed	3	8	11	527409	5	2	2	1	0	856	1	4	0	80	95	0	0	100
fixed	3	8	12	529140	4	3	3	2	0	2039	2	4	0	88	96	0	0	100
fixed	3	9	1	531836	4	1	1	1	0	1029	1	4	0	72	97	0	0	100
fixed	3	9	2	533597	1	2	2	1	0	1090	1	4	0	80	98	0	0	100
fixed	3	9	3	535323	6	4	4	1	0	746	1	4	0	96	99	0	0	100
fixed	3	9	4	536955	2	1	1	1	0	908	1	4	0	72	100	0	0	100
fixed	3	9	5	538180	5	3	3	1	0	905	1	4	0	88	101	0	0	100
fixed	3	9	6	539630	6	4	4	1	0	811	1	4	0	96	102	0	0	100
fixed	3	9	7	541012	3	1	1	1	0	816	1	4	0	72	103	0	0	100
fixed	3	9	8	542530	2	3	3	1	0	1000	1	4	0	88	104	0	0	100
fixed	3	9	9	544074	3	2	2	1	0	743	1	4	0	80	105	0	0	100
fixed	3	9	10	545461	1	4	4	1	0	468	1	4	0	96	106	0	0	100
fixed	3	9	11	546836	5	2	2	1	0	1026	1	4	0	80	107	0	0	100
fixed	3	9	12	548801	4	3	0	1	2	0	3	4	0	88	107	0	1	99
fixed	3	10	1	552002	4	1	1	1	0	919	1	4	0	72	108	0	1	99
fixed	3	10	2	553386	1	2	2	1	0	869	1	4	0	80	109	0	1	99
fixed	3	10	3	555170	6	4	4	1	0	785	1	4	0	96	110	0	1	99
fixed	3	10	4	556340	2	1	1	1	0	775	1	4	0	72	111	0	1	99
fixed	3	10	5	557703	5	3	3	1	0	885	1	4	0	88	112	0	1	99
fixed	3	10	6	559470	6	4	4	1	0	738	1	4	0	96	113	0	1	99
fixed	3	10	7	560522	3	1	1	1	0	686	1	4	0	72	114	0	1	99
fixed	3	10	8	562107	2	3	3	1	0	1115	1	4	0	88	115	0	1	99
fixed	3	10	9	564043	3	2	2	1	0	1025	1	4	0	80	116	0	1	99
fixed	3	10	10	565556	1	4	4	1	0	761	1	4	0	96	117	0	1	99
fixed	3	10	11	566835	5	2	2	1	0	1258	1	4	0	80	118	0	1	99
fixed	3	10	12	568483	4	3	3	1	0	693	1	4	0	88	119	0	1	99
fixed	4	1	1	706512	4	1	1	1	0	1686	1	4	0	104	1	0	0	100
fixed	4	1	2	709070	1	2	2	1	0	1162	1	4	0	112	2	0	0	100
fixed	4	1	3	710954	6	4	4	1	0	787	1	4	0	128	3	0	0	100
fixed	4	1	4	712485	2	1	1	1	0	713	1	4	0	104	4	0	0	100
fixed	4	1	5	713873	5	3	3	1	0	623	1	4	0	120	5	0	0	100
fixed	4	1	6	715153	6	4	4	1	0	656	1	4	0	128	6	0	0	100
fixed	4	1	7	716315	3	1	1	1	0	511	1	4	0	104	7	0	0	100
fixed	4	1	8	717835	2	3	3	1	0	815	1	4	0	120	8	0	0	100
fixed	4	1	9	719287	3	2	2	1	0	634	1	4	0	112	9	0	0	100
fixed	4	1	10	720601	1	4	4	1	0	658	1	4	0	128	10	0	0	100
fixed	4	1	11	722301	5	2	2	1	0	945	1	4	0	112	11	0	0	100
fixed	4	1	12	723803	4	3	3	1	0	794	1	4	0	120	12	0	0	100
fixed	4	2	1	725361	4	1	1	1	0	840	1	4	0	104	13	0	0	100
fixed	4	2	2	726807	1	2	2	1	0	827	1	4	0	112	14	0	0	100
fixed	4	2	3	727924	6	4	4	1	0	812	1	4	0	128	15	0	0	100
fixed	4	2	4	729073	2	1	1	1	0	1419	1	4	0	104	16	0	0	100
fixed	4	2	5	731428	5	3	3	1	0	1039	1	4	0	120	17	0	0	100
fixed	4	2	6	733342	6	4	4	1	0	654	1	4	0	128	18	0	0	100
fixed	4	2	7	734723	3	1	1	1	0	756	1	4	0	104	19	0	0	100
fixed	4	2	8	736043	2	3	3	1	0	876	1	4	0	120	20	0	0	100
fixed	4	2	9	737585	3	2	2	1	0	715	1	4	0	112	21	0	0	100
fixed	4	2	10	738856	1	4	4	1	0	685	1	4	0	128	22	0	0	100
fixed	4	2	11	739835	5	2	2	1	0	795	1	4	0	112	23	0	0	100
fixed	4	2	12	740923	4	3	3	1	0	629	1	4	0	120	24	0	0	100
fixed	4	3	1	742586	4	1	1	1	0	830	1	4	0	104	25	0	0	100
fixed	4	3	2	744379	1	2	2	1	0	787	1	4	0	112	26	0	0	100
fixed	4	3	3	745899	6	4	4	1	0	706	1	4	0	128	27	0	0	100
fixed	4	3	4	747479	2	1	1	1	0	647	1	4	0	104	28	0	0	100
fixed	4	3	5	749093	5	3	3	2	0	1635	2	4	0	120	29	0	0	100
fixed	4	3	6	751641	6	4	4	1	0	751	1	4	0	128	30	0	0	100
fixed	4	3	7	753350	3	1	1	1	0	791	1	4	0	104	31	0	0	100
fixed	4	3	8	754954	2	3	3	1	0	939	1	4	0	120	32	0	0	100
fixed	4	3	9	756537	3	2	2	1	0	639	1	4	0	112	33	0	0	100
fixed	4	3	10	757719	1	4	4	1	0	678	1	4	0	128	34	0	0	100
fixed	4	3	11	759132	5	2	2	1	0	850	1	4	0	112	35	0	0	100
fixed	4	3	12	760768	4	3	3	1	0	940	1	4	0	120	36	0	0	100
fixed	4	4	1	762418	4	1	1	1	0	726	1	4	0	104	37	0	0	100
fixed	4	4	2	764056	1	2	2	1	0	873	1	4	0	112	38	0	0	100
fixed	4	4	3	765526	6	4	4	1	0	611	1	4	0	128	39	0	0	100
fixed	4	4	4	767131	2	1	1	1	0	647	1	4	0	104	40	0	0	100
fixed	4	4	5	768804	5	3	3	1	0	840	1	4	0	120	41	0	0	100
fixed	4	4	6	770663	6	4	4	1	0	737	1	4	0	128	42	0	0	100
fixed	4	4	7	772109	3	1	1	1	0	460	1	4	0	104	43	0	0	100
fixed	4	4	8	773016	2	3	3	1	0	806	1	4	0	120	44	0	0	100
fixed	4	4	9	774551	3	2	2	1	0	549	1	4	0	112	45	0	0	100
fixed	4	4	10	775565	1	4	4	1	0	545	1	4	0	128	46	0	0	100
fixed	4	4	11	777016	5	2	2	1	0	837	1	4	0	112	47	0	0	100
fixed	4	4	12	778738	4	3	3	2	0	1452	2	4	0	120	48	0	0	100
fixed	4	5	1	781298	4	1	1	1	0	863	1	4	0	104	49	0	0	100
fixed	4	5	2	782629	1	2	2	1	0	1239	1	4	0	112	50	0	0	100
fixed	4	5	3	784616	6	4	4	1	0	699	1	4	0	128	51	0	0	100
fixed	4	5	4	785681	2	1	1	1	0	989	1	4	0	104	52	0	0	100
fixed	4	5	5	787292	5	3	3	1	0	801	1	4	0	120	53	0	0	100
fixed	4	5	6	788664	6	4	4	1	0	671	1	4	0	128	54	0	0	100
fixed	4	5	7	789968	3	1	1	1	0	695	1	4	0	104	55	0	0	100
fixed	4	5	8	791340	2	3	3	1	0	925	1	4	0	120	56	0	0	100
fixed	4	5	9	792975	3	2	2	1	0	856	1	4	0	112	57	0	0	100
fixed	4	5	10	794137	1	4	4	1	0	623	1	4	0	128	58	0	0	100
fixed	4	5	11	795525	5	2	2	1	0	908	1	4	0	112	59	0	0	100
fixed	4	5	12	796843	4	3	3	1	0	589	1	4	0	120	60	0	0	100
fixed	4	6	1	798106	4	1	1	1	0	647	1	4	0	104	61	0	0	100
fixed	4	6	2	799699	1	2	2	1	0	795	1	4	0	112	62	0	0	100
fixed	4	6	3	801227	6	4	4	1	0	515	1	4	0	128	63	0	0	100
fixed	4	6	4	802353	2	1	1	1	0	651	1	4	0	104	64	0	0	100
fixed	4	6	5	803367	5	3	3	1	0	912	1	4	0	120	65	0	0	100
fixed	4	6	6	805019	6	4	4	1	0	626	1	4	0	128	66	0	0	100
fixed	4	6	7	805936	3	1	1	1	0	764	1	4	0	104	67	0	0	100
fixed	4	6	8	807557	2	3	3	1	0	831	1	4	0	120	68	0	0	100
fixed	4	6	9	808770	3	2	2	1	0	659	1	4	0	112	69	0	0	100
fixed	4	6	10	810433	1	4	4	1	0	485	1	4	0	128	70	0	0	100
fixed	4	6	11	811864	5	2	2	1	0	848	1	4	0	112	71	0	0	100
fixed	4	6	12	813529	4	3	3	1	0	738	1	4	0	120	72	0	0	100
fixed	4	7	1	815181	4	1	1	1	0	691	1	4	0	104	73	0	0	100
fixed	4	7	2	816820	1	2	2	1	0	774	1	4	0	112	74	0	0	100
fixed	4	7	3	818342	6	4	4	1	0	662	1	4	0	128	75	0	0	100
fixed	4	7	4	819928	2	1	1	1	0	659	1	4	0	104	76	0	0	100
fixed	4	7	5	821543	5	3	3	1	0	759	1	4	0	120	77	0	0	100
fixed	4	7	6	823050	6	4	4	1	0	590	1	4	0	128	78	0	0	100
fixed	4	7	7	824493	3	1	1	1	0	681	1	4	0	104	79	0	0	100
fixed	4	7	8	826192	2	3	3	1	0	833	1	4	0	120	80	0	0	100
fixed	4	7	9	828016	3	2	2	1	0	828	1	4	0	112	81	0	0	100
fixed	4	7	10	829605	1	4	4	1	0	673	1	4	0	128	82	0	0	100
fixed	4	7	11	830963	5	2	2	1	0	1055	1	4	0	112	83	0	0	100
fixed	4	7	12	832780	4	3	3	1	0	610	1	4	0	120	84	0	0	100
fixed	4	8	1	834579	4	1	1	1	0	1030	1	4	0	104	85	0	0	100
fixed	4	8	2	836088	1	2	2	1	0	998	1	4	0	112	86	0	0	100
fixed	4	8	3	837924	6	4	4	1	0	736	1	4	0	128	87	0	0	100
fixed	4	8	4	839268	2	1	1	1	0	776	1	4	0	104	88	0	0	100
fixed	4	8	5	840614	5	3	3	1	0	1038	1	4	0	120	89	0	0	100
fixed	4	8	6	842567	6	4	4	1	0	748	1	4	0	128	90	0	0	100
fixed	4	8	7	843961	3	1	1	1	0	1217	1	4	0	104	91	0	0	100
fixed	4	8	8	845747	2	3	3	1	0	869	1	4	0	120	92	0	0	100
fixed	4	8	9	847168	3	2	2	1	0	521	1	4	0	112	93	0	0	100
fixed	4	8	10	847988	1	4	4	1	0	526	1	4	0	128	94	0	0	100
fixed	4	8	11	849432	5	2	2	1	0	745	1	4	0	112	95	0	0	100
fixed	4	8	12	850959	4	3	3	1	0	1032	1	4	0	120	96	0	0	100
fixed	4	9	1	852673	4	1	1	1	0	735	1	4	0	104	97	0	0	100
fixed	4	9	2	853921	1	2	2	1	0	835	1	4	0	112	98	0	0	100
fixed	4	9	3	855105	6	4	4	1	0	641	1	4	0	128	99	0	0	100
fixed	4	9	4	856709	2	1	1	1	0	885	1	4	0	104	100	0	0	100
fixed	4	9	5	858073	5	3	3	1	0	971	1	4	0	120	101	0	0	100
fixed	4	9	6	859655	6	4	4	1	0	608	1	4	0	128	102	0	0	100
fixed	4	9	7	860782	3	1	1	1	0	784	1	4	0	104	103	0	0	100
fixed	4	9	8	862488	2	3	3	1	0	840	1	4	0	120	104	0	0	100
fixed	4	9	9	864164	3	2	2	1	0	625	1	4	0	112	105	0	0	100
fixed	4	9	10	865691	1	4	4	1	0	664	1	4	0	128	106	0	0	100
fixed	4	9	11	867198	5	2	2	1	0	1513	1	4	0	112	107	0	0	100
fixed	4	9	12	869601	4	3	3	1	0	867	1	4	0	120	108	0	0	100
fixed	4	10	1	871052	4	1	1	1	0	709	1	4	0	104	109	0	0	100
fixed	4	10	2	872296	1	2	2	1	0	769	1	4	0	112	110	0	0	100
fixed	4	10	3	873417	6	4	4	1	0	681	1	4	0	128	111	0	0	100
fixed	4	10	4	874586	2	1	1	1	0	760	1	4	0	104	112	0	0	100
fixed	4	10	5	875750	5	3	3	1	0	774	1	4	0	120	113	0	0	100
fixed	4	10	6	877352	6	4	4	1	0	698	1	4	0	128	114	0	0	100
fixed	4	10	7	878859	3	1	1	1	0	867	1	4	0	104	115	0	0	100
fixed	4	10	8	880697	2	3	3	1	0	853	1	4	0	120	116	0	0	100
fixed	4	10	9	882389	3	2	2	1	0	741	1	4	0	112	117	0	0	100
fixed	4	10	10	884105	1	4	4	1	0	476	1	4	0	128	118	0	0	100
fixed	4	10	11	885347	5	2	2	1	0	1320	1	4	0	112	119	0	0	100
fixed	4	10	12	887349	4	3	3	1	0	699	1	4	0	120	120	0	0	100
fixed	5	1	1	889110	4	1	1	1	0	552	1	4	0	136	1	0	0	100
fixed	5	1	2	890369	1	2	2	1	0	659	1	4	0	144	2	0	0	100
fixed	5	1	3	892042	6	4	4	1	0	636	1	4	0	160	3	0	0	100
fixed	5	1	4	893318	2	1	1	1	0	734	1	4	0	136	4	0	0	100
fixed	5	1	5	894786	5	3	3	2	0	1696	2	4	0	152	5	0	0	100
fixed	5	1	6	896993	6	4	4	1	0	707	1	4	0	160	6	0	0	100
fixed	5	1	7	898239	3	1	1	1	0	710	1	4	0	136	7	0	0	100
fixed	5	1	8	899437	2	3	3	1	0	907	1	4	0	152	8	0	0	100
fixed	5	1	9	901064	3	2	2	1	0	790	1	4	0	144	9	0	0	100
fixed	5	1	10	902643	1	4	4	1	0	708	1	4	0	160	10	0	0	100
fixed	5	1	11	904145	5	2	2	1	0	884	1	4	0	144	11	0	0	100
fixed	5	1	12	905452	4	3	3	1	0	724	1	4	0	152	12	0	0	100
fixed	5	2	1	907407	4	1	1	1	0	729	1	4	0	136	13	0	0	100
fixed	5	2	2	908699	1	2	2	1	0	1355	1	4	0	144	14	0	0	100
fixed	5	2	3	910395	6	4	4	1	0	1347	1	4	0	160	15	0	0	100
fixed	5	2	4	912708	2	1	1	1	0	809	1	4	0	136	16	0	0	100
fixed	5	2	5	914232	5	3	3	1	0	792	1	4	0	152	17	0	0	100
fixed	5	2	6	915695	6	4	4	1	0	682	1	4	0	160	18	0	0	100
fixed	5	2	7	916775	3	1	1	1	0	765	1	4	0	136	19	0	0	100
fixed	5	2	8	918383	2	3	3	1	0	880	1	4	0	152	20	0	0	100
fixed	5	2	9	920157	3	2	2	1	0	677	1	4	0	144	21	0	0	100
fixed	5	2	10	921258	1	4	4	1	0	703	1	4	0	160	22	0	0	100
fixed	5	2	11	922609	5	2	2	1	0	901	1	4	0	144	23	0	0	100
fixed	5	2	12	923839	4	3	3	1	0	586	1	4	0	152	24	0	0	100
fixed	5	3	1	925000	4	1	1	1	0	688	1	4	0	136	25	0	0	100
fixed	5	3	2	926461	1	2	2	1	0	1026	1	4	0	144	26	0	0	100
fixed	5	3	3	928271	6	4	4	1	0	654	1	4	0	160	27	0	0	100
fixed	5	3	4	929471	2	1	1	1	0	747	1	4	0	136	28	0	0	100
fixed	5	3	5	931247	5	3	3	1	0	919	1	4	0	152	29	0	0	100
fixed	5	3	6	933157	6	4	4	1	0	719	1	4	0	160	30	0	0	100
fixed	5	3	7	934683	3	1	1	1	0	830	1	4	0	136	31	0	0	100
fixed	5	3	8	936194	2	3	3	1	0	790	1	4	0	152	32	0	0	100
fixed	5	3	9	937437	3	2	2	1	0	1025	1	4	0	144	33	0	0	100
fixed	5	3	10	939057	1	4	4	1	0	709	1	4	0	160	34	0	0	100
fixed	5	3	11	940232	5	2	2	1	0	851	1	4	0	144	35	0	0	100
fixed	5	3	12	941978	4	3	3	1	0	993	1	4	0	152	36	0	0	100
fixed	5	4	1	943529	4	1	1	1	0	767	1	4	0	136	37	0	0	100
fixed	5	4	2	945258	1	2	2	1	0	1062	1	4	0	144	38	0	0	100
fixed	5	4	3	946920	6	4	4	1	0	704	1	4	0	160	39	0	0	100
fixed	5	4	4	947930	2	1	1	1	0	989	1	4	0	136	40	0	0	100
fixed	5	4	5	949501	5	3	3	1	0	811	1	4	0	152	41	0	0	100
fixed	5	4	6	950771	6	4	4	1	0	717	1	4	0	160	42	0	0	100
fixed	5	4	7	952308	3	1	1	1	0	1404	1	4	0	136	43	0	0	100
fixed	5	4	8	954079	2	3	3	1	0	929	1	4	0	152	44	0	0	100
fixed	5	4	9	955957	3	2	2	1	0	881	1	4	0	144	45	0	0	100
fixed	5	4	10	957589	1	4	4	1	0	756	1	4	0	160	46	0	0	100
fixed	5	4	11	958746	5	2	2	1	0	1107	1	4	0	144	47	0	0	100
fixed	5	4	12	960230	4	3	3	1	0	604	1	4	0	152	48	0	0	100
fixed	5	5	1	961924	4	1	1	1	0	884	1	4	0	136	49	0	0	100
fixed	5	5	2	963453	1	2	2	1	0	1004	1	4	0	144	50	0	0	100
fixed	5	5	3	964996	6	4	4	1	0	746	1	4	0	160	51	0	0	100
fixed	5	5	4	966179	2	1	1	1	0	816	1	4	0	136	52	0	0	100
fixed	5	5	5	967683	5	3	3	1	0	945	1	4	0	152	53	0	0	100
fixed	5	5	6	969374	6	4	4	1	0	696	1	4	0	160	54	0	0	100
fixed	5	5	7	970441	3	1	1	1	0	700	1	4	0	136	55	0	0	100
fixed	5	5	8	971620	2	3	3	1	0	922	1	4	0	152	56	0	0	100
fixed	5	5	9	973314	3	2	2	1	0	786	1	4	0	144	57	0	0	100
fixed	5	5	10	974411	1	4	4	1	0	779	1	4	0	160	58	0	0	100
fixed	5	5	11	975755	5	2	2	1	0	779	1	4	0	144	59	0	0	100
fixed	5	5	12	976954	4	3	3	1	0	672	1	4	0	152	60	0	0	100
fixed	5	6	1	978281	4	1	1	1	0	679	1	4	0	136	61	0	0	100
fixed	5	6	2	979573	1	2	2	1	0	961	1	4	0	144	62	0	0	100
fixed	5	6	3	981391	6	4	4	1	0	708	1	4	0	160	63	0	0	100
fixed	5	6	4	982406	2	1	1	1	0	816	1	4	0	136	64	0	0	100
fixed	5	6	5	984036	5	3	3	1	0	844	1	4	0	152	65	0	0	100
fixed	5	6	6	985654	6	4	4	1	0	703	1	4	0	160	66	0	0	100
fixed	5	6	7	987294	3	1	1	1	0	818	1	4	0	136	67	0	0	100
fixed	5	6	8	988572	2	3	3	1	0	995	1	4	0	152	68	0	0	100
fixed	5	6	9	990273	3	2	2	1	0	1324	1	4	0	144	69	0	0	100
fixed	5	6	10	992102	1	4	4	1	0	790	1	4	0	160	70	0	0	100
fixed	5	6	11	993612	5	2	2	1	0	806	1	4	0	144	71	0	0	100
fixed	5	6	12	995333	4	3	3	1	0	717	1	4	0	152	72	0	0	100
fixed	5	7	1	997061	4	1	1	1	0	788	1	4	0	136	73	0	0	100
fixed	5	7	2	998770	1	2	2	1	0	1012	1	4	0	144	74	0	0	100
fixed	5	7	3	1000662	6	4	4	1	0	820	1	4	0	160	75	0	0	100
fixed	5	7	4	1002032	2	1	1	1	0	754	1	4	0	136	76	0	0	100
fixed	5	7	5	1003310	5	3	3	1	0	931	1	4	0	152	77	0	0	100
fixed	5	7	6	1004750	6	4	4	1	0	702	1	4	0	160	78	0	0	100
fixed	5	7	7	1005890	3	1	1	1	0	742	1	4	0	136	79	0	0	100
fixed	5	7	8	1006973	2	3	3	1	0	1328	1	4	0	152	80	0	0	100
fixed	5	7	9	1008842	3	2	2	1	0	689	1	4	0	144	81	0	0	100
fixed	5	7	10	1010366	1	4	4	1	0	808	1	4	0	160	82	0	0	100
fixed	5	7	11	1011909	5	2	2	1	0	823	1	4	0	144	83	0	0	100
fixed	5	7	12	1013746	4	3	3	1	0	818	1	4	0	152	84	0	0	100
fixed	5	8	1	1015389	4	1	1	1	0	755	1	4	0	136	85	0	0	100
fixed	5	8	2	1016618	1	2	2	1	0	1112	1	4	0	144	86	0	0	100
fixed	5	8	3	1018491	6	4	4	1	0	713	1	4	0	160	87	0	0	100
fixed	5	8	4	1019867	2	1	1	1	0	694	1	4	0	136	88	0	0	100
fixed	5	8	5	1021344	5	3	3	1	0	1064	1	4	0	152	89	0	0	100
fixed	5	8	6	1022899	6	4	4	1	0	654	1	4	0	160	90	0	0	100
fixed	5	8	7	1024589	3	1	1	1	0	758	1	4	0	136	91	0	0	100
fixed	5	8	8	1026260	2	3	3	1	0	864	1	4	0	152	92	0	0	100
fixed	5	8	9	1027440	3	2	2	1	0	733	1	4	0	144	93	0	0	100
fixed	5	8	10	1028841	1	4	4	1	0	650	1	4	0	160	94	0	0	100
fixed	5	8	11	1030172	5	2	2	1	0	826	1	4	0	144	95	0	0	100
fixed	5	8	12	1031342	4	3	3	1	0	696	1	4	0	152	96	0	0	100
fixed	5	9	1	1033316	4	1	1	1	0	916	1	4	0	136	97	0	0	100
fixed	5	9	2	1034685	1	2	2	1	0	1098	1	4	0	144	98	0	0	100
fixed	5	9	3	1036139	6	4	4	1	0	821	1	4	0	160	99	0	0	100
fixed	5	9	4	1037908	2	1	1	1	0	898	1	4	0	136	100	0	0	100
fixed	5	9	5	1039195	5	3	3	1	0	1499	1	4	0	152	101	0	0	100
fixed	5	9	6	1041223	6	4	4	1	0	1261	1	4	0	160	102	0	0	100
fixed	5	9	7	1042778	3	1	1	1	0	964	1	4	0	136	103	0	0	100
fixed	5	9	8	1044388	2	3	3	1	0	928	1	4	0	152	104	0	0	100
fixed	5	9	9	1045669	3	2	2	1	0	681	1	4	0	144	105	0	0	100
fixed	5	9	10	1046653	1	4	4	1	0	799	1	4	0	160	106	0	0	100
fixed	5	9	11	1047914	5	2	2	1	0	826	1	4	0	144	107	0	0	100
fixed	5	9	12	1049581	4	3	3	1	0	732	1	4	0	152	108	0	0	100
fixed	5	10	1	1051026	4	1	1	1	0	694	1	4	0	136	109	0	0	100
fixed	5	10	2	1052621	1	2	2	1	0	787	1	4	0	144	110	0	0	100
fixed	5	10	3	1054315	6	4	4	1	0	747	1	4	0	160	111	0	0	100
fixed	5	10	4	1055587	2	1	1	1	0	701	1	4	0	136	112	0	0	100
fixed	5	10	5	1057121	5	3	3	1	0	1132	1	4	0	152	113	0	0	100
fixed	5	10	6	1058704	6	4	4	1	0	729	1	4	0	160	114	0	0	100
fixed	5	10	7	1060178	3	1	1	1	0	747	1	4	0	136	115	0	0	100
fixed	5	10	8	1061542	2	3	3	1	0	969	1	4	0	152	116	0	0	100
fixed	5	10	9	1063340	3	2	2	1	0	700	1	4	0	144	117	0	0	100
fixed	5	10	10	1064520	1	4	4	1	0	859	1	4	0	160	118	0	0	100
fixed	5	10	11	1066102	5	2	2	1	0	848	1	4	0	144	119	0	0	100
fixed	5	10	12	1067854	4	3	3	1	0	941	1	4	0	152	120	0	0	100
random	6	1	1	1161178	6	1	1	1	0	852	1	4	0	168	1	0	0	100
random	6	1	2	1162527	4	4	4	1	0	700	1	4	0	192	2	0	0	100
random	6	1	3	1163837	2	2	0	1	2	0	3	4	0	176	2	0	1	67
random	6	1	4	1166818	3	3	3	1	0	950	1	4	0	184	3	0	1	75
random	6	1	5	1168441	5	2	2	1	0	1065	1	4	0	176	4	0	1	80
random	6	1	6	1170282	1	4	4	1	0	659	1	4	0	192	5	0	1	83
random	6	1	7	1171650	6	1	1	1	0	817	1	4	0	168	6	0	1	86
random	6	1	8	1173484	2	3	3	1	0	916	1	4	0	184	7	0	1	88
random	6	1	9	1174948	4	2	2	1	0	645	1	4	0	176	8	0	1	89
random	6	1	10	1176252	1	1	1	1	0	758	1	4	0	168	9	0	1	90
random	6	1	11	1177630	5	4	4	1	0	524	1	4	0	192	10	0	1	91
random	6	1	12	1178585	3	3	3	1	0	1020	1	4	0	184	11	0	1	92
random	6	1	13	1180578	5	2	2	1	0	855	1	4	0	176	12	0	1	92
random	6	1	14	1181944	1	4	4	1	0	709	1	4	0	192	13	0	1	93
random	6	1	15	1183635	3	1	1	1	0	741	1	4	0	168	14	0	1	93
random	6	1	16	1185134	4	3	3	1	0	822	1	4	0	184	15	0	1	94
random	6	1	17	1186525	6	4	4	1	0	1579	1	4	0	192	16	0	1	94
random	6	1	18	1188952	2	1	1	1	0	708	1	4	0	168	17	0	1	94
random	6	1	19	1190490	5	3	3	1	0	771	1	4	0	184	18	0	1	95
random	6	1	20	1192045	2	2	2	1	0	617	1	4	0	176	19	0	1	95
random	6	1	21	1193128	3	3	3	1	0	763	1	4	0	184	20	0	1	95
random	6	1	22	1194476	6	1	1	1	0	994	1	4	0	168	21	0	1	95
random	6	1	23	1195966	4	2	2	1	0	827	1	4	0	176	22	0	1	96
random	6	1	24	1197470	1	4	4	1	0	683	1	4	0	192	23	0	1	96
random	6	1	25	1198806	4	3	3	1	0	987	1	4	0	184	24	0	1	96
random	6	1	26	1200674	2	1	1	1	0	739	1	4	0	168	25	0	1	96
random	6	1	27	1202149	5	2	2	1	0	845	1	4	0	176	26	0	1	96
random	6	1	28	1203416	6	4	4	1	0	727	1	4	0	192	27	0	1	96
random	6	1	29	1205152	1	3	3	1	0	814	1	4	0	184	28	0	1	97
random	6	1	30	1206557	5	2	2	1	0	674	1	4	0	176	29	0	1	97
random	6	1	31	1208139	2	1	1	1	0	792	1	4	0	168	30	0	1	97
random	6	1	32	1209738	3	3	3	1	0	844	1	4	0	184	31	0	1	97
random	6	1	33	1211175	6	4	4	1	0	663	1	4	0	192	32	0	1	97
random	6	1	34	1212488	4	2	2	1	0	879	1	4	0	176	33	0	1	97
random	6	1	35	1213926	3	4	4	1	0	850	1	4	0	192	34	0	1	97
random	6	1	36	1215702	1	1	1	1	0	703	1	4	0	168	35	0	1	97
random	6	1	37	1217368	3	4	4	1	0	768	1	4	0	192	36	0	1	97
random	6	1	38	1218504	5	3	3	2	0	1328	2	4	0	184	37	0	1	97
random	6	1	39	1220726	6	1	1	1	0	762	1	4	0	168	38	0	1	97
random	6	1	40	1222194	1	2	2	1	0	732	1	4	0	176	39	0	1	98
random	6	1	41	1223275	2	3	3	1	0	711	1	4	0	184	40	0	1	98
random	6	1	42	1224900	4	4	4	1	0	841	1	4	0	192	41	0	1	98
random	6	1	43	1226048	1	2	2	1	0	1441	1	4	0	176	42	0	1	98
random	6	1	44	1228438	6	3	3	1	0	668	1	4	0	184	43	0	1	98
random	6	1	45	1229640	3	1	1	1	0	857	1	4	0	168	44	0	1	98
random	6	1	46	1231019	4	4	4	1	0	694	1	4	0	192	45	0	1	98
random	6	1	47	1232283	2	2	2	1	0	1129	1	4	0	176	46	0	1	98
random	6	1	48	1233761	5	1	1	1	0	882	1	4	0	168	47	0	1	98
random	6	1	49	1235496	2	3	3	1	0	889	1	4	0	184	48	0	1	98
random	6	1	50	1237105	3	1	1	1	0	789	1	4	0	168	49	0	1	98
random	6	1	51	1238852	1	4	4	1	0	618	1	4	0	192	50	0	1	98
random	6	1	52	1239872	5	3	3	1	0	799	1	4	0	184	51	0	1	98
random	6	1	53	1240966	3	2	2	1	0	897	1	4	0	176	52	0	1	98
random	6	1	54	1242592	6	4	4	1	0	805	1	4	0	192	53	0	1	98
random	6	1	55	1243881	4	2	2	1	0	1101	1	4	0	176	54	0	1	98
random	6	1	56	1245297	1	1	1	1	0	746	1	4	0	168	55	0	1	98
random	6	1	57	1246606	5	4	4	1	0	882	1	4	0	192	56	0	1	98
random	6	1	58	1248492	2	1	1	1	0	850	1	4	0	168	57	0	1	98
random	6	1	59	1250160	6	2	2	1	0	1212	1	4	0	176	58	0	1	98
random	6	1	60	1252312	4	3	3	1	0	593	1	4	0	184	59	0	1	98
random	6	1	61	1253507	1	2	2	1	0	918	1	4	0	176	60	0	1	98
random	6	1	62	1254892	6	4	4	1	0	779	1	4	0	192	61	0	1	98
random	6	1	63	1256264	4	1	1	1	0	761	1	4	0	168	62	0	1	98
random	6	1	64	1257541	2	2	2	1	0	1019	1	4	0	176	63	0	1	98
random	6	1	65	1259155	4	3	3	1	0	615	1	4	0	184	64	0	1	98
random	6	1	66	1260614	3	1	1	1	0	753	1	4	0	168	65	0	1	98
random	6	1	67	1261771	1	3	3	1	0	840	1	4	0	184	66	0	1	99
random	6	1	68	1263207	5	4	4	1	0	739	1	4	0	192	67	0	1	99
random	6	1	69	1264523	2	2	2	1	0	931	1	4	0	176	68	0	1	99
random	6	1	70	1266483	3	1	1	1	0	1153	1	4	0	168	69	0	1	99
random	6	1	71	1268204	5	4	4	1	0	792	1	4	0	192	70	0	1	99
random	6	1	72	1269736	6	3	3	1	0	799	1	4	0	184	71	0	1	99
random	6	1	73	1271200	2	1	1	1	0	776	1	4	0	168	72	0	1	99
random	6	1	74	1272800	5	3	3	1	0	781	1	4	0	184	73	0	1	99
random	6	1	75	1274344	1	4	4	1	0	675	1	4	0	192	74	0	1	99
random	6	1	76	1275552	6	2	2	1	0	752	1	4	0	176	75	0	1	99
random	6	1	77	1277191	2	1	1	1	0	723	1	4	0	168	76	0	1	99
random	6	1	78	1278557	4	4	4	1	0	857	1	4	0	192	77	0	1	99
random	6	1	79	1280115	3	2	2	1	0	735	1	4	0	176	78	0	1	99
random	6	1	80	1281767	4	3	3	1	0	657	1	4	0	184	79	0	1	99
random	6	1	81	1282833	1	4	4	1	0	796	1	4	0	192	80	0	1	99
random	6	1	82	1284229	5	1	1	1	0	553	1	4	0	168	81	0	1	99
random	6	1	83	1285074	3	2	2	1	0	941	1	4	0	176	82	0	1	99
random	6	1	84	1286835	6	3	3	1	0	771	1	4	0	184	83	0	1	99
random	6	1	85	1288777	3	2	2	1	0	936	1	4	0	176	84	0	1	99
random	6	1	86	1290553	1	3	3	1	0	749	1	4	0	184	85	0	1	99
random	6	1	87	1291605	4	4	4	1	0	1240	1	4	0	192	86	0	1	99
random	6	1	88	1293541	2	1	1	1	0	814	1	4	0	168	87	0	1	99
random	6	1	89	1295286	6	4	4	1	0	837	1	4	0	192	88	0	1	99
random	6	1	90	1296824	3	3	3	1	0	788	1	4	0	184	89	0	1	99
random	6	1	91	1298171	5	4	4	1	0	754	1	4	0	192	90	0	1	99
random	6	1	92	1299242	1	2	2	1	0	1237	1	4	0	176	91	0	1	99
random	6	1	93	1300824	5	1	1	1	0	922	1	4	0	168	92	0	1	99
random	6	1	94	1302750	4	3	3	1	0	760	1	4	0	184	93	0	1	99
random	6	1	95	1303838	6	1	1	1	0	754	1	4	0	168	94	0	1	99
random	6	1	96	1305142	2	2	2	1	0	755	1	4	0	176	95	0	1	99
random	6	1	97	1306587	4	3	3	2	0	1350	2	4	0	184	96	0	1	99
random	6	1	98	1308426	3	2	2	1	0	808	1	4	0	176	97	0	1	99
random	6	1	99	1310102	6	3	3	1	0	1001	1	4	0	184	98	0	1	99
random	6	1	100	1311790	1	4	4	1	0	753	1	4	0	192	99	0	1	99
random	6	1	101	1313568	4	1	1	1	0	1118	1	4	0	168	100	0	1	99
random	6	1	102	1315138	5	2	2	1	0	835	1	4	0	176	101	0	1	99
random	6	1	103	1316405	2	4	4	1	0	1190	1	4	0	192	102	0	1	99
random	6	1	104	1318199	3	1	1	1	0	754	1	4	0	168	103	0	1	99
random	6	1	105	1319321	1	3	3	1	0	818	1	4	0	184	104	0	1	99
random	6	1	106	1320476	2	2	2	1	0	721	1	4	0	176	105	0	1	99
random	6	1	107	1321708	5	4	4	1	0	709	1	4	0	192	106	0	1	99
random	6	1	108	1323241	6	1	1	1	0	781	1	4	0	168	107	0	1	99
random	6	1	109	1324848	5	4	4	1	0	920	1	4	0	192	108	0	1	99
random	6	1	110	1326440	6	3	3	1	0	877	1	4	0	184	109	0	1	99
random	6	1	111	1327715	2	2	2	1	0	719	1	4	0	176	110	0	1	99
random	6	1	112	1329435	3	1	1	1	0	726	1	4	0	168	111	0	1	99
random	6	1	113	1330679	1	2	2	1	0	873	1	4	0	176	112	0	1	99
random	6	1	114	1332504	2	3	3	1	0	804	1	4	0	184	113	0	1	99
random	6	1	115	1334077	3	1	1	1	0	753	1	4	0	168	114	0	1	99
random	6	1	116	1335159	4	4	4	1	0	603	1	4	0	192	115	0	1	99
random	6	1	117	1336796	6	1	1	2	0	1430	2	4	0	168	116	0	1	99
random	6	1	118	1339093	5	3	3	1	0	933	1	4	0	184	117	0	1	99
random	6	1	119	1340740	1	4	4	1	0	775	1	4	0	192	118	0	1	99
random	6	1	120	1341996	4	2	2	1	0	906	1	4	0	176	119	0	1	99
fixed	7	1	1	1343893	4	1	1	1	0	777	1	4	0	200	1	0	0	100
fixed	7	1	2	1345229	1	2	2	1	0	753	1	4	0	208	2	0	0	100
fixed	7	1	3	1346809	6	4	4	1	0	654	1	4	0	224	3	0	0	100
fixed	7	1	4	1348379	2	1	1	1	0	748	1	4	0	200	4	0	0	100
fixed	7	1	5	1349775	5	3	3	1	0	888	1	4	0	216	5	0	0	100
fixed	7	1	6	1351667	6	4	4	1	0	1000	1	4	0	224	6	0	0	100
fixed	7	1	7	1353603	3	1	1	1	0	838	1	4	0	200	7	0	0	100
fixed	7	1	8	1355028	2	3	3	1	0	994	1	4	0	216	8	0	0	100
fixed	7	1	9	1357006	3	2	2	1	0	751	1	4	0	208	9	0	0	100
fixed	7	1	10	1358131	1	4	4	1	0	678	1	4	0	224	10	0	0	100
fixed	7	1	11	1359787	5	2	2	1	0	856	1	4	0	208	11	0	0	100
fixed	7	1	12	1361417	4	3	3	1	0	940	1	4	0	216	12	0	0	100
fixed	7	2	1	1363009	4	1	1	1	0	768	1	4	0	200	1	0	0	8
fixed	7	2	2	1364383	1	2	2	1	0	862	1	4	0	208	2	0	0	14
fixed	7	2	3	1365632	6	4	4	1	0	721	1	4	0	224	3	0	0	20
fixed	7	2	4	1367272	2	1	1	1	0	715	1	4	0	200	4	0	0	25
fixed	7	2	5	1368731	5	3	3	1	0	846	1	4	0	216	5	0	0	29
fixed	7	2	6	1370428	6	4	4	1	0	734	1	4	0	224	6	0	0	33
fixed	7	2	7	1372162	3	1	1	1	0	716	1	4	0	200	7	0	0	37
fixed	7	2	8	1373794	2	3	3	1	0	919	1	4	0	216	8	0	0	40
fixed	7	2	9	1375345	3	2	2	1	0	598	1	4	0	208	9	0	0	43
fixed	7	2	10	1376703	1	4	4	1	0	644	1	4	0	224	10	0	0	45
fixed	7	2	11	1378129	5	2	2	1	0	951	1	4	0	208	11	0	0	48
fixed	7	2	12	1380079	4	3	3	1	0	749	1	4	0	216	12	0	0	50
fixed	7	3	1	1381554	4	1	1	1	0	798	1	4	0	200	1	0	0	4
fixed	7	3	2	1382882	1	2	2	1	0	910	1	4	0	208	2	0	0	8
fixed	7	3	3	1384710	6	4	4	1	0	680	1	4	0	224	3	0	0	11
fixed	7	3	4	1386400	2	1	1	1	0	1121	1	4	0	200	4	0	0	14
fixed	7	3	5	1388175	5	3	3	1	0	878	1	4	0	216	5	0	0	17
fixed	7	3	6	1389843	6	4	4	1	0	671	1	4	0	224	6	0	0	20
fixed	7	3	7	1390976	3	1	1	1	0	815	1	4	0	200	7	0	0	23
fixed	7	3	8	1392734	2	3	3	1	0	853	1	4	0	216	8	0	0	25
fixed	7	3	9	1394374	3	2	2	1	0	880	1	4	0	208	9	0	0	27
fixed	7	3	10	1395701	1	4	4	1	0	768	1	4	0	224	10	0	0	29
fixed	7	3	11	1396910	5	2	2	1	0	772	1	4	0	208	11	0	0	31
fixed	7	3	12	1398320	4	3	3	1	0	673	1	4	0	216	12	0	0	33
fixed	7	4	1	1399582	4	1	1	1	0	627	1	4	0	200	1	0	0	3
fixed	7	4	2	1401018	1	2	2	1	0	782	1	4	0	208	2	0	0	5
fixed	7	4	3	1402242	6	4	4	1	0	514	1	4	0	224	3	0	0	8
fixed	7	4	4	1403351	2	1	1	1	0	836	1	4	0	200	4	0	0	10
fixed	7	4	5	1405055	5	3	3	1	0	827	1	4	0	216	5	0	0	12
fixed	7	4	6	1406312	6	4	4	1	0	718	1	4	0	224	6	0	0	14
fixed	7	4	7	1407867	3	1	1	1	0	868	1	4	0	200	7	0	0	16
fixed	7	4	8	1409237	2	3	3	1	0	818	1	4	0	216	8	0	0	18
fixed	7	4	9	1410897	3	2	2	1	0	692	1	4	0	208	9	0	0	20
fixed	7	4	10	1412315	1	4	4	1	0	671	1	4	0	224	10	0	0	22
fixed	7	4	11	1413799	5	2	2	1	0	841	1	4	0	208	11	0	0	23
fixed	7	4	12	1415087	4	3	3	1	0	746	1	4	0	216	12	0	0	25
fixed	7	5	1	1417025	4	1	1	2	0	1048	2	4	0	200	1	0	0	2
fixed	7	5	2	1418487	1	2	2	1	0	1210	1	4	0	208	2	0	0	4
fixed	7	5	3	1420435	6	4	4	1	0	671	1	4	0	224	3	0	0	6
fixed	7	5	4	1422148	2	1	1	1	0	799	1	4	0	200	4	0	0	8
fixed	7	5	5	1423743	5	3	3	1	0	907	1	4	0	216	5	0	0	9
fixed	7	5	6	1425226	6	4	4	1	0	788	1	4	0	224	6	0	0	11
fixed	7	5	7	1427003	3	1	1	1	0	721	1	4	0	200	7	0	0	13
fixed	7	5	8	1428072	2	3	3	1	0	916	1	4	0	216	8	0	0	14
fixed	7	5	9	1429442	3	2	2	1	0	730	1	4	0	208	9	0	0	16
fixed	7	5	10	1431196	1	4	4	1	0	720	1	4	0	224	10	0	0	17
fixed	7	5	11	1432939	5	2	2	1	0	822	1	4	0	208	11	0	0	19
fixed	7	5	12	1434472	4	3	3	1	0	757	1	4	0	216	12	0	0	20
fixed	7	6	1	1436122	4	1	1	1	0	799	1	4	0	200	1	0	0	2
fixed	7	6	2	1437686	1	2	2	1	0	1165	1	4	0	208	2	0	0	3
fixed	7	6	3	1439352	6	4	4	1	0	774	1	4	0	224	3	0	0	5
fixed	7	6	4	1440424	2	1	1	1	0	793	1	4	0	200	4	0	0	6
fixed	7	6	5	1441731	5	3	3	1	0	794	1	4	0	216	5	0	0	8
fixed	7	6	6	1443158	6	4	4	1	0	693	1	4	0	224	6	0	0	9
fixed	7	6	7	1444291	3	1	1	1	0	677	1	4	0	200	7	0	0	10
fixed	7	6	8	1445392	2	3	3	1	0	886	1	4	0	216	8	0	0	12
fixed	7	6	9	1447142	3	2	2	1	0	965	1	4	0	208	9	0	0	13
fixed	7	6	10	1449125	1	4	4	1	0	744	1	4	0	224	10	0	0	14
fixed	7	6	11	1450504	5	2	2	1	0	782	1	4	0	208	11	0	0	15
fixed	7	6	12	1451626	4	3	3	1	0	686	1	4	0	216	12	0	0	17
fixed	7	7	1	1453364	4	1	1	1	0	765	1	4	0	200	1	0	0	1
fixed	7	7	2	1454966	1	2	2	1	0	745	1	4	0	208	2	0	0	3
fixed	7	7	3	1456444	6	4	4	1	0	690	1	4	0	224	3	0	0	4
fixed	7	7	4	1458049	2	1	1	1	0	1439	1	4	0	200	4	0	0	5
fixed	7	7	5	1459983	5	3	3	1	0	1013	1	4	0	216	5	0	0	6
fixed	7	7	6	1461835	6	4	4	1	0	678	1	4	0	224	6	0	0	8
fixed	7	7	7	1463087	3	1	1	1	0	729	1	4	0	200	7	0	0	9
fixed	7	7	8	1464473	2	3	3	1	0	806	1	4	0	216	8	0	0	10
fixed	7	7	9	1466093	3	2	2	1	0	713	1	4	0	208	9	0	0	11
fixed	7	7	10	1467167	1	4	4	1	0	788	1	4	0	224	10	0	0	12
fixed	7	7	11	1468598	5	2	2	1	0	767	1	4	0	208	11	0	0	13
fixed	7	7	12	1469936	4	3	3	1	0	623	1	4	0	216	12	0	0	14
fixed	7	8	1	1471191	4	1	1	1	0	738	1	4	0	200	1	0	0	1
fixed	7	8	2	1472702	1	2	2	1	0	786	1	4	0	208	2	0	0	2
fixed	7	8	3	1474417	6	4	4	1	0	689	1	4	0	224	3	0	0	3
fixed	7	8	4	1475849	2	1	1	1	0	837	1	4	0	200	4	0	0	5
fixed	7	8	5	1477660	5	3	3	2	0	1328	2	4	0	216	5	0	0	6
fixed	7	8	6	1480011	6	4	4	1	0	644	1	4	0	224	6	0	0	7
fixed	7	8	7	1481284	3	1	1	1	0	782	1	4	0	200	7	0	0	8
fixed	7	8	8	1482854	2	3	3	1	0	1036	1	4	0	216	8	0	0	9
fixed	7	8	9	1484603	3	2	2	1	0	698	1	4	0	208	9	0	0	10
fixed	7	8	10	1485870	1	4	4	1	0	724	1	4	0	224	10	0	0	11
fixed	7	8	11	1487103	5	2	2	1	0	904	1	4	0	208	11	0	0	12
fixed	7	8	12	1489037	4	3	3	1	0	718	1	4	0	216	12	0	0	13
fixed	7	9	1	1490956	4	1	1	1	0	756	1	4	0	200	1	0	0	1
fixed	7	9	2	1492283	1	2	2	1	0	733	1	4	0	208	2	0	0	2
fixed	7	9	3	1493609	6	4	4	1	0	821	1	4	0	224	3	0	0	3
fixed	7	9	4	1495332	2	1	1	1	0	851	1	4	0	200	4	0	0	4
fixed	7	9	5	1496834	5	3	3	1	0	740	1	4	0	216	5	0	0	5
fixed	7	9	6	1497956	6	4	4	1	0	724	1	4	0	224	6	0	0	6
fixed	7	9	7	1499428	3	1	1	1	0	750	1	4	0	200	7	0	0	7
fixed	7	9	8	1500470	2	3	3	1	0	802	1	4	0	216	8	0	0	8
fixed	7	9	9	1501717	3	2	2	1	0	637	1	4	0	208	9	0	0	9
fixed	7	9	10	1502716	1	4	4	1	0	802	1	4	0	224	10	0	0	9
fixed	7	9	11	1504045	5	2	2	1	0	938	1	4	0	208	11	0	0	10
fixed	7	9	12	1505548	4	3	3	1	0	859	1	4	0	216	12	0	0	11
fixed	7	10	1	1507146	4	1	1	1	0	703	1	4	0	200	1	0	0	1
fixed	7	10	2	1508179	1	2	2	1	0	787	1	4	0	208	2	0	0	2
fixed	7	10	3	1509987	6	4	4	1	0	678	1	4	0	224	3	0	0	3
fixed	7	10	4	1511553	2	1	1	1	0	677	1	4	0	200	4	0	0	4
fixed	7	10	5	1513199	5	3	3	2	0	1519	2	4	0	216	5	0	0	4
fixed	7	10	6	1515313	6	4	4	1	0	693	1	4	0	224	6	0	0	5
fixed	7	10	7	1516426	3	1	1	1	0	830	1	4	0	200	7	0	0	6
fixed	7	10	8	1518030	2	3	3	1	0	850	1	4	0	216	8	0	0	7
fixed	7	10	9	1519466	3	2	2	1	0	717	1	4	0	208	9	0	0	8
fixed	7	10	10	1520761	1	4	4	1	0	638	1	4	0	224	10	0	0	8
fixed	7	10	11	1521936	5	2	2	1	0	828	1	4	0	208	11	0	0	9
fixed	7	10	12	1523588	4	3	3	1	0	630	1	4	0	216	12	0	0	10
