type	block	sequ.	trial	time	Pos.	Color	Button	NumRsp	Resp_1	RT_1	R_Code	Resp_2	RT_2	Trigg.	n_hit	n_inc	n_miss	score_%

random	1	1	1	1262	6	1	1	1	0	728	1	4	0	8	1	0	0	100
random	1	1	2	2817	4	4	4	1	0	750	1	4	0	32	2	0	0	100
random	1	1	3	4050	2	2	2	1	0	811	1	4	0	16	3	0	0	100
random	1	1	4	5541	3	3	3	1	0	531	1	4	0	24	4	0	0	100
random	1	1	5	6446	5	2	2	1	0	933	1	4	0	16	5	0	0	100
random	1	1	6	8010	1	4	4	1	0	539	1	4	0	32	6	0	0	100
random	1	1	7	9031	6	1	1	1	0	432	1	4	0	8	7	0	0	100
random	1	1	8	10476	2	3	3	1	0	690	1	4	0	24	8	0	0	100
random	1	1	9	12141	4	2	2	1	0	651	1	4	0	16	9	0	0	100
random	1	1	10	13144	1	1	1	1	0	801	1	4	0	8	10	0	0	100
random	1	1	11	14495	5	4	4	1	0	472	1	4	0	32	11	0	0	100
random	1	1	12	15391	3	3	3	1	0	746	1	4	0	24	12	0	0	100
random	1	1	13	17002	5	2	2	1	0	838	1	4	0	16	13	0	0	100
random	1	1	14	18484	1	4	4	1	0	623	1	4	0	32	14	0	0	100
random	1	1	15	19852	3	1	1	1	0	669	1	4	0	8	15	0	0	100
random	1	1	16	21395	4	3	3	1	0	827	1	4	0	24	16	0	0	100
random	1	1	17	23092	6	4	4	1	0	668	1	4	0	32	17	0	0	100
random	1	1	18	24577	2	1	1	1	0	725	1	4	0	8	18	0	0	100
random	1	1	19	26014	5	3	3	1	0	800	1	4	0	24	19	0	0	100
random	1	1	20	27607	2	2	2	1	0	661	1	4	0	16	20	0	0	100
random	1	1	21	29246	3	3	3	2	0	1527	2	4	0	24	21	0	0	100
random	1	1	22	31274	6	1	1	1	0	801	1	4	0	8	22	0	0	100
random	1	1	23	32789	4	2	2	1	0	1033	1	4	0	16	23	0	0	100
random	1	1	24	34307	1	4	4	1	0	601	1	4	0	32	24	0	0	100
random	1	1	25	35883	4	3	3	1	0	1030	1	4	0	24	25	0	0	100
random	1	1	26	37489	2	1	1	1	0	778	1	4	0	8	26	0	0	100
random	1	1	27	39234	5	2	2	1	0	864	1	4	0	16	27	0	0	100
random	1	1	28	40471	6	4	4	1	0	588	1	4	0	32	28	0	0	100
random	1	1	29	41512	1	3	3	1	0	663	1	4	0	24	29	0	0	100
random	1	1	30	42884	5	2	2	1	0	797	1	4	0	16	30	0	0	100
random	1	1	31	44200	2	1	1	1	0	758	1	4	0	8	31	0	0	100
random	1	1	32	45285	3	3	3	1	0	904	1	4	0	24	32	0	0	100
random	1	1	33	46584	6	4	4	1	0	793	1	4	0	32	33	0	0	100
random	1	1	34	47809	4	2	2	1	0	797	1	4	0	16	34	0	0	100
random	1	1	35	49454	3	4	4	1	0	719	1	4	0	32	35	0	0	100
random	1	1	36	50528	1	1	1	1	0	714	1	4	0	8	36	0	0	100
random	1	1	37	52290	3	4	4	1	0	775	1	4	0	32	37	0	0	100
random	1	1	38	53779	5	3	3	1	0	872	1	4	0	24	38	0	0	100
random	1	1	39	55137	6	1	1	1	0	639	1	4	0	8	39	0	0	100
random	1	1	40	56386	1	2	2	1	0	690	1	4	0	16	40	0	0	100
random	1	1	41	57449	2	3	3	1	0	829	1	4	0	24	41	0	0	100
random	1	1	42	59131	4	4	4	1	0	597	1	4	0	32	42	0	0	100
random	1	1	43	60697	1	2	2	1	0	739	1	4	0	16	43	0	0	100
random	1	1	44	61828	6	3	3	1	0	715	1	4	0	24	44	0	0	100
random	1	1	45	63205	3	1	1	1	0	729	1	4	0	8	45	0	0	100
random	1	1	46	64292	4	4	4	1	0	691	1	4	0	32	46	0	0	100
random	1	1	47	65319	2	2	2	1	0	976	1	4	0	16	47	0	0	100
random	1	1	48	67079	5	1	1	1	0	765	1	4	0	8	48	0	0	100
random	1	1	49	68763	2	3	3	1	0	853	1	4	0	24	49	0	0	100
random	1	1	50	70261	3	1	1	1	0	766	1	4	0	8	50	0	0	100
random	1	1	51	72011	1	4	4	1	0	644	1	4	0	32	51	0	0	100
random	1	1	52	73030	5	3	3	1	0	929	1	4	0	24	52	0	0	100
random	1	1	53	74462	3	2	2	1	0	900	1	4	0	16	53	0	0	100
random	1	1	54	76035	6	4	4	1	0	729	1	4	0	32	54	0	0	100
random	1	1	55	77419	4	2	2	1	0	1319	1	4	0	16	55	0	0	100
random	1	1	56	79651	1	1	1	1	0	696	1	4	0	8	56	0	0	100
random	1	1	57	80746	5	4	4	1	0	634	1	4	0	32	57	0	0	100
random	1	1	58	82120	2	1	1	1	0	600	1	4	0	8	58	0	0	100
random	1	1	59	83630	6	2	2	1	0	992	1	4	0	16	59	0	0	100
random	1	1	60	84914	4	3	3	1	0	818	1	4	0	24	60	0	0	100
random	1	1	61	86340	1	2	2	1	0	709	1	4	0	16	61	0	0	100
random	1	1	62	87536	6	4	4	1	0	538	1	4	0	32	62	0	0	100
random	1	1	63	88916	4	1	1	1	0	400	1	4	0	8	63	0	0	100
random	1	1	64	90298	2	2	2	1	0	829	1	4	0	16	64	0	0	100
random	1	1	65	91698	4	3	3	1	0	498	1	4	0	24	65	0	0	100
random	1	1	66	92682	3	1	1	1	0	601	1	4	0	8	66	0	0	100
random	1	1	67	94207	1	3	3	1	0	807	1	4	0	24	67	0	0	100
random	1	1	68	95622	5	4	4	1	0	692	1	4	0	32	68	0	0	100
random	1	1	69	97138	2	2	2	1	0	716	1	4	0	16	69	0	0	100
random	1	1	70	98173	3	1	1	1	0	664	1	4	0	8	70	0	0	100
random	1	1	71	99218	5	4	4	1	0	604	1	4	0	32	71	0	0	100
random	1	1	72	100405	6	3	3	1	0	761	1	4	0	24	72	0	0	100
random	1	1	73	102045	2	1	1	1	0	684	1	4	0	8	73	0	0	100
random	1	1	74	103638	5	3	3	1	0	752	1	4	0	24	74	0	0	100
random	1	1	75	105105	1	4	4	1	0	586	1	4	0	32	75	0	0	100
random	1	1	76	106060	6	2	2	1	0	578	1	4	0	16	76	0	0	100
random	1	1	77	107622	2	1	1	1	0	696	1	4	0	8	77	0	0	100
random	1	1	78	108937	4	4	4	1	0	880	1	4	0	32	78	0	0	100
random	1	1	79	110543	3	2	2	1	0	708	1	4	0	16	79	0	0	100
random	1	1	80	112008	4	3	3	1	0	646	1	4	0	24	80	0	0	100
random	1	1	81	113135	1	4	4	1	0	486	1	4	0	32	81	0	0	100
random	1	1	82	114188	5	1	1	1	0	418	1	4	0	8	82	0	0	100
random	1	1	83	115181	3	2	2	1	0	919	1	4	0	16	83	0	0	100
random	1	1	84	116685	6	3	3	1	0	456	1	4	0	24	84	0	0	100
random	1	1	85	118185	3	2	2	1	0	872	1	4	0	16	85	0	0	100
random	1	1	86	119428	1	3	3	1	0	604	1	4	0	24	86	0	0	100
random	1	1	87	120841	4	4	4	1	0	535	1	4	0	32	87	0	0	100
random	1	1	88	122333	2	1	1	1	0	680	1	4	0	8	88	0	0	100
random	1	1	89	123364	6	4	4	1	0	645	1	4	0	32	89	0	0	100
random	1	1	90	124725	3	3	3	1	0	707	1	4	0	24	90	0	0	100
random	1	1	91	125723	5	4	4	1	0	681	1	4	0	32	91	0	0	100
random	1	1	92	126908	1	2	2	1	0	759	1	4	0	16	92	0	0	100
random	1	1	93	128638	5	1	1	1	0	414	1	4	0	8	93	0	0	100
random	1	1	94	130035	4	3	3	1	0	722	1	4	0	24	94	0	0	100
random	1	1	95	131687	6	1	1	2	0	740	2	4	0	8	95	0	0	100
random	1	1	96	133437	2	2	2	1	0	938	1	4	0	16	96	0	0	100
random	1	1	97	135494	4	3	3	1	0	1027	1	4	0	24	97	0	0	100
random	1	1	98	137380	3	2	2	1	0	755	1	4	0	16	98	0	0	100
random	1	1	99	139089	6	3	3	1	0	963	1	4	0	24	99	0	0	100
random	1	1	100	140950	1	4	4	1	0	444	1	4	0	32	100	0	0	100
random	1	1	101	142249	4	1	1	1	0	621	1	4	0	8	101	0	0	100
random	1	1	102	143200	5	2	2	1	0	1021	1	4	0	16	102	0	0	100
random	1	1	103	144937	2	4	4	1	0	675	1	4	0	32	103	0	0	100
random	1	1	104	146462	3	1	1	1	0	731	1	4	0	8	104	0	0	100
random	1	1	105	148064	1	3	3	1	0	727	1	4	0	24	105	0	0	100
random	1	1	106	149512	2	2	2	1	0	697	1	4	0	16	106	0	0	100
random	1	1	107	150770	5	4	4	1	0	764	1	4	0	32	107	0	0	100
random	1	1	108	152392	6	1	1	1	0	647	1	4	0	8	108	0	0	100
random	1	1	109	153655	5	4	4	1	0	690	1	4	0	32	109	0	0	100
random	1	1	110	155220	6	3	3	1	0	920	1	4	0	24	110	0	0	100
random	1	1	111	156600	2	2	2	1	0	629	1	4	0	16	111	0	0	100
random	1	1	112	158206	3	1	1	1	0	673	1	4	0	8	112	0	0	100
random	1	1	113	159393	1	2	2	1	0	743	1	4	0	16	113	0	0	100
random	1	1	114	160768	2	3	3	1	0	605	1	4	0	24	114	0	0	100
random	1	1	115	161836	3	1	1	1	0	639	1	4	0	8	115	0	0	100
random	1	1	116	162884	4	4	4	1	0	555	1	4	0	32	116	0	0	100
random	1	1	117	164417	6	1	1	1	0	746	1	4	0	8	117	0	0	100
random	1	1	118	165724	5	3	3	1	0	931	1	4	0	24	118	0	0	100
random	1	1	119	167671	1	4	4	1	0	592	1	4	0	32	119	0	0	100
random	1	1	120	168684	4	2	2	1	0	581	1	4	0	16	120	0	0	100
fixed	2	1	1	170210	4	1	1	1	0	684	1	4	0	40	1	0	0	100
fixed	2	1	2	171329	1	2	2	1	0	774	1	4	0	48	2	0	0	100
fixed	2	1	3	172783	6	4	4	1	0	583	1	4	0	64	3	0	0	100
fixed	2	1	4	173778	2	1	1	1	0	694	1	4	0	40	4	0	0	100
fixed	2	1	5	175113	5	3	3	1	0	669	1	4	0	56	5	0	0	100
fixed	2	1	6	176162	6	4	4	1	0	688	1	4	0	64	6	0	0	100
fixed	2	1	7	177197	3	1	1	1	0	588	1	4	0	40	7	0	0	100
fixed	2	1	8	178434	2	3	3	1	0	1088	1	4	0	56	8	0	0	100
fixed	2	1	9	180057	3	2	2	1	0	531	1	4	0	48	9	0	0	100
fixed	2	1	10	181238	1	4	4	1	0	577	1	4	0	64	10	0	0	100
fixed	2	1	11	182638	5	2	2	1	0	1014	1	4	0	48	11	0	0	100
fixed	2	1	12	184066	4	3	3	1	0	714	1	4	0	56	12	0	0	100
fixed	2	2	1	185851	4	1	1	1	0	766	1	4	0	40	13	0	0	100
fixed	2	2	2	187414	1	2	2	1	0	836	1	4	0	48	14	0	0	100
fixed	2	2	3	188572	6	4	4	1	0	571	1	4	0	64	15	0	0	100
fixed	2	2	4	189939	2	1	1	1	0	865	1	4	0	40	16	0	0	100
fixed	2	2	5	191560	5	3	3	1	0	653	1	4	0	56	17	0	0	100
fixed	2	2	6	192908	6	4	4	1	0	611	1	4	0	64	18	0	0	100
fixed	2	2	7	194041	3	1	1	1	0	739	1	4	0	40	19	0	0	100
fixed	2	2	8	195804	2	3	3	1	0	825	1	4	0	56	20	0	0	100
fixed	2	2	9	197633	3	2	2	1	0	595	1	4	0	48	21	0	0	100
fixed	2	2	10	198700	1	4	4	1	0	438	1	4	0	64	22	0	0	100
fixed	2	2	11	199783	5	2	2	1	0	800	1	4	0	48	23	0	0	100
fixed	2	2	12	201516	4	3	3	1	0	767	1	4	0	56	24	0	0	100
fixed	2	3	1	203127	4	1	1	1	0	746	1	4	0	40	25	0	0	100
fixed	2	3	2	204692	1	2	2	1	0	672	1	4	0	48	26	0	0	100
fixed	2	3	3	205669	6	4	4	1	0	615	1	4	0	64	27	0	0	100
fixed	2	3	4	206855	2	1	1	1	0	660	1	4	0	40	28	0	0	100
fixed	2	3	5	208419	5	3	3	1	0	691	1	4	0	56	29	0	0	100
fixed	2	3	6	209552	6	4	4	1	0	738	1	4	0	64	30	0	0	100
fixed	2	3	7	211264	3	1	1	1	0	682	1	4	0	40	31	0	0	100
fixed	2	3	8	212928	2	3	3	2	0	891	2	4	0	56	32	0	0	100
fixed	2	3	9	214287	3	2	2	2	0	905	2	4	0	48	33	0	0	100
fixed	2	3	10	215717	1	4	4	1	0	733	1	4	0	64	34	0	0	100
fixed	2	3	11	217274	5	2	2	1	0	899	1	4	0	48	35	0	0	100
fixed	2	3	12	218499	4	3	3	1	0	903	1	4	0	56	36	0	0	100
fixed	2	4	1	220118	4	1	1	1	0	802	1	4	0	40	37	0	0	100
fixed	2	4	2	221695	1	2	2	1	0	912	1	4	0	48	38	0	0	100
fixed	2	4	3	223049	6	4	4	1	0	711	1	4	0	64	39	0	0	100
fixed	2	4	4	224537	2	1	1	1	0	744	1	4	0	40	40	0	0	100
fixed	2	4	5	226065	5	3	3	1	0	1239	1	4	0	56	41	0	0	100
fixed	2	4	6	228055	6	4	4	1	0	770	1	4	0	64	42	0	0	100
fixed	2	4	7	229124	3	1	1	1	0	1117	1	4	0	40	43	0	0	100
fixed	2	4	8	230654	2	3	3	1	0	853	1	4	0	56	44	0	0	100
fixed	2	4	9	231943	3	2	2	1	0	694	1	4	0	48	45	0	0	100
fixed	2	4	10	233385	1	4	4	1	0	745	1	4	0	64	46	0	0	100
fixed	2	4	11	234586	5	2	2	1	0	870	1	4	0	48	47	0	0	100
fixed	2	4	12	236069	4	3	3	1	0	903	1	4	0	56	48	0	0	100
fixed	2	5	1	237578	4	1	1	1	0	807	1	4	0	40	49	0	0	100
fixed	2	5	2	239353	1	2	2	1	0	732	1	4	0	48	50	0	0	100
fixed	2	5	3	241082	6	4	4	1	0	627	1	4	0	64	51	0	0	100
fixed	2	5	4	242244	2	1	1	1	0	730	1	4	0	40	52	0	0	100
fixed	2	5	5	243951	5	3	3	1	0	793	1	4	0	56	53	0	0	100
fixed	2	5	6	245535	6	4	4	1	0	694	1	4	0	64	54	0	0	100
fixed	2	5	7	246599	3	1	1	1	0	705	1	4	0	40	55	0	0	100
fixed	2	5	8	247882	2	3	3	1	0	995	1	4	0	56	56	0	0	100
fixed	2	5	9	249696	3	2	2	1	0	638	1	4	0	48	57	0	0	100
fixed	2	5	10	251094	1	4	4	1	0	602	1	4	0	64	58	0	0	100
fixed	2	5	11	252326	5	2	2	1	0	943	1	4	0	48	59	0	0	100
fixed	2	5	12	254015	4	3	3	1	0	623	1	4	0	56	60	0	0	100
fixed	2	6	1	255722	4	1	1	1	0	998	1	4	0	40	61	0	0	100
fixed	2	6	2	257625	1	2	2	1	0	750	1	4	0	48	62	0	0	100
fixed	2	6	3	259076	6	4	4	1	0	641	1	4	0	64	63	0	0	100
fixed	2	6	4	260650	2	1	1	1	0	726	1	4	0	40	64	0	0	100
fixed	2	6	5	262226	5	3	3	1	0	859	1	4	0	56	65	0	0	100
fixed	2	6	6	264007	6	4	4	1	0	719	1	4	0	64	66	0	0	100
fixed	2	6	7	265500	3	1	1	1	0	712	1	4	0	40	67	0	0	100
fixed	2	6	8	267143	2	3	3	1	0	827	1	4	0	56	68	0	0	100
fixed	2	6	9	268625	3	2	2	1	0	692	1	4	0	48	69	0	0	100
fixed	2	6	10	269935	1	4	4	1	0	629	1	4	0	64	70	0	0	100
fixed	2	6	11	271417	5	2	2	1	0	814	1	4	0	48	71	0	0	100
fixed	2	6	12	273158	4	3	3	1	0	740	1	4	0	56	72	0	0	100
fixed	2	7	1	274903	4	1	1	1	0	746	1	4	0	40	73	0	0	100
fixed	2	7	2	276455	1	2	2	1	0	800	1	4	0	48	74	0	0	100
fixed	2	7	3	277929	6	4	4	1	0	578	1	4	0	64	75	0	0	100
fixed	2	7	4	279372	2	1	1	1	0	653	1	4	0	40	76	0	0	100
fixed	2	7	5	280838	5	3	3	1	0	783	1	4	0	56	77	0	0	100
fixed	2	7	6	282424	6	4	4	1	0	628	1	4	0	64	78	0	0	100
fixed	2	7	7	284035	3	1	1	2	0	736	2	4	0	40	79	0	0	100
fixed	2	7	8	285195	2	3	3	1	0	1006	1	4	0	56	80	0	0	100
fixed	2	7	9	286751	3	2	2	1	0	828	1	4	0	48	81	0	0	100
fixed	2	7	10	288304	1	4	4	1	0	650	1	4	0	64	82	0	0	100
fixed	2	7	11	289420	5	2	2	2	0	1875	2	4	0	48	83	0	0	100
fixed	2	7	12	291984	4	3	3	1	0	879	1	4	0	56	84	0	0	100
fixed	2	8	1	293632	4	1	1	1	0	817	1	4	0	40	85	0	0	100
fixed	2	8	2	295436	1	2	2	1	0	868	1	4	0	48	86	0	0	100
fixed	2	8	3	297311	6	4	4	1	0	717	1	4	0	64	87	0	0	100
fixed	2	8	4	298977	2	1	1	1	0	782	1	4	0	40	88	0	0	100
fixed	2	8	5	300553	5	3	3	1	0	804	1	4	0	56	89	0	0	100
fixed	2	8	6	301723	6	4	4	1	0	714	1	4	0	64	90	0	0	100
fixed	2	8	7	303384	3	1	1	1	0	636	1	4	0	40	91	0	0	100
fixed	2	8	8	304762	2	3	3	1	0	985	1	4	0	56	92	0	0	100
fixed	2	8	9	306158	3	2	2	1	0	503	1	4	0	48	93	0	0	100
fixed	2	8	10	307048	1	4	4	1	0	504	1	4	0	64	94	0	0	100
fixed	2	8	11	307939	5	2	2	1	0	747	1	4	0	48	95	0	0	100
fixed	2	8	12	308978	4	3	3	1	0	711	1	4	0	56	96	0	0	100
fixed	2	9	1	310757	4	1	1	1	0	723	1	4	0	40	97	0	0	100
fixed	2	9	2	312256	1	2	2	1	0	900	1	4	0	48	98	0	0	100
fixed	2	9	3	313757	6	4	4	1	0	605	1	4	0	64	99	0	0	100
fixed	2	9	4	314953	2	1	1	1	0	690	1	4	0	40	100	0	0	100
fixed	2	9	5	316194	5	3	3	1	0	765	1	4	0	56	101	0	0	100
fixed	2	9	6	317673	6	4	4	1	0	606	1	4	0	64	102	0	0	100
fixed	2	9	7	319274	3	1	1	1	0	795	1	4	0	40	103	0	0	100
fixed	2	9	8	320790	2	3	3	1	0	907	1	4	0	56	104	0	0	100
fixed	2	9	9	322116	3	2	2	1	0	794	1	4	0	48	105	0	0	100
fixed	2	9	10	323501	1	4	4	1	0	608	1	4	0	64	106	0	0	100
fixed	2	9	11	324958	5	2	2	1	0	730	1	4	0	48	107	0	0	100
fixed	2	9	12	326394	4	3	3	1	0	973	1	4	0	56	108	0	0	100
fixed	2	10	1	328067	4	1	1	1	0	654	1	4	0	40	109	0	0	100
fixed	2	10	2	329264	1	2	2	1	0	900	1	4	0	48	110	0	0	100
fixed	2	10	3	330466	6	4	4	1	0	681	1	4	0	64	111	0	0	100
fixed	2	10	4	331984	2	1	1	1	0	785	1	4	0	40	112	0	0	100
fixed	2	10	5	333411	5	3	3	1	0	1620	1	4	0	56	113	0	0	100
fixed	2	10	6	335914	6	4	4	1	0	650	1	4	0	64	114	0	0	100
fixed	2	10	7	337305	3	1	1	1	0	791	1	4	0	40	115	0	0	100
fixed	2	10	8	338667	2	3	3	1	0	790	1	4	0	56	116	0	0	100
fixed	2	10	9	340170	3	2	2	1	0	630	1	4	0	48	117	0	0	100
fixed	2	10	10	341224	1	4	4	1	0	505	1	4	0	64	118	0	0	100
fixed	2	10	11	342399	5	2	2	1	0	791	1	4	0	48	119	0	0	100
fixed	2	10	12	344137	4	3	3	1	0	773	1	4	0	56	120	0	0	100
fixed	3	1	1	346393	4	1	1	1	0	766	1	4	0	72	1	0	0	100
fixed	3	1	2	347937	1	2	2	1	0	661	1	4	0	80	2	0	0	100
fixed	3	1	3	349453	6	4	4	1	0	684	1	4	0	96	3	0	0	100
fixed	3	1	4	350868	2	1	1	1	0	729	1	4	0	72	4	0	0	100
fixed	3	1	5	352462	5	3	3	1	0	845	1	4	0	88	5	0	0	100
fixed	3	1	6	354284	6	4	4	1	0	624	1	4	0	96	6	0	0	100
fixed	3	1	7	355656	3	1	1	1	0	646	1	4	0	72	7	0	0	100
fixed	3	1	8	357226	2	3	3	1	0	779	1	4	0	88	8	0	0	100
fixed	3	1	9	358328	3	2	2	1	0	661	1	4	0	80	9	0	0	100
fixed	3	1	10	359986	1	4	4	1	0	671	1	4	0	96	10	0	0	100
fixed	3	1	11	361239	5	2	2	1	0	802	1	4	0	80	11	0	0	100
fixed	3	1	12	362615	4	3	3	1	0	607	1	4	0	88	12	0	0	100
fixed	3	2	1	364239	4	1	1	1	0	778	1	4	0	72	13	0	0	100
fixed	3	2	2	365580	1	2	2	1	0	762	1	4	0	80	14	0	0	100
fixed	3	2	3	366928	6	4	4	1	0	600	1	4	0	96	15	0	0	100
fixed	3	2	4	368513	2	1	1	1	0	709	1	4	0	72	16	0	0	100
fixed	3	2	5	369800	5	3	3	1	0	678	1	4	0	88	17	0	0	100
fixed	3	2	6	371133	6	4	4	1	0	583	1	4	0	96	18	0	0	100
fixed	3	2	7	372652	3	1	1	1	0	686	1	4	0	72	19	0	0	100
fixed	3	2	8	373901	2	3	3	1	0	681	1	4	0	88	20	0	0	100
fixed	3	2	9	374915	3	2	2	1	0	654	1	4	0	80	21	0	0	100
fixed	3	2	10	376009	1	4	4	1	0	656	1	4	0	96	22	0	0	100
fixed	3	2	11	377427	5	2	2	1	0	1748	1	4	0	80	23	0	0	100
fixed	3	2	12	379645	4	3	3	1	0	702	1	4	0	88	24	0	0	100
fixed	3	3	1	381214	4	1	1	2	0	1027	2	4	0	72	25	0	0	100
fixed	3	3	2	382537	1	2	2	1	0	915	1	4	0	80	26	0	0	100
fixed	3	3	3	384467	6	4	4	1	0	714	1	4	0	96	27	0	0	100
fixed	3	3	4	386081	2	1	1	1	0	1405	1	4	0	72	28	0	0	100
fixed	3	3	5	388291	5	3	3	1	0	888	1	4	0	88	29	0	0	100
fixed	3	3	6	390030	6	4	4	1	0	622	1	4	0	96	30	0	0	100
fixed	3	3	7	391153	3	1	1	1	0	830	1	4	0	72	31	0	0	100
fixed	3	3	8	392488	2	3	3	1	0	742	1	4	0	88	32	0	0	100
fixed	3	3	9	393696	3	2	2	1	0	659	1	4	0	80	33	0	0	100
fixed	3	3	10	395239	1	4	4	1	0	665	1	4	0	96	34	0	0	100
fixed	3	3	11	396920	5	2	2	1	0	770	1	4	0	80	35	0	0	100
fixed	3	3	12	398587	4	3	3	1	0	859	1	4	0	88	36	0	0	100
fixed	3	4	1	400695	4	1	1	1	0	802	1	4	0	72	37	0	0	100
fixed	3	4	2	401877	1	2	2	1	0	808	1	4	0	80	38	0	0	100
fixed	3	4	3	403105	6	4	4	1	0	516	1	4	0	96	39	0	0	100
fixed	3	4	4	404546	2	1	1	1	0	687	1	4	0	72	40	0	0	100
fixed	3	4	5	405981	5	3	3	1	0	1026	1	4	0	88	41	0	0	100
fixed	3	4	6	407300	6	4	4	1	0	714	1	4	0	96	42	0	0	100
fixed	3	4	7	408937	3	1	1	1	0	749	1	4	0	72	43	0	0	100
fixed	3	4	8	410556	2	3	3	1	0	681	1	4	0	88	44	0	0	100
fixed	3	4	9	411981	3	2	2	1	0	724	1	4	0	80	45	0	0	100
fixed	3	4	10	413148	1	4	4	1	0	483	1	4	0	96	46	0	0	100
fixed	3	4	11	414501	5	2	2	1	0	817	1	4	0	80	47	0	0	100
fixed	3	4	12	415920	4	3	3	1	0	389	1	4	0	88	48	0	0	100
fixed	3	5	1	416968	4	1	1	1	0	649	1	4	0	72	49	0	0	100
fixed	3	5	2	418248	1	2	2	1	0	859	1	4	0	80	50	0	0	100
fixed	3	5	3	419701	6	4	4	1	0	525	1	4	0	96	51	0	0	100
fixed	3	5	4	420598	2	1	1	1	0	743	1	4	0	72	52	0	0	100
fixed	3	5	5	421923	5	3	3	1	0	935	1	4	0	88	53	0	0	100
fixed	3	5	6	423161	6	4	4	1	0	627	1	4	0	96	54	0	0	100
fixed	3	5	7	424812	3	1	1	1	0	797	1	4	0	72	55	0	0	100
fixed	3	5	8	426484	2	3	3	1	0	766	1	4	0	88	56	0	0	100
fixed	3	5	9	428221	3	2	2	1	0	661	1	4	0	80	57	0	0	100
fixed	3	5	10	429786	1	4	4	1	0	754	1	4	0	96	58	0	0	100
fixed	3	5	11	431373	5	2	2	1	0	1255	1	4	0	80	59	0	0	100
fixed	3	5	12	433581	4	3	3	1	0	801	1	4	0	88	60	0	0	100
fixed	3	6	1	435129	4	1	1	1	0	664	1	4	0	72	61	0	0	100
fixed	3	6	2	436795	1	2	2	1	0	785	1	4	0	80	62	0	0	100
fixed	3	6	3	438241	6	4	4	1	0	620	1	4	0	96	63	0	0	100
fixed	3	6	4	439775	2	1	1	1	0	627	1	4	0	72	64	0	0	100
fixed	3	6	5	441128	5	3	3	1	0	769	1	4	0	88	65	0	0	100
fixed	3	6	6	442555	6	4	4	1	0	581	1	4	0	96	66	0	0	100
fixed	3	6	7	443678	3	1	1	1	0	710	1	4	0	72	67	0	0	100
fixed	3	6	8	445016	2	3	3	1	0	701	1	4	0	88	68	0	0	100
fixed	3	6	9	446334	3	2	2	1	0	773	1	4	0	80	69	0	0	100
fixed	3	6	10	447928	1	4	4	1	0	569	1	4	0	96	70	0	0	100
fixed	3	6	11	449389	5	2	2	1	0	884	1	4	0	80	71	0	0	100
fixed	3	6	12	451193	4	3	3	1	0	383	1	4	0	88	72	0	0	100
fixed	3	7	1	452672	4	1	1	1	0	736	1	4	0	72	73	0	0	100
fixed	3	7	2	454144	1	2	2	1	0	1114	1	4	0	80	74	0	0	100
fixed	3	7	3	455571	6	4	4	1	0	678	1	4	0	96	75	0	0	100
fixed	3	7	4	456699	2	1	1	2	0	1214	2	4	0	72	76	0	0	100
fixed	3	7	5	458364	5	3	3	1	0	952	1	4	0	88	77	0	0	100
fixed	3	7	6	459957	6	4	4	1	0	700	1	4	0	96	78	0	0	100
fixed	3	7	7	461505	3	1	1	1	0	827	1	4	0	72	79	0	0	100
fixed	3	7	8	463142	2	3	3	1	0	837	1	4	0	88	80	0	0	100
fixed	3	7	9	464390	3	2	2	1	0	648	1	4	0	80	81	0	0	100
fixed	3	7	10	465539	1	4	4	1	0	744	1	4	0	96	82	0	0	100
fixed	3	7	11	466911	5	2	2	1	0	1238	1	4	0	80	83	0	0	100
fixed	3	7	12	468623	4	3	3	1	0	669	1	4	0	88	84	0	0	100
fixed	3	8	1	470165	4	1	1	1	0	668	1	4	0	72	85	0	0	100
fixed	3	8	2	471242	1	2	2	1	0	758	1	4	0	80	86	0	0	100
fixed	3	8	3	472423	6	4	4	1	0	620	1	4	0	96	87	0	0	100
fixed	3	8	4	473862	2	1	1	1	0	695	1	4	0	72	88	0	0	100
fixed	3	8	5	475343	5	3	3	1	0	688	1	4	0	88	89	0	0	100
fixed	3	8	6	476996	6	4	4	1	0	650	1	4	0	96	90	0	0	100
fixed	3	8	7	478396	3	1	1	1	0	519	1	4	0	72	91	0	0	100
fixed	3	8	8	479895	2	3	3	1	0	1136	1	4	0	88	92	0	0	100
fixed	3	8	9	482000	3	2	2	1	0	783	1	4	0	80	93	0	0	100
fixed	3	8	10	483763	1	4	4	1	0	660	1	4	0	96	94	0	0	100
fixed	3	8	11	485078	5	2	2	1	0	756	1	4	0	80	95	0	0	100
fixed	3	8	12	486536	4	3	3	1	0	494	1	4	0	88	96	0	0	100
fixed	3	9	1	488026	4	1	1	1	0	735	1	4	0	72	97	0	0	100
fixed	3	9	2	489764	1	2	2	1	0	725	1	4	0	80	98	0	0	100
fixed	3	9	3	491406	6	4	4	1	0	632	1	4	0	96	99	0	0	100
fixed	3	9	4	492551	2	1	1	1	0	615	1	4	0	72	100	0	0	100
fixed	3	9	5	493752	5	3	3	1	0	717	1	4	0	88	101	0	0	100
fixed	3	9	6	495204	6	4	4	1	0	615	1	4	0	96	102	0	0	100
fixed	3	9	7	496694	3	1	1	1	0	704	1	4	0	72	103	0	0	100
fixed	3	9	8	498134	2	3	3	1	0	667	1	4	0	88	104	0	0	100
fixed	3	9	9	499659	3	2	2	1	0	763	1	4	0	80	105	0	0	100
fixed	3	9	10	500976	1	4	4	1	0	715	1	4	0	96	106	0	0	100
fixed	3	9	11	502486	5	2	2	1	0	867	1	4	0	80	107	0	0	100
fixed	3	9	12	503995	4	3	3	1	0	635	1	4	0	88	108	0	0	100
fixed	3	10	1	505352	4	1	1	1	0	713	1	4	0	72	109	0	0	100
fixed	3	10	2	506765	1	2	2	1	0	718	1	4	0	80	110	0	0	100
fixed	3	10	3	508355	6	4	4	1	0	747	1	4	0	96	111	0	0	100
fixed	3	10	4	510011	2	1	1	1	0	940	1	4	0	72	112	0	0	100
fixed	3	10	5	511799	5	3	3	1	0	816	1	4	0	88	113	0	0	100
fixed	3	10	6	513309	6	4	4	1	0	640	1	4	0	96	114	0	0	100
fixed	3	10	7	514988	3	1	1	1	0	602	1	4	0	72	115	0	0	100
fixed	3	10	8	516190	2	3	3	1	0	783	1	4	0	88	116	0	0	100
fixed	3	10	9	517617	3	2	2	1	0	570	1	4	0	80	117	0	0	100
fixed	3	10	10	518664	1	4	4	1	0	622	1	4	0	96	118	0	0	100
fixed	3	10	11	519757	5	2	2	1	0	783	1	4	0	80	119	0	0	100
fixed	3	10	12	521079	4	3	3	1	0	511	1	4	0	88	120	0	0	100
fixed	4	1	1	617140	4	1	1	1	0	1010	1	4	0	104	1	0	0	100
fixed	4	1	2	619061	1	2	2	1	0	1026	1	4	0	112	2	0	0	100
fixed	4	1	3	620700	6	4	4	1	0	604	1	4	0	128	3	0	0	100
fixed	4	1	4	622315	2	1	1	1	0	696	1	4	0	104	4	0	0	100
fixed	4	1	5	623860	5	3	3	2	0	1230	2	4	0	120	5	0	0	100
fixed	4	1	6	625566	6	4	4	1	0	726	1	4	0	128	6	0	0	100
fixed	4	1	7	627266	3	1	1	1	0	893	1	4	0	104	7	0	0	100
fixed	4	1	8	629203	2	3	3	1	0	899	1	4	0	120	8	0	0	100
fixed	4	1	9	631067	3	2	2	1	0	1053	1	4	0	112	9	0	0	100
fixed	4	1	10	632893	1	4	4	1	0	632	1	4	0	128	10	0	0	100
fixed	4	1	11	634003	5	2	2	1	0	864	1	4	0	112	11	0	0	100
fixed	4	1	12	635728	4	3	3	1	0	599	1	4	0	120	12	0	0	100
fixed	4	2	1	637426	4	1	1	1	0	799	1	4	0	104	13	0	0	100
fixed	4	2	2	638741	1	2	2	1	0	800	1	4	0	112	14	0	0	100
fixed	4	2	3	639964	6	4	4	1	0	612	1	4	0	128	15	0	0	100
fixed	4	2	4	641450	2	1	1	1	0	797	1	4	0	104	16	0	0	100
fixed	4	2	5	642542	5	3	3	1	0	1095	1	4	0	120	17	0	0	100
fixed	4	2	6	644530	6	4	4	1	0	762	1	4	0	128	18	0	0	100
fixed	4	2	7	646286	3	1	1	1	0	752	1	4	0	104	19	0	0	100
fixed	4	2	8	647543	2	3	3	1	0	819	1	4	0	120	20	0	0	100
fixed	4	2	9	649269	3	2	2	1	0	937	1	4	0	112	21	0	0	100
fixed	4	2	10	651125	1	4	4	1	0	699	1	4	0	128	22	0	0	100
fixed	4	2	11	652605	5	2	2	1	0	853	1	4	0	112	23	0	0	100
fixed	4	2	12	654074	4	3	3	1	0	630	1	4	0	120	24	0	0	100
fixed	4	3	1	655771	4	1	1	1	0	1070	1	4	0	104	25	0	0	100
fixed	4	3	2	657197	1	2	2	1	0	962	1	4	0	112	26	0	0	100
fixed	4	3	3	659026	6	4	4	1	0	660	1	4	0	128	27	0	0	100
fixed	4	3	4	660716	2	1	1	1	0	749	1	4	0	104	28	0	0	100
fixed	4	3	5	662466	5	3	3	1	0	963	1	4	0	120	29	0	0	100
fixed	4	3	6	664439	6	4	4	1	0	736	1	4	0	128	30	0	0	100
fixed	4	3	7	665588	3	1	1	1	0	831	1	4	0	104	31	0	0	100
fixed	4	3	8	666804	2	3	3	1	0	859	1	4	0	120	32	0	0	100
fixed	4	3	9	668033	3	2	2	1	0	703	1	4	0	112	33	0	0	100
fixed	4	3	10	669173	1	4	4	1	0	663	1	4	0	128	34	0	0	100
fixed	4	3	11	670607	5	2	2	1	0	1106	1	4	0	112	35	0	0	100
fixed	4	3	12	672758	4	3	3	1	0	879	1	4	0	120	36	0	0	100
fixed	4	4	1	674617	4	1	1	1	0	888	1	4	0	104	37	0	0	100
fixed	4	4	2	676316	1	2	2	1	0	824	1	4	0	112	38	0	0	100
fixed	4	4	3	677874	6	4	4	1	0	678	1	4	0	128	39	0	0	100
fixed	4	4	4	679154	2	1	1	1	0	848	1	4	0	104	40	0	0	100
fixed	4	4	5	680724	5	3	3	1	0	958	1	4	0	120	41	0	0	100
fixed	4	4	6	682314	6	4	4	1	0	650	1	4	0	128	42	0	0	100
fixed	4	4	7	683417	3	1	1	1	0	836	1	4	0	104	43	0	0	100
fixed	4	4	8	685063	2	3	3	1	0	846	1	4	0	120	44	0	0	100
fixed	4	4	9	686475	3	2	2	1	0	626	1	4	0	112	45	0	0	100
fixed	4	4	10	687985	1	4	4	1	0	658	1	4	0	128	46	0	0	100
fixed	4	4	11	689489	5	2	2	1	0	914	1	4	0	112	47	0	0	100
fixed	4	4	12	691257	4	3	3	1	0	839	1	4	0	120	48	0	0	100
fixed	4	5	1	692661	4	1	1	1	0	684	1	4	0	104	49	0	0	100
fixed	4	5	2	693925	1	2	2	1	0	783	1	4	0	112	50	0	0	100
fixed	4	5	3	695186	6	4	4	1	0	657	1	4	0	128	51	0	0	100
fixed	4	5	4	696381	2	1	1	1	0	719	1	4	0	104	52	0	0	100
fixed	4	5	5	697514	5	3	3	2	0	1470	2	4	0	120	53	0	0	100
fixed	4	5	6	700007	6	4	4	1	0	781	1	4	0	128	54	0	0	100
fixed	4	5	7	701563	3	1	1	1	0	1027	1	4	0	104	55	0	0	100
fixed	4	5	8	703178	2	3	3	1	0	871	1	4	0	120	56	0	0	100
fixed	4	5	9	704692	3	2	2	1	0	734	1	4	0	112	57	0	0	100
fixed	4	5	10	706091	1	4	4	1	0	667	1	4	0	128	58	0	0	100
fixed	4	5	11	707107	5	2	2	1	0	808	1	4	0	112	59	0	0	100
fixed	4	5	12	708770	4	3	3	2	0	929	2	4	0	120	60	0	0	100
fixed	4	6	1	710288	4	1	1	1	0	753	1	4	0	104	61	0	0	100
fixed	4	6	2	711711	1	2	2	1	0	885	1	4	0	112	62	0	0	100
fixed	4	6	3	713375	6	4	4	1	0	799	1	4	0	128	63	0	0	100
fixed	4	6	4	715166	2	1	1	1	0	930	1	4	0	104	64	0	0	100
fixed	4	6	5	716725	5	3	3	1	0	793	1	4	0	120	65	0	0	100
fixed	4	6	6	718491	6	4	4	1	0	686	1	4	0	128	66	0	0	100
fixed	4	6	7	720213	3	1	1	1	0	813	1	4	0	104	67	0	0	100
fixed	4	6	8	721859	2	3	3	1	0	815	1	4	0	120	68	0	0	100
fixed	4	6	9	723233	3	2	2	1	0	789	1	4	0	112	69	0	0	100
fixed	4	6	10	724652	1	4	4	1	0	753	1	4	0	128	70	0	0	100
fixed	4	6	11	726374	5	2	2	1	0	864	1	4	0	112	71	0	0	100
fixed	4	6	12	727780	4	3	3	1	0	732	1	4	0	120	72	0	0	100
fixed	4	7	1	729502	4	1	1	1	0	715	1	4	0	104	73	0	0	100
fixed	4	7	2	730670	1	2	2	1	0	1042	1	4	0	112	74	0	0	100
fixed	4	7	3	732367	6	4	4	1	0	466	1	4	0	128	75	0	0	100
fixed	4	7	4	733680	2	1	1	1	0	842	1	4	0	104	76	0	0	100
fixed	4	7	5	734970	5	3	3	1	0	820	1	4	0	120	77	0	0	100
fixed	4	7	6	736472	6	4	4	1	0	644	1	4	0	128	78	0	0	100
fixed	4	7	7	738109	3	1	1	1	0	735	1	4	0	104	79	0	0	100
fixed	4	7	8	739709	2	3	3	1	0	819	1	4	0	120	80	0	0	100
fixed	4	7	9	741345	3	2	2	1	0	694	1	4	0	112	81	0	0	100
fixed	4	7	10	742463	1	4	4	1	0	655	1	4	0	128	82	0	0	100
fixed	4	7	11	743970	5	2	2	1	0	830	1	4	0	112	83	0	0	100
fixed	4	7	12	745161	4	3	3	1	0	844	1	4	0	120	84	0	0	100
fixed	4	8	1	746610	4	1	1	1	0	687	1	4	0	104	85	0	0	100
fixed	4	8	2	747835	1	2	2	1	0	779	1	4	0	112	86	0	0	100
fixed	4	8	3	748947	6	4	4	1	0	652	1	4	0	128	87	0	0	100
fixed	4	8	4	750529	2	1	1	1	0	721	1	4	0	104	88	0	0	100
fixed	4	8	5	751716	5	3	3	1	0	687	1	4	0	120	89	0	0	100
fixed	4	8	6	752994	6	4	4	1	0	656	1	4	0	128	90	0	0	100
fixed	4	8	7	754080	3	1	1	1	0	866	1	4	0	104	91	0	0	100
fixed	4	8	8	755573	2	3	3	1	0	899	1	4	0	120	92	0	0	100
fixed	4	8	9	756886	3	2	2	1	0	595	1	4	0	112	93	0	0	100
fixed	4	8	10	757939	1	4	4	1	0	687	1	4	0	128	94	0	0	100
fixed	4	8	11	759538	5	2	2	1	0	1092	1	4	0	112	95	0	0	100
fixed	4	8	12	761459	4	3	3	1	0	818	1	4	0	120	96	0	0	100
fixed	4	9	1	763418	4	1	1	1	0	799	1	4	0	104	97	0	0	100
fixed	4	9	2	764664	1	2	2	1	0	1226	1	4	0	112	98	0	0	100
fixed	4	9	3	766743	6	4	4	1	0	1602	1	4	0	128	99	0	0	100
fixed	4	9	4	769094	2	1	1	1	0	791	1	4	0	104	100	0	0	100
fixed	4	9	5	770253	5	3	3	1	0	797	1	4	0	120	101	0	0	100
fixed	4	9	6	771605	6	4	4	1	0	788	1	4	0	128	102	0	0	100
fixed	4	9	7	772731	3	1	1	1	0	885	1	4	0	104	103	0	0	100
fixed	4	9	8	774374	2	3	3	1	0	759	1	4	0	120	104	0	0	100
fixed	4	9	9	776130	3	2	2	1	0	724	1	4	0	112	105	0	0	100
fixed	4	9	10	777337	1	4	4	1	0	633	1	4	0	128	106	0	0	100
fixed	4	9	11	778663	5	2	2	1	0	777	1	4	0	112	107	0	0	100
fixed	4	9	12	779870	4	3	3	1	0	758	1	4	0	120	108	0	0	100
fixed	4	10	1	781680	4	1	1	1	0	913	1	4	0	104	109	0	0	100
fixed	4	10	2	783142	1	2	2	1	0	700	1	4	0	112	110	0	0	100
fixed	4	10	3	784780	6	4	4	1	0	670	1	4	0	128	111	0	0	100
fixed	4	10	4	785754	2	1	1	1	0	757	1	4	0	104	112	0	0	100
fixed	4	10	5	787228	5	3	3	1	0	942	1	4	0	120	113	0	0	100
fixed	4	10	6	788923	6	4	4	1	0	639	1	4	0	128	114	0	0	100
fixed	4	10	7	790257	3	1	1	1	0	846	1	4	0	104	115	0	0	100
fixed	4	10	8	791627	2	3	3	1	0	772	1	4	0	120	116	0	0	100
fixed	4	10	9	792726	3	2	2	1	0	757	1	4	0	112	117	0	0	100
fixed	4	10	10	793785	1	4	4	1	0	753	1	4	0	128	118	0	0	100
fixed	4	10	11	795070	5	2	2	1	0	770	1	4	0	112	119	0	0	100
fixed	4	10	12	796183	4	3	3	1	0	731	1	4	0	120	120	0	0	100
fixed	5	1	1	798268	4	1	1	1	0	747	1	4	0	136	1	0	0	100
fixed	5	1	2	800012	1	2	2	1	0	737	1	4	0	144	2	0	0	100
fixed	5	1	3	801505	6	4	4	1	0	610	1	4	0	160	3	0	0	100
fixed	5	1	4	802654	2	1	1	1	0	801	1	4	0	136	4	0	0	100
fixed	5	1	5	804139	5	3	3	1	0	802	1	4	0	152	5	0	0	100
fixed	5	1	6	805728	6	4	4	1	0	703	1	4	0	160	6	0	0	100
fixed	5	1	7	807260	3	1	1	1	0	814	1	4	0	136	7	0	0	100
fixed	5	1	8	808515	2	3	3	1	0	729	1	4	0	152	8	0	0	100
fixed	5	1	9	809750	3	2	2	1	0	860	1	4	0	144	9	0	0	100
fixed	5	1	10	811047	1	4	4	1	0	702	1	4	0	160	10	0	0	100
fixed	5	1	11	812451	5	2	2	1	0	1234	1	4	0	144	11	0	0	100
fixed	5	1	12	814427	4	3	3	1	0	798	1	4	0	152	12	0	0	100
fixed	5	2	1	816382	4	1	1	1	0	675	1	4	0	136	13	0	0	100
fixed	5	2	2	817723	1	2	2	1	0	827	1	4	0	144	14	0	0	100
fixed	5	2	3	819252	6	4	4	1	0	722	1	4	0	160	15	0	0	100
fixed	5	2	4	820777	2	1	1	1	0	737	1	4	0	136	16	0	0	100
fixed	5	2	5	822492	5	3	3	1	0	889	1	4	0	152	17	0	0	100
fixed	5	2	6	823809	6	4	4	1	0	761	1	4	0	160	18	0	0	100
fixed	5	2	7	825206	3	1	1	1	0	742	1	4	0	136	19	0	0	100
fixed	5	2	8	826770	2	3	3	1	0	788	1	4	0	152	20	0	0	100
fixed	5	2	9	827908	3	2	2	1	0	707	1	4	0	144	21	0	0	100
fixed	5	2	10	829490	1	4	0	0	2	0	3	4	0	160	21	0	1	95
fixed	5	2	11	832900	5	2	2	1	0	912	1	4	0	144	22	0	1	96
fixed	5	2	12	834423	4	3	3	1	0	968	1	4	0	152	23	0	1	96
fixed	5	3	1	836214	4	1	1	1	0	771	1	4	0	136	24	0	1	96
fixed	5	3	2	837658	1	2	2	1	0	735	1	4	0	144	25	0	1	96
fixed	5	3	3	839273	6	4	0	0	2	0	3	4	0	160	25	0	2	93
fixed	5	3	4	842563	2	1	1	1	0	894	1	4	0	136	26	0	2	93
fixed	5	3	5	844365	5	3	3	1	0	1066	1	4	0	152	27	0	2	93
fixed	5	3	6	845930	6	4	4	1	0	768	1	4	0	160	28	0	2	93
fixed	5	3	7	847154	3	1	1	1	0	852	1	4	0	136	29	0	2	94
fixed	5	3	8	848861	2	3	3	1	0	996	1	4	0	152	30	0	2	94
fixed	5	3	9	850670	3	2	2	1	0	767	1	4	0	144	31	0	2	94
fixed	5	3	10	852030	1	4	4	1	0	798	1	4	0	160	32	0	2	94
fixed	5	3	11	853373	5	2	2	1	0	837	1	4	0	144	33	0	2	94
fixed	5	3	12	854642	4	3	3	1	0	1007	1	4	0	152	34	0	2	94
fixed	5	4	1	856881	4	1	1	1	0	800	1	4	0	136	35	0	2	95
fixed	5	4	2	858015	1	2	2	1	0	896	1	4	0	144	36	0	2	95
fixed	5	4	3	859382	6	4	4	1	0	719	1	4	0	160	37	0	2	95
fixed	5	4	4	861033	2	1	1	1	0	881	1	4	0	136	38	0	2	95
fixed	5	4	5	862532	5	3	3	1	0	769	1	4	0	152	39	0	2	95
fixed	5	4	6	863883	6	4	4	1	0	735	1	4	0	160	40	0	2	95
fixed	5	4	7	865000	3	1	1	1	0	616	1	4	0	136	41	0	2	95
fixed	5	4	8	866508	2	3	3	1	0	936	1	4	0	152	42	0	2	95
fixed	5	4	9	868157	3	2	2	1	0	482	1	4	0	144	43	0	2	96
fixed	5	4	10	869314	1	4	4	1	0	674	1	4	0	160	44	0	2	96
fixed	5	4	11	870538	5	2	2	1	0	742	1	4	0	144	45	0	2	96
fixed	5	4	12	871735	4	3	3	1	0	875	1	4	0	152	46	0	2	96
fixed	5	5	1	873655	4	1	1	1	0	810	1	4	0	136	47	0	2	96
fixed	5	5	2	875166	1	2	2	1	0	922	1	4	0	144	48	0	2	96
fixed	5	5	3	876625	6	4	4	1	0	692	1	4	0	160	49	0	2	96
fixed	5	5	4	878335	2	1	1	1	0	739	1	4	0	136	50	0	2	96
fixed	5	5	5	879469	5	3	3	1	0	707	1	4	0	152	51	0	2	96
fixed	5	5	6	881168	6	4	4	1	0	708	1	4	0	160	52	0	2	96
fixed	5	5	7	882525	3	1	1	1	0	794	1	4	0	136	53	0	2	96
fixed	5	5	8	884236	2	3	3	1	0	850	1	4	0	152	54	0	2	96
fixed	5	5	9	885908	3	2	2	1	0	579	1	4	0	144	55	0	2	96
fixed	5	5	10	887353	1	4	4	1	0	517	1	4	0	160	56	0	2	97
fixed	5	5	11	888415	5	2	2	1	0	833	1	4	0	144	57	0	2	97
fixed	5	5	12	889918	4	3	3	1	0	601	1	4	0	152	58	0	2	97
fixed	5	6	1	891549	4	1	1	1	0	692	1	4	0	136	59	0	2	97
fixed	5	6	2	892820	1	2	2	1	0	830	1	4	0	144	60	0	2	97
fixed	5	6	3	894522	6	4	4	1	0	766	1	4	0	160	61	0	2	97
fixed	5	6	4	895768	2	1	1	1	0	721	1	4	0	136	62	0	2	97
fixed	5	6	5	896982	5	3	3	1	0	742	1	4	0	152	63	0	2	97
fixed	5	6	6	898041	6	4	4	1	0	721	1	4	0	160	64	0	2	97
fixed	5	6	7	899517	3	1	1	1	0	746	1	4	0	136	65	0	2	97
fixed	5	6	8	900639	2	3	3	1	0	771	1	4	0	152	66	0	2	97
fixed	5	6	9	902265	3	2	2	1	0	430	1	4	0	144	67	0	2	97
fixed	5	6	10	903481	1	4	4	1	0	666	1	4	0	160	68	0	2	97
fixed	5	6	11	905018	5	2	2	1	0	777	1	4	0	144	69	0	2	97
fixed	5	6	12	906363	4	3	3	1	0	521	1	4	0	152	70	0	2	97
fixed	5	7	1	907739	4	1	1	1	0	646	1	4	0	136	71	0	2	97
fixed	5	7	2	909413	1	2	2	1	0	751	1	4	0	144	72	0	2	97
fixed	5	7	3	910675	6	4	4	1	0	674	1	4	0	160	73	0	2	97
fixed	5	7	4	911645	2	1	1	1	0	833	1	4	0	136	74	0	2	97
fixed	5	7	5	912897	5	3	3	1	0	940	1	4	0	152	75	0	2	97
fixed	5	7	6	914333	6	4	4	1	0	663	1	4	0	160	76	0	2	97
fixed	5	7	7	915619	3	1	1	1	0	785	1	4	0	136	77	0	2	97
fixed	5	7	8	917128	2	3	3	1	0	664	1	4	0	152	78	0	2	98
fixed	5	7	9	918779	3	2	2	1	0	835	1	4	0	144	79	0	2	98
fixed	5	7	10	920084	1	4	4	1	0	795	1	4	0	160	80	0	2	98
fixed	5	7	11	921669	5	2	2	1	0	896	1	4	0	144	81	0	2	98
fixed	5	7	12	923469	4	3	3	1	0	716	1	4	0	152	82	0	2	98
fixed	5	8	1	925449	4	1	1	1	0	680	1	4	0	136	83	0	2	98
fixed	5	8	2	927089	1	2	2	1	0	698	1	4	0	144	84	0	2	98
fixed	5	8	3	928220	6	4	4	1	0	666	1	4	0	160	85	0	2	98
fixed	5	8	4	929666	2	1	1	1	0	997	1	4	0	136	86	0	2	98
fixed	5	8	5	931458	5	3	3	1	0	778	1	4	0	152	87	0	2	98
fixed	5	8	6	932713	6	4	4	1	0	773	1	4	0	160	88	0	2	98
fixed	5	8	7	934216	3	1	1	1	0	861	1	4	0	136	89	0	2	98
fixed	5	8	8	935428	2	3	3	1	0	1513	1	4	0	152	90	0	2	98
fixed	5	8	9	937524	3	2	2	1	0	889	1	4	0	144	91	0	2	98
fixed	5	8	10	939007	1	4	4	1	0	634	1	4	0	160	92	0	2	98
fixed	5	8	11	940339	5	2	2	1	0	809	1	4	0	144	93	0	2	98
fixed	5	8	12	941601	4	3	3	1	0	1076	1	4	0	152	94	0	2	98
fixed	5	9	1	943594	4	1	1	1	0	703	1	4	0	136	95	0	2	98
fixed	5	9	2	944868	1	2	2	1	0	929	1	4	0	144	96	0	2	98
fixed	5	9	3	946393	6	4	4	1	0	617	1	4	0	160	97	0	2	98
fixed	5	9	4	947643	2	1	1	1	0	580	1	4	0	136	98	0	2	98
fixed	5	9	5	949211	5	3	3	1	0	697	1	4	0	152	99	0	2	98
fixed	5	9	6	950915	6	4	4	1	0	785	1	4	0	160	100	0	2	98
fixed	5	9	7	952437	3	1	1	1	0	777	1	4	0	136	101	0	2	98
fixed	5	9	8	953815	2	3	3	1	0	743	1	4	0	152	102	0	2	98
fixed	5	9	9	955363	3	2	2	1	0	373	1	4	0	144	103	0	2	98
fixed	5	9	10	956650	1	4	4	1	0	727	1	4	0	160	104	0	2	98
fixed	5	9	11	958357	5	2	2	1	0	1118	1	4	0	144	105	0	2	98
fixed	5	9	12	960385	4	3	3	1	0	432	1	4	0	152	106	0	2	98
fixed	5	10	1	961437	4	1	1	1	0	571	1	4	0	136	107	0	2	98
fixed	5	10	2	962934	1	2	2	1	0	708	1	4	0	144	108	0	2	98
fixed	5	10	3	964542	6	4	4	1	0	729	1	4	0	160	109	0	2	98
fixed	5	10	4	965591	2	1	1	1	0	1452	1	4	0	136	110	0	2	98
fixed	5	10	5	967340	5	3	3	1	0	706	1	4	0	152	111	0	2	98
fixed	5	10	6	968432	6	4	4	1	0	716	1	4	0	160	112	0	2	98
fixed	5	10	7	970080	3	1	1	1	0	470	1	4	0	136	113	0	2	98
fixed	5	10	8	971589	2	3	3	1	0	654	1	4	0	152	114	0	2	98
fixed	5	10	9	973008	3	2	2	1	0	506	1	4	0	144	115	0	2	98
fixed	5	10	10	974056	1	4	4	1	0	597	1	4	0	160	116	0	2	98
fixed	5	10	11	975416	5	2	2	1	0	948	1	4	0	144	117	0	2	98
fixed	5	10	12	976982	4	3	3	1	0	433	1	4	0	152	118	0	2	98
random	6	1	1	1075599	6	1	1	1	0	968	1	4	0	168	1	0	0	100
random	6	1	2	1077112	4	4	4	1	0	784	1	4	0	192	2	0	0	100
random	6	1	3	1078696	2	2	2	1	0	1677	1	4	0	176	3	0	0	100
random	6	1	4	1081258	3	3	3	1	0	985	1	4	0	184	4	0	0	100
random	6	1	5	1083019	5	2	2	1	0	822	1	4	0	176	5	0	0	100
random	6	1	6	1084325	1	4	4	1	0	615	1	4	0	192	6	0	0	100
random	6	1	7	1085888	6	1	1	1	0	1053	1	4	0	168	7	0	0	100
random	6	1	8	1087551	2	3	3	1	0	1086	1	4	0	184	8	0	0	100
random	6	1	9	1089667	4	2	2	1	0	724	1	4	0	176	9	0	0	100
random	6	1	10	1090922	1	1	1	1	0	767	1	4	0	168	10	0	0	100
random	6	1	11	1092062	5	4	4	1	0	567	1	4	0	192	11	0	0	100
random	6	1	12	1093394	3	3	3	1	0	806	1	4	0	184	12	0	0	100
random	6	1	13	1095333	5	2	2	2	0	1500	2	4	0	176	13	0	0	100
random	6	1	14	1097784	1	4	4	1	0	701	1	4	0	192	14	0	0	100
random	6	1	15	1099060	3	1	1	1	0	934	1	4	0	168	15	0	0	100
random	6	1	16	1100305	4	3	3	1	0	994	1	4	0	184	16	0	0	100
random	6	1	17	1101861	6	4	4	1	0	704	1	4	0	192	17	0	0	100
random	6	1	18	1103294	2	1	1	1	0	803	1	4	0	168	18	0	0	100
random	6	1	19	1104999	5	3	3	1	0	1371	1	4	0	184	19	0	0	100
random	6	1	20	1107362	2	2	2	1	0	775	1	4	0	176	20	0	0	100
random	6	1	21	1108773	3	3	3	2	0	1387	2	4	0	184	21	0	0	100
random	6	1	22	1110689	6	1	1	1	0	946	1	4	0	168	22	0	0	100
random	6	1	23	1111952	4	2	2	1	0	949	1	4	0	176	23	0	0	100
random	6	1	24	1113248	1	4	4	1	0	814	1	4	0	192	24	0	0	100
random	6	1	25	1114897	4	3	3	1	0	1135	1	4	0	184	25	0	0	100
random	6	1	26	1116828	2	1	1	1	0	766	1	4	0	168	26	0	0	100
random	6	1	27	1118401	5	2	2	1	0	932	1	4	0	176	27	0	0	100
random	6	1	28	1119774	6	4	4	1	0	753	1	4	0	192	28	0	0	100
random	6	1	29	1121214	1	3	3	1	0	820	1	4	0	184	29	0	0	100
random	6	1	30	1122855	5	2	2	1	0	767	1	4	0	176	30	0	0	100
random	6	1	31	1124293	2	1	1	1	0	738	1	4	0	168	31	0	0	100
random	6	1	32	1125495	3	3	3	1	0	943	1	4	0	184	32	0	0	100
random	6	1	33	1126785	6	4	4	1	0	584	1	4	0	192	33	0	0	100
random	6	1	34	1127822	4	2	2	1	0	788	1	4	0	176	34	0	0	100
random	6	1	35	1129558	3	4	4	1	0	731	1	4	0	192	35	0	0	100
random	6	1	36	1130654	1	1	1	1	0	692	1	4	0	168	36	0	0	100
random	6	1	37	1131939	3	4	4	1	0	918	1	4	0	192	37	0	0	100
random	6	1	38	1133726	5	3	3	1	0	1066	1	4	0	184	38	0	0	100
random	6	1	39	1135370	6	1	1	1	0	829	1	4	0	168	39	0	0	100
random	6	1	40	1136608	1	2	2	1	0	696	1	4	0	176	40	0	0	100
random	6	1	41	1137980	2	3	3	1	0	686	1	4	0	184	41	0	0	100
random	6	1	42	1139056	4	4	4	1	0	664	1	4	0	192	42	0	0	100
random	6	1	43	1140175	1	2	2	1	0	745	1	4	0	176	43	0	0	100
random	6	1	44	1141352	6	3	3	1	0	711	1	4	0	184	44	0	0	100
random	6	1	45	1142777	3	1	1	1	0	987	1	4	0	168	45	0	0	100
random	6	1	46	1144550	4	4	4	1	0	1272	1	4	0	192	46	0	0	100
random	6	1	47	1146270	2	2	2	1	0	791	1	4	0	176	47	0	0	100
random	6	1	48	1147526	5	1	1	1	0	777	1	4	0	168	48	0	0	100
random	6	1	49	1149382	2	3	3	1	0	851	1	4	0	184	49	0	0	100
random	6	1	50	1151087	3	1	1	1	0	1323	1	4	0	168	50	0	0	100
random	6	1	51	1152721	1	4	4	1	0	685	1	4	0	192	51	0	0	100
random	6	1	52	1154379	5	3	3	1	0	855	1	4	0	184	52	0	0	100
random	6	1	53	1155880	3	2	2	1	0	704	1	4	0	176	53	0	0	100
random	6	1	54	1157433	6	4	4	1	0	630	1	4	0	192	54	0	0	100
random	6	1	55	1158978	4	2	2	1	0	893	1	4	0	176	55	0	0	100
random	6	1	56	1160799	1	1	1	1	0	864	1	4	0	168	56	0	0	100
random	6	1	57	1162288	5	4	4	1	0	841	1	4	0	192	57	0	0	100
random	6	1	58	1163985	2	1	1	1	0	800	1	4	0	168	58	0	0	100
random	6	1	59	1165774	6	2	2	1	0	1053	1	4	0	176	59	0	0	100
random	6	1	60	1167341	4	3	3	1	0	682	1	4	0	184	60	0	0	100
random	6	1	61	1168963	1	2	2	1	0	837	1	4	0	176	61	0	0	100
random	6	1	62	1170188	6	4	4	1	0	706	1	4	0	192	62	0	0	100
random	6	1	63	1171423	4	1	1	1	0	629	1	4	0	168	63	0	0	100
random	6	1	64	1172863	2	2	2	1	0	737	1	4	0	176	64	0	0	100
random	6	1	65	1174065	4	3	3	1	0	758	1	4	0	184	65	0	0	100
random	6	1	66	1175610	3	1	1	1	0	805	1	4	0	168	66	0	0	100
random	6	1	67	1177363	1	3	3	1	0	930	1	4	0	184	67	0	0	100
random	6	1	68	1179112	5	4	4	1	0	1272	1	4	0	192	68	0	0	100
random	6	1	69	1181348	2	2	2	1	0	809	1	4	0	176	69	0	0	100
random	6	1	70	1182519	3	1	1	1	0	856	1	4	0	168	70	0	0	100
random	6	1	71	1183896	5	4	4	1	0	790	1	4	0	192	71	0	0	100
random	6	1	72	1185034	6	3	3	1	0	941	1	4	0	184	72	0	0	100
random	6	1	73	1186557	2	1	1	1	0	780	1	4	0	168	73	0	0	100
random	6	1	74	1187885	5	3	3	1	0	1124	1	4	0	184	74	0	0	100
random	6	1	75	1189683	1	4	4	1	0	696	1	4	0	192	75	0	0	100
random	6	1	76	1190875	6	2	2	1	0	710	1	4	0	176	76	0	0	100
random	6	1	77	1192300	2	1	1	1	0	866	1	4	0	168	77	0	0	100
random	6	1	78	1194187	4	4	4	1	0	762	1	4	0	192	78	0	0	100
random	6	1	79	1195923	3	2	2	1	0	1120	1	4	0	176	79	0	0	100
random	6	1	80	1197345	4	3	3	1	0	788	1	4	0	184	80	0	0	100
random	6	1	81	1198966	1	4	4	1	0	679	1	4	0	192	81	0	0	100
random	6	1	82	1200175	5	1	1	1	0	1212	1	4	0	168	82	0	0	100
random	6	1	83	1202277	3	2	2	1	0	778	1	4	0	176	83	0	0	100
random	6	1	84	1203421	6	3	3	1	0	834	1	4	0	184	84	0	0	100
random	6	1	85	1205236	3	2	2	1	0	917	1	4	0	176	85	0	0	100
random	6	1	86	1206675	1	3	3	1	0	704	1	4	0	184	86	0	0	100
random	6	1	87	1207911	4	4	4	1	0	708	1	4	0	192	87	0	0	100
random	6	1	88	1209186	2	1	1	1	0	534	1	4	0	168	88	0	0	100
random	6	1	89	1210095	6	4	4	1	0	799	1	4	0	192	89	0	0	100
random	6	1	90	1211681	3	3	3	1	0	797	1	4	0	184	90	0	0	100
random	6	1	91	1213414	5	4	4	1	0	763	1	4	0	192	91	0	0	100
random	6	1	92	1214983	1	2	2	1	0	833	1	4	0	176	92	0	0	100
random	6	1	93	1216727	5	1	1	1	0	807	1	4	0	168	93	0	0	100
random	6	1	94	1218468	4	3	3	1	0	797	1	4	0	184	94	0	0	100
random	6	1	95	1219561	6	1	1	1	0	879	1	4	0	168	95	0	0	100
random	6	1	96	1221114	2	2	2	1	0	765	1	4	0	176	96	0	0	100
random	6	1	97	1222695	4	3	3	2	0	1418	2	4	0	184	97	0	0	100
random	6	1	98	1224886	3	2	2	1	0	941	1	4	0	176	98	0	0	100
random	6	1	99	1226205	6	3	3	1	0	845	1	4	0	184	99	0	0	100
random	6	1	100	1227363	1	4	4	1	0	924	1	4	0	192	100	0	0	100
random	6	1	101	1229260	4	1	1	1	0	740	1	4	0	168	101	0	0	100
random	6	1	102	1230656	5	2	2	1	0	753	1	4	0	176	102	0	0	100
random	6	1	103	1232212	2	4	4	1	0	671	1	4	0	192	103	0	0	100
random	6	1	104	1233192	3	1	1	1	0	797	1	4	0	168	104	0	0	100
random	6	1	105	1234566	1	3	3	1	0	779	1	4	0	184	105	0	0	100
random	6	1	106	1236225	2	2	2	2	0	1269	2	4	0	176	106	0	0	100
random	6	1	107	1238529	5	4	4	1	0	931	1	4	0	192	107	0	0	100
random	6	1	108	1239789	6	1	1	1	0	886	1	4	0	168	108	0	0	100
random	6	1	109	1241775	5	4	4	1	0	969	1	4	0	192	109	0	0	100
random	6	1	110	1243163	6	3	3	1	0	847	1	4	0	184	110	0	0	100
random	6	1	111	1244300	2	2	2	1	0	895	1	4	0	176	111	0	0	100
random	6	1	112	1245711	3	1	1	1	0	763	1	4	0	168	112	0	0	100
random	6	1	113	1247465	1	2	2	1	0	825	1	4	0	176	113	0	0	100
random	6	1	114	1249147	2	3	3	1	0	753	1	4	0	184	114	0	0	100
random	6	1	115	1250248	3	1	1	1	0	1107	1	4	0	168	115	0	0	100
random	6	1	116	1252177	4	4	4	1	0	833	1	4	0	192	116	0	0	100
random	6	1	117	1254013	6	1	1	1	0	891	1	4	0	168	117	0	0	100
random	6	1	118	1255763	5	3	3	1	0	769	1	4	0	184	118	0	0	100
random	6	1	119	1257316	1	4	4	1	0	711	1	4	0	192	119	0	0	100
random	6	1	120	1258747	4	2	2	1	0	923	1	4	0	176	120	0	0	100
fixed	7	1	1	1260720	4	1	1	1	0	679	1	4	0	200	1	0	0	100
fixed	7	1	2	1262262	1	2	2	1	0	894	1	4	0	208	2	0	0	100
fixed	7	1	3	1263681	6	4	4	1	0	802	1	4	0	224	3	0	0	100
fixed	7	1	4	1264837	2	1	1	1	0	801	1	4	0	200	4	0	0	100
fixed	7	1	5	1266562	5	3	3	1	0	824	1	4	0	216	5	0	0	100
fixed	7	1	6	1267726	6	4	4	1	0	686	1	4	0	224	6	0	0	100
fixed	7	1	7	1269248	3	1	1	1	0	654	1	4	0	200	7	0	0	100
fixed	7	1	8	1270233	2	3	3	1	0	772	1	4	0	216	8	0	0	100
fixed	7	1	9	1271513	3	2	2	1	0	654	1	4	0	208	9	0	0	100
fixed	7	1	10	1272665	1	4	4	1	0	661	1	4	0	224	10	0	0	100
fixed	7	1	11	1274117	5	2	2	1	0	800	1	4	0	208	11	0	0	100
fixed	7	1	12	1275876	4	3	3	1	0	933	1	4	0	216	12	0	0	100
fixed	7	2	1	1277998	4	1	1	1	0	979	1	4	0	200	1	0	0	8
fixed	7	2	2	1279330	1	2	2	1	0	747	1	4	0	208	2	0	0	14
fixed	7	2	3	1280698	6	4	4	1	0	601	1	4	0	224	3	0	0	20
fixed	7	2	4	1282142	2	1	1	1	0	828	1	4	0	200	4	0	0	25
fixed	7	2	5	1283771	5	3	3	1	0	983	1	4	0	216	5	0	0	29
fixed	7	2	6	1285378	6	4	4	1	0	707	1	4	0	224	6	0	0	33
fixed	7	2	7	1286459	3	1	1	1	0	861	1	4	0	200	7	0	0	37
fixed	7	2	8	1288219	2	3	3	1	0	819	1	4	0	216	8	0	0	40
fixed	7	2	9	1289865	3	2	2	1	0	837	1	4	0	208	9	0	0	43
fixed	7	2	10	1291143	1	4	4	1	0	751	1	4	0	224	10	0	0	45
fixed	7	2	11	1292914	5	2	2	1	0	828	1	4	0	208	11	0	0	48
fixed	7	2	12	1294038	4	3	3	1	0	892	1	4	0	216	12	0	0	50
fixed	7	3	1	1295875	4	1	1	1	0	766	1	4	0	200	1	0	0	4
fixed	7	3	2	1297057	1	2	2	1	0	813	1	4	0	208	2	0	0	8
fixed	7	3	3	1298644	6	4	4	1	0	617	1	4	0	224	3	0	0	11
fixed	7	3	4	1300252	2	1	1	1	0	773	1	4	0	200	4	0	0	14
fixed	7	3	5	1301797	5	3	3	1	0	956	1	4	0	216	5	0	0	17
fixed	7	3	6	1303403	6	4	4	1	0	680	1	4	0	224	6	0	0	20
fixed	7	3	7	1304506	3	1	1	1	0	769	1	4	0	200	7	0	0	23
fixed	7	3	8	1305941	2	3	3	1	0	844	1	4	0	216	8	0	0	25
fixed	7	3	9	1307438	3	2	2	1	0	620	1	4	0	208	9	0	0	27
fixed	7	3	10	1308368	1	4	4	1	0	597	1	4	0	224	10	0	0	29
fixed	7	3	11	1309921	5	2	2	1	0	844	1	4	0	208	11	0	0	31
fixed	7	3	12	1311051	4	3	3	1	0	835	1	4	0	216	12	0	0	33
fixed	7	4	1	1313167	4	1	1	1	0	834	1	4	0	200	1	0	0	3
fixed	7	4	2	1314970	1	2	2	1	0	813	1	4	0	208	2	0	0	5
fixed	7	4	3	1316688	6	4	4	1	0	717	1	4	0	224	3	0	0	8
fixed	7	4	4	1317696	2	1	1	1	0	802	1	4	0	200	4	0	0	10
fixed	7	4	5	1318863	5	3	3	1	0	792	1	4	0	216	5	0	0	12
fixed	7	4	6	1320609	6	4	4	1	0	751	1	4	0	224	6	0	0	14
fixed	7	4	7	1321801	3	1	1	1	0	852	1	4	0	200	7	0	0	16
fixed	7	4	8	1323257	2	3	3	1	0	862	1	4	0	216	8	0	0	18
fixed	7	4	9	1325001	3	2	2	1	0	717	1	4	0	208	9	0	0	20
fixed	7	4	10	1326657	1	4	4	1	0	847	1	4	0	224	10	0	0	22
fixed	7	4	11	1327794	5	2	2	1	0	1078	1	4	0	208	11	0	0	23
fixed	7	4	12	1329498	4	3	3	1	0	718	1	4	0	216	12	0	0	25
fixed	7	5	1	1331078	4	1	1	1	0	603	1	4	0	200	1	0	0	2
fixed	7	5	2	1332181	1	2	2	1	0	892	1	4	0	208	2	0	0	4
fixed	7	5	3	1333689	6	4	4	1	0	765	1	4	0	224	3	0	0	6
fixed	7	5	4	1335169	2	1	1	1	0	822	1	4	0	200	4	0	0	8
fixed	7	5	5	1336427	5	3	3	1	0	769	1	4	0	216	5	0	0	9
fixed	7	5	6	1337547	6	4	4	1	0	713	1	4	0	224	6	0	0	11
fixed	7	5	7	1338758	3	1	1	1	0	742	1	4	0	200	7	0	0	13
fixed	7	5	8	1340374	2	3	3	1	0	682	1	4	0	216	8	0	0	14
fixed	7	5	9	1342016	3	2	2	1	0	916	1	4	0	208	9	0	0	16
fixed	7	5	10	1343597	1	4	4	1	0	761	1	4	0	224	10	0	0	17
fixed	7	5	11	1345295	5	2	2	1	0	1121	1	4	0	208	11	0	0	19
fixed	7	5	12	1347442	4	3	3	1	0	718	1	4	0	216	12	0	0	20
fixed	7	6	1	1349373	4	1	1	1	0	892	1	4	0	200	1	0	0	2
fixed	7	6	2	1350610	1	2	2	1	0	760	1	4	0	208	2	0	0	3
fixed	7	6	3	1352372	6	4	4	1	0	750	1	4	0	224	3	0	0	5
fixed	7	6	4	1354069	2	1	1	1	0	741	1	4	0	200	4	0	0	6
fixed	7	6	5	1355728	5	3	3	1	0	711	1	4	0	216	5	0	0	8
fixed	7	6	6	1357054	6	4	4	1	0	783	1	4	0	224	6	0	0	9
fixed	7	6	7	1358242	3	1	1	1	0	900	1	4	0	200	7	0	0	10
fixed	7	6	8	1360103	2	3	3	1	0	894	1	4	0	216	8	0	0	12
fixed	7	6	9	1361825	3	2	2	1	0	741	1	4	0	208	9	0	0	13
fixed	7	6	10	1363107	1	4	4	1	0	718	1	4	0	224	10	0	0	14
fixed	7	6	11	1364734	5	2	2	1	0	906	1	4	0	208	11	0	0	15
fixed	7	6	12	1366422	4	3	3	1	0	738	1	4	0	216	12	0	0	17
fixed	7	7	1	1368002	4	1	1	1	0	735	1	4	0	200	1	0	0	1
fixed	7	7	2	1369760	1	2	2	1	0	1173	1	4	0	208	2	0	0	3
fixed	7	7	3	1371277	6	4	4	1	0	868	1	4	0	224	3	0	0	4
fixed	7	7	4	1372892	2	1	1	1	0	728	1	4	0	200	4	0	0	5
fixed	7	7	5	1374504	5	3	3	1	0	708	1	4	0	216	5	0	0	6
fixed	7	7	6	1375894	6	4	4	1	0	761	1	4	0	224	6	0	0	8
fixed	7	7	7	1377605	3	1	1	1	0	737	1	4	0	200	7	0	0	9
fixed	7	7	8	1379001	2	3	3	1	0	669	1	4	0	216	8	0	0	10
fixed	7	7	9	1380542	3	2	2	1	0	820	1	4	0	208	9	0	0	11
fixed	7	7	10	1381850	1	4	4	1	0	1428	1	4	0	224	10	0	0	12
fixed	7	7	11	1383983	5	2	2	1	0	1315	1	4	0	208	11	0	0	13
fixed	7	7	12	1385927	4	3	3	1	0	656	1	4	0	216	12	0	0	14
fixed	7	8	1	1387433	4	1	1	1	0	688	1	4	0	200	1	0	0	1
fixed	7	8	2	1388534	1	2	2	1	0	777	1	4	0	208	2	0	0	2
fixed	7	8	3	1390326	6	4	4	1	0	686	1	4	0	224	3	0	0	3
fixed	7	8	4	1392028	2	1	1	1	0	750	1	4	0	200	4	0	0	5
fixed	7	8	5	1393640	5	3	3	1	0	921	1	4	0	216	5	0	0	6
fixed	7	8	6	1394857	6	4	4	1	0	894	1	4	0	224	6	0	0	7
fixed	7	8	7	1396703	3	1	1	1	0	727	1	4	0	200	7	0	0	8
fixed	7	8	8	1397828	2	3	3	1	0	776	1	4	0	216	8	0	0	9
fixed	7	8	9	1398963	3	2	2	1	0	920	1	4	0	208	9	0	0	10
fixed	7	8	10	1400267	1	4	4	1	0	721	1	4	0	224	10	0	0	11
fixed	7	8	11	1401305	5	2	2	1	0	837	1	4	0	208	11	0	0	12
fixed	7	8	12	1402926	4	3	3	1	0	536	1	4	0	216	12	0	0	13
fixed	7	9	1	1404224	4	1	1	1	0	801	1	4	0	200	1	0	0	1
fixed	7	9	2	1405880	1	2	2	1	0	979	1	4	0	208	2	0	0	2
fixed	7	9	3	1407451	6	4	4	1	0	712	1	4	0	224	3	0	0	3
fixed	7	9	4	1409155	2	1	1	1	0	672	1	4	0	200	4	0	0	4
fixed	7	9	5	1410153	5	3	3	1	0	798	1	4	0	216	5	0	0	5
fixed	7	9	6	1411780	6	4	4	1	0	641	1	4	0	224	6	0	0	6
fixed	7	9	7	1413335	3	1	1	1	0	895	1	4	0	200	7	0	0	7
fixed	7	9	8	1414528	2	3	3	1	0	885	1	4	0	216	8	0	0	8
fixed	7	9	9	1415721	3	2	2	1	0	522	1	4	0	208	9	0	0	9
fixed	7	9	10	1417082	1	4	4	1	0	681	1	4	0	224	10	0	0	9
fixed	7	9	11	1418127	5	2	2	1	0	692	1	4	0	208	11	0	0	10
fixed	7	9	12	1419353	4	3	3	1	0	408	1	4	0	216	12	0	0	11
fixed	7	10	1	1420548	4	1	1	1	0	614	1	4	0	200	1	0	0	1
fixed	7	10	2	1421650	1	2	2	1	0	943	1	4	0	208	2	0	0	2
fixed	7	10	3	1423257	6	4	4	1	0	803	1	4	0	224	3	0	0	3
fixed	7	10	4	1424467	2	1	1	1	0	728	1	4	0	200	4	0	0	4
fixed	7	10	5	1425705	5	3	3	1	0	716	1	4	0	216	5	0	0	4
fixed	7	10	6	1427404	6	4	4	1	0	731	1	4	0	224	6	0	0	5
fixed	7	10	7	1428956	3	1	1	1	0	826	1	4	0	200	7	0	0	6
fixed	7	10	8	1430515	2	3	3	1	0	712	1	4	0	216	8	0	0	7
fixed	7	10	9	1432058	3	2	2	1	0	846	1	4	0	208	9	0	0	8
fixed	7	10	10	1433426	1	4	4	1	0	660	1	4	0	224	10	0	0	8
fixed	7	10	11	1434857	5	2	2	1	0	984	1	4	0	208	11	0	0	9
fixed	7	10	12	1436497	4	3	3	1	0	658	1	4	0	216	12	0	0	10
