type	block	sequ.	trial	time	Pos.	Color	Button	NumRsp	Resp_1	RT_1	R_Code	Resp_2	RT_2	Trigg.	n_hit	n_inc	n_miss	score_%

random	1	1	1	1669	6	1	1	1	0	681	1	4	0	8	1	0	0	100
random	1	1	2	2677	4	4	4	1	0	719	1	4	0	32	2	0	0	100
random	1	1	3	4404	2	2	2	1	0	766	1	4	0	16	3	0	0	100
random	1	1	4	5517	3	3	3	1	0	863	1	4	0	24	4	0	0	100
random	1	1	5	6968	5	2	2	1	0	801	1	4	0	16	5	0	0	100
random	1	1	6	8399	1	4	4	1	0	669	1	4	0	32	6	0	0	100
random	1	1	7	9483	6	1	1	1	0	527	1	4	0	8	7	0	0	100
random	1	1	8	10390	2	3	3	1	0	960	1	4	0	24	8	0	0	100
random	1	1	9	11749	4	2	2	1	0	471	1	4	0	16	9	0	0	100
random	1	1	10	12913	1	1	1	1	0	621	1	4	0	8	10	0	0	100
random	1	1	11	14254	5	4	4	1	0	676	1	4	0	32	11	0	0	100
random	1	1	12	15452	3	3	3	1	0	842	1	4	0	24	12	0	0	100
random	1	1	13	17392	5	2	2	1	0	703	1	4	0	16	13	0	0	100
random	1	1	14	18829	1	4	4	1	0	579	1	4	0	32	14	0	0	100
random	1	1	15	20260	3	1	1	1	0	662	1	4	0	8	15	0	0	100
random	1	1	16	21937	4	3	3	1	0	799	1	4	0	24	16	0	0	100
random	1	1	17	23418	6	4	4	1	0	593	1	4	0	32	17	0	0	100
random	1	1	18	24581	2	1	1	1	0	647	1	4	0	8	18	0	0	100
random	1	1	19	25690	5	3	3	1	0	728	1	4	0	24	19	0	0	100
random	1	1	20	27240	2	2	2	1	0	751	1	4	0	16	20	0	0	100
random	1	1	21	28919	3	3	3	1	0	791	1	4	0	24	21	0	0	100
random	1	1	22	30033	6	1	1	1	0	896	1	4	0	8	22	0	0	100
random	1	1	23	31446	4	2	2	1	0	828	1	4	0	16	23	0	0	100
random	1	1	24	32802	1	4	4	1	0	651	1	4	0	32	24	0	0	100
random	1	1	25	34368	4	3	3	1	0	824	1	4	0	24	25	0	0	100
random	1	1	26	36020	2	1	1	1	0	666	1	4	0	8	26	0	0	100
random	1	1	27	37179	5	2	2	1	0	762	1	4	0	16	27	0	0	100
random	1	1	28	38637	6	4	4	1	0	540	1	4	0	32	28	0	0	100
random	1	1	29	40074	1	3	3	1	0	1039	1	4	0	24	29	0	0	100
random	1	1	30	41902	5	2	2	1	0	777	1	4	0	16	30	0	0	100
random	1	1	31	43412	2	1	1	1	0	810	1	4	0	8	31	0	0	100
random	1	1	32	45123	3	3	3	1	0	1025	1	4	0	24	32	0	0	100
random	1	1	33	46590	6	4	4	1	0	491	1	4	0	32	33	0	0	100
random	1	1	34	47426	4	2	2	1	0	784	1	4	0	16	34	0	0	100
random	1	1	35	49142	3	4	4	1	0	719	1	4	0	32	35	0	0	100
random	1	1	36	50551	1	1	1	1	0	595	1	4	0	8	36	0	0	100
random	1	1	37	52395	3	4	4	1	0	805	1	4	0	32	37	0	0	100
random	1	1	38	53763	5	3	3	1	0	843	1	4	0	24	38	0	0	100
random	1	1	39	55241	6	1	1	1	0	1197	1	4	0	8	39	0	0	100
random	1	1	40	57297	1	2	2	1	0	1086	1	4	0	16	40	0	0	100
random	1	1	41	59027	2	3	3	1	0	972	1	4	0	24	41	0	0	100
random	1	1	42	61010	4	4	4	1	0	456	1	4	0	32	42	0	0	100
random	1	1	43	62361	1	2	2	1	0	991	1	4	0	16	43	0	0	100
random	1	1	44	64276	6	3	3	1	0	702	1	4	0	24	44	0	0	100
random	1	1	45	65771	3	1	1	1	0	727	1	4	0	8	45	0	0	100
random	1	1	46	66883	4	4	4	1	0	775	1	4	0	32	46	0	0	100
random	1	1	47	68312	2	2	2	1	0	1099	1	4	0	16	47	0	0	100
random	1	1	48	70278	5	1	1	1	0	720	1	4	0	8	48	0	0	100
random	1	1	49	72194	2	3	3	1	0	1102	1	4	0	24	49	0	0	100
random	1	1	50	73784	3	1	1	1	0	899	1	4	0	8	50	0	0	100
random	1	1	51	75706	1	4	4	1	0	626	1	4	0	32	51	0	0	100
random	1	1	52	77090	5	3	3	1	0	1159	1	4	0	24	52	0	0	100
random	1	1	53	79146	3	2	2	1	0	640	1	4	0	16	53	0	0	100
random	1	1	54	80794	6	4	4	1	0	755	1	4	0	32	54	0	0	100
random	1	1	55	82121	4	2	2	1	0	770	1	4	0	16	55	0	0	100
random	1	1	56	83584	1	1	1	1	0	748	1	4	0	8	56	0	0	100
random	1	1	57	84830	5	4	4	1	0	639	1	4	0	32	57	0	0	100
random	1	1	58	86444	2	1	1	1	0	795	1	4	0	8	58	0	0	100
random	1	1	59	87763	6	2	2	1	0	1131	1	4	0	16	59	0	0	100
random	1	1	60	89371	4	3	3	1	0	743	1	4	0	24	60	0	0	100
random	1	1	61	90740	1	2	2	1	0	765	1	4	0	16	61	0	0	100
random	1	1	62	92535	6	4	4	1	0	649	1	4	0	32	62	0	0	100
random	1	1	63	93638	4	1	1	1	0	474	1	4	0	8	63	0	0	100
random	1	1	64	94810	2	2	2	1	0	865	1	4	0	16	64	0	0	100
random	1	1	65	96609	4	3	3	1	0	580	1	4	0	24	65	0	0	100
random	1	1	66	97644	3	1	1	1	0	729	1	4	0	8	66	0	0	100
random	1	1	67	98824	1	3	3	2	0	1278	2	4	0	24	67	0	0	100
random	1	1	68	100753	5	4	4	1	0	709	1	4	0	32	68	0	0	100
random	1	1	69	101835	2	2	2	1	0	1047	1	4	0	16	69	0	0	100
random	1	1	70	103214	3	1	1	1	0	1101	1	4	0	8	70	0	0	100
random	1	1	71	104675	5	4	4	1	0	831	1	4	0	32	71	0	0	100
random	1	1	72	106289	6	3	3	1	0	819	1	4	0	24	72	0	0	100
random	1	1	73	107815	2	1	1	1	0	922	1	4	0	8	73	0	0	100
random	1	1	74	109284	5	3	3	1	0	827	1	4	0	24	74	0	0	100
random	1	1	75	110539	1	4	4	1	0	686	1	4	0	32	75	0	0	100
random	1	1	76	111932	6	2	2	1	0	699	1	4	0	16	76	0	0	100
random	1	1	77	113350	2	1	1	1	0	1103	1	4	0	8	77	0	0	100
random	1	1	78	115109	4	4	4	1	0	621	1	4	0	32	78	0	0	100
random	1	1	79	116268	3	2	2	1	0	916	1	4	0	16	79	0	0	100
random	1	1	80	118047	4	3	3	1	0	720	1	4	0	24	80	0	0	100
random	1	1	81	119549	1	4	4	1	0	545	1	4	0	32	81	0	0	100
random	1	1	82	120422	5	1	1	1	0	924	1	4	0	8	82	0	0	100
random	1	1	83	122319	3	2	2	1	0	795	1	4	0	16	83	0	0	100
random	1	1	84	123652	6	3	3	1	0	835	1	4	0	24	84	0	0	100
random	1	1	85	125308	3	2	2	1	0	765	1	4	0	16	85	0	0	100
random	1	1	86	126379	1	3	3	1	0	1039	1	4	0	24	86	0	0	100
random	1	1	87	127777	4	4	4	1	0	693	1	4	0	32	87	0	0	100
random	1	1	88	129416	2	1	1	1	0	591	1	4	0	8	88	0	0	100
random	1	1	89	131019	6	4	4	1	0	555	1	4	0	32	89	0	0	100
random	1	1	90	131984	3	3	3	1	0	706	1	4	0	24	90	0	0	100
random	1	1	91	133235	5	4	4	1	0	733	1	4	0	32	91	0	0	100
random	1	1	92	134335	1	2	2	1	0	710	1	4	0	16	92	0	0	100
random	1	1	93	135700	5	1	1	1	0	748	1	4	0	8	93	0	0	100
random	1	1	94	137389	4	3	3	1	0	909	1	4	0	24	94	0	0	100
random	1	1	95	138977	6	1	1	1	0	730	1	4	0	8	95	0	0	100
random	1	1	96	140222	2	2	2	1	0	869	1	4	0	16	96	0	0	100
random	1	1	97	141681	4	3	3	1	0	895	1	4	0	24	97	0	0	100
random	1	1	98	143256	3	2	2	1	0	765	1	4	0	16	98	0	0	100
random	1	1	99	144444	6	3	3	1	0	818	1	4	0	24	99	0	0	100
random	1	1	100	145767	1	4	4	1	0	562	1	4	0	32	100	0	0	100
random	1	1	101	147301	4	1	1	1	0	937	1	4	0	8	101	0	0	100
random	1	1	102	148573	5	2	2	1	0	796	1	4	0	16	102	0	0	100
random	1	1	103	149705	2	4	4	1	0	659	1	4	0	32	103	0	0	100
random	1	1	104	151126	3	1	1	1	0	1247	1	4	0	8	104	0	0	100
random	1	1	105	153264	1	3	3	1	0	821	1	4	0	24	105	0	0	100
random	1	1	106	154971	2	2	2	1	0	741	1	4	0	16	106	0	0	100
random	1	1	107	156541	5	4	4	1	0	650	1	4	0	32	107	0	0	100
random	1	1	108	158143	6	1	1	1	0	598	1	4	0	8	108	0	0	100
random	1	1	109	159692	5	4	4	1	0	676	1	4	0	32	109	0	0	100
random	1	1	110	160665	6	3	3	1	0	891	1	4	0	24	110	0	0	100
random	1	1	111	161974	2	2	2	1	0	764	1	4	0	16	111	0	0	100
random	1	1	112	163311	3	1	1	1	0	659	1	4	0	8	112	0	0	100
random	1	1	113	164830	1	2	2	1	0	1147	1	4	0	16	113	0	0	100
random	1	1	114	166583	2	3	3	1	0	801	1	4	0	24	114	0	0	100
random	1	1	115	168217	3	1	1	1	0	875	1	4	0	8	115	0	0	100
random	1	1	116	169772	4	4	4	1	0	658	1	4	0	32	116	0	0	100
random	1	1	117	170765	6	1	1	1	0	936	1	4	0	8	117	0	0	100
random	1	1	118	172313	5	3	3	2	0	1390	2	4	0	24	118	0	0	100
random	1	1	119	174708	1	4	4	1	0	777	1	4	0	32	119	0	0	100
random	1	1	120	176492	4	2	2	1	0	885	1	4	0	16	120	0	0	100
fixed	2	1	1	178419	4	1	1	1	0	811	1	4	0	40	1	0	0	100
fixed	2	1	2	179641	1	2	2	1	0	1063	1	4	0	48	2	0	0	100
fixed	2	1	3	181172	6	4	4	1	0	687	1	4	0	64	3	0	0	100
fixed	2	1	4	182294	2	1	1	1	0	791	1	4	0	40	4	0	0	100
fixed	2	1	5	183736	5	3	3	1	0	1242	1	4	0	56	5	0	0	100
fixed	2	1	6	185747	6	4	4	1	0	981	1	4	0	64	6	0	0	100
fixed	2	1	7	187178	3	1	1	1	0	928	1	4	0	40	7	0	0	100
fixed	2	1	8	189090	2	3	3	1	0	767	1	4	0	56	8	0	0	100
fixed	2	1	9	190666	3	2	2	1	0	676	1	4	0	48	9	0	0	100
fixed	2	1	10	191949	1	4	4	1	0	774	1	4	0	64	10	0	0	100
fixed	2	1	11	193574	5	2	2	1	0	921	1	4	0	48	11	0	0	100
fixed	2	1	12	195307	4	3	3	1	0	752	1	4	0	56	12	0	0	100
fixed	2	2	1	197351	4	1	1	1	0	801	1	4	0	40	13	0	0	100
fixed	2	2	2	198891	1	2	2	1	0	856	1	4	0	48	14	0	0	100
fixed	2	2	3	200667	6	4	4	1	0	597	1	4	0	64	15	0	0	100
fixed	2	2	4	202254	2	1	1	1	0	682	1	4	0	40	16	0	0	100
fixed	2	2	5	203860	5	3	3	1	0	950	1	4	0	56	17	0	0	100
fixed	2	2	6	205431	6	4	4	1	0	1267	1	4	0	64	18	0	0	100
fixed	2	2	7	207082	3	1	1	1	0	693	1	4	0	40	19	0	0	100
fixed	2	2	8	208257	2	3	3	1	0	788	1	4	0	56	20	0	0	100
fixed	2	2	9	209499	3	2	2	1	0	447	1	4	0	48	21	0	0	100
fixed	2	2	10	210345	1	4	4	1	0	467	1	4	0	64	22	0	0	100
fixed	2	2	11	211628	5	2	2	1	0	757	1	4	0	48	23	0	0	100
fixed	2	2	12	212982	4	3	3	1	0	700	1	4	0	56	24	0	0	100
fixed	2	3	1	214928	4	1	1	1	0	761	1	4	0	40	25	0	0	100
fixed	2	3	2	216484	1	2	2	1	0	895	1	4	0	48	26	0	0	100
fixed	2	3	3	217794	6	4	4	1	0	592	1	4	0	64	27	0	0	100
fixed	2	3	4	218949	2	1	1	1	0	767	1	4	0	40	28	0	0	100
fixed	2	3	5	220093	5	3	3	1	0	766	1	4	0	56	29	0	0	100
fixed	2	3	6	221845	6	4	4	1	0	668	1	4	0	64	30	0	0	100
fixed	2	3	7	222870	3	1	1	1	0	713	1	4	0	40	31	0	0	100
fixed	2	3	8	224287	2	3	3	1	0	732	1	4	0	56	32	0	0	100
fixed	2	3	9	225767	3	2	2	1	0	550	1	4	0	48	33	0	0	100
fixed	2	3	10	226673	1	4	4	1	0	551	1	4	0	64	34	0	0	100
fixed	2	3	11	227539	5	2	2	1	0	674	1	4	0	48	35	0	0	100
fixed	2	3	12	228567	4	3	3	1	0	1047	1	4	0	56	36	0	0	100
fixed	2	4	1	230616	4	1	1	1	0	792	1	4	0	40	37	0	0	100
fixed	2	4	2	232386	1	2	2	1	0	837	1	4	0	48	38	0	0	100
fixed	2	4	3	233802	6	4	4	1	0	1002	1	4	0	64	39	0	0	100
fixed	2	4	4	235584	2	1	1	1	0	782	1	4	0	40	40	0	0	100
fixed	2	4	5	236665	5	3	3	1	0	784	1	4	0	56	41	0	0	100
fixed	2	4	6	238159	6	4	4	1	0	657	1	4	0	64	42	0	0	100
fixed	2	4	7	239294	3	1	1	1	0	625	1	4	0	40	43	0	0	100
fixed	2	4	8	240713	2	3	3	1	0	845	1	4	0	56	44	0	0	100
fixed	2	4	9	242321	3	2	2	1	0	489	1	4	0	48	45	0	0	100
fixed	2	4	10	243583	1	4	4	1	0	539	1	4	0	64	46	0	0	100
fixed	2	4	11	244819	5	2	2	1	0	799	1	4	0	48	47	0	0	100
fixed	2	4	12	246157	4	3	3	1	0	734	1	4	0	56	48	0	0	100
fixed	2	5	1	247675	4	1	1	1	0	726	1	4	0	40	49	0	0	100
fixed	2	5	2	249164	1	2	2	1	0	839	1	4	0	48	50	0	0	100
fixed	2	5	3	250718	6	4	4	1	0	589	1	4	0	64	51	0	0	100
fixed	2	5	4	251796	2	1	1	1	0	704	1	4	0	40	52	0	0	100
fixed	2	5	5	253290	5	3	3	1	0	768	1	4	0	56	53	0	0	100
fixed	2	5	6	255071	6	4	4	1	0	645	1	4	0	64	54	0	0	100
fixed	2	5	7	256483	3	1	1	1	0	1049	1	4	0	40	55	0	0	100
fixed	2	5	8	258521	2	3	3	1	0	1506	1	4	0	56	56	0	0	100
fixed	2	5	9	260705	3	2	2	1	0	830	1	4	0	48	57	0	0	100
fixed	2	5	10	262005	1	4	4	1	0	751	1	4	0	64	58	0	0	100
fixed	2	5	11	263332	5	2	2	1	0	831	1	4	0	48	59	0	0	100
fixed	2	5	12	265176	4	3	3	1	0	769	1	4	0	56	60	0	0	100
fixed	2	6	1	266838	4	1	1	1	0	570	1	4	0	40	61	0	0	100
fixed	2	6	2	268198	1	2	2	1	0	1049	1	4	0	48	62	0	0	100
fixed	2	6	3	269584	6	4	4	1	0	630	1	4	0	64	63	0	0	100
fixed	2	6	4	271059	2	1	1	1	0	640	1	4	0	40	64	0	0	100
fixed	2	6	5	272530	5	3	3	1	0	817	1	4	0	56	65	0	0	100
fixed	2	6	6	273841	6	4	4	1	0	641	1	4	0	64	66	0	0	100
fixed	2	6	7	274953	3	1	1	1	0	723	1	4	0	40	67	0	0	100
fixed	2	6	8	276528	2	3	3	1	0	752	1	4	0	56	68	0	0	100
fixed	2	6	9	277803	3	2	2	1	0	762	1	4	0	48	69	0	0	100
fixed	2	6	10	279406	1	4	4	1	0	590	1	4	0	64	70	0	0	100
fixed	2	6	11	280505	5	2	2	1	0	679	1	4	0	48	71	0	0	100
fixed	2	6	12	281925	4	3	3	1	0	923	1	4	0	56	72	0	0	100
fixed	2	7	1	283964	4	1	1	1	0	773	1	4	0	40	73	0	0	100
fixed	2	7	2	285453	1	2	2	1	0	734	1	4	0	48	74	0	0	100
fixed	2	7	3	287151	6	4	4	1	0	478	1	4	0	64	75	0	0	100
fixed	2	7	4	288482	2	1	1	1	0	662	1	4	0	40	76	0	0	100
fixed	2	7	5	290048	5	3	3	1	0	739	1	4	0	56	77	0	0	100
fixed	2	7	6	291580	6	4	4	1	0	602	1	4	0	64	78	0	0	100
fixed	2	7	7	292976	3	1	1	1	0	671	1	4	0	40	79	0	0	100
fixed	2	7	8	294335	2	3	3	1	0	734	1	4	0	56	80	0	0	100
fixed	2	7	9	295344	3	2	2	1	0	931	1	4	0	48	81	0	0	100
fixed	2	7	10	296824	1	4	4	1	0	452	1	4	0	64	82	0	0	100
fixed	2	7	11	298085	5	2	2	1	0	1375	1	4	0	48	83	0	0	100
fixed	2	7	12	299808	4	3	3	1	0	654	1	4	0	56	84	0	0	100
fixed	2	8	1	301256	4	1	1	1	0	1176	1	4	0	40	85	0	0	100
fixed	2	8	2	303328	1	2	2	1	0	904	1	4	0	48	86	0	0	100
fixed	2	8	3	304685	6	4	4	1	0	703	1	4	0	64	87	0	0	100
fixed	2	8	4	306405	2	1	1	1	0	718	1	4	0	40	88	0	0	100
fixed	2	8	5	307923	5	3	3	1	0	670	1	4	0	56	89	0	0	100
fixed	2	8	6	308904	6	4	4	1	0	765	1	4	0	64	90	0	0	100
fixed	2	8	7	310071	3	1	1	1	0	699	1	4	0	40	91	0	0	100
fixed	2	8	8	311281	2	3	3	1	0	736	1	4	0	56	92	0	0	100
fixed	2	8	9	312376	3	2	2	1	0	802	1	4	0	48	93	0	0	100
fixed	2	8	10	313991	1	4	4	1	0	741	1	4	0	64	94	0	0	100
fixed	2	8	11	315597	5	2	2	1	0	1129	1	4	0	48	95	0	0	100
fixed	2	8	12	317294	4	3	3	1	0	665	1	4	0	56	96	0	0	100
fixed	2	9	1	319050	4	1	1	1	0	703	1	4	0	40	97	0	0	100
fixed	2	9	2	320516	1	2	2	1	0	897	1	4	0	48	98	0	0	100
fixed	2	9	3	321894	6	4	4	1	0	614	1	4	0	64	99	0	0	100
fixed	2	9	4	323428	2	1	1	1	0	845	1	4	0	40	100	0	0	100
fixed	2	9	5	324636	5	3	3	1	0	842	1	4	0	56	101	0	0	100
fixed	2	9	6	326174	6	4	4	1	0	681	1	4	0	64	102	0	0	100
fixed	2	9	7	327355	3	1	1	1	0	743	1	4	0	40	103	0	0	100
fixed	2	9	8	328790	2	3	3	1	0	778	1	4	0	56	104	0	0	100
fixed	2	9	9	330373	3	2	2	1	0	583	1	4	0	48	105	0	0	100
fixed	2	9	10	331684	1	4	4	1	0	616	1	4	0	64	106	0	0	100
fixed	2	9	11	333048	5	2	2	1	0	766	1	4	0	48	107	0	0	100
fixed	2	9	12	334778	4	3	3	1	0	605	1	4	0	56	108	0	0	100
fixed	2	10	1	336560	4	1	1	1	0	1377	1	4	0	40	109	0	0	100
fixed	2	10	2	338669	1	2	2	1	0	960	1	4	0	48	110	0	0	100
fixed	2	10	3	340151	6	4	4	1	0	777	1	4	0	64	111	0	0	100
fixed	2	10	4	341575	2	1	1	2	0	781	2	4	0	40	112	0	0	100
fixed	2	10	5	343039	5	3	3	1	0	903	1	4	0	56	113	0	0	100
fixed	2	10	6	344960	6	4	4	1	0	678	1	4	0	64	114	0	0	100
fixed	2	10	7	346531	3	1	1	1	0	1147	1	4	0	40	115	0	0	100
fixed	2	10	8	348428	2	3	3	1	0	1531	1	4	0	56	116	0	0	100
fixed	2	10	9	350979	3	2	2	1	0	790	1	4	0	48	117	0	0	100
fixed	2	10	10	352101	1	4	4	1	0	855	1	4	0	64	118	0	0	100
fixed	2	10	11	353277	5	2	2	1	0	1069	1	4	0	48	119	0	0	100
fixed	2	10	12	355212	4	3	3	1	0	691	1	4	0	56	120	0	0	100
fixed	3	1	1	356841	4	1	1	1	0	798	1	4	0	72	1	0	0	100
fixed	3	1	2	358203	1	2	2	1	0	780	1	4	0	80	2	0	0	100
fixed	3	1	3	359831	6	4	4	1	0	623	1	4	0	96	3	0	0	100
fixed	3	1	4	361433	2	1	1	1	0	868	1	4	0	72	4	0	0	100
fixed	3	1	5	363098	5	3	3	1	0	669	1	4	0	88	5	0	0	100
fixed	3	1	6	364303	6	4	4	1	0	642	1	4	0	96	6	0	0	100
fixed	3	1	7	365874	3	1	1	1	0	792	1	4	0	72	7	0	0	100
fixed	3	1	8	367463	2	3	3	1	0	725	1	4	0	88	8	0	0	100
fixed	3	1	9	368968	3	2	2	1	0	629	1	4	0	80	9	0	0	100
fixed	3	1	10	370313	1	4	4	1	0	475	1	4	0	96	10	0	0	100
fixed	3	1	11	371798	5	2	2	1	0	804	1	4	0	80	11	0	0	100
fixed	3	1	12	373423	4	3	3	1	0	744	1	4	0	88	12	0	0	100
fixed	3	2	1	375037	4	1	1	1	0	907	1	4	0	72	13	0	0	100
fixed	3	2	2	376570	1	2	2	1	0	771	1	4	0	80	14	0	0	100
fixed	3	2	3	378144	6	4	4	1	0	672	1	4	0	96	15	0	0	100
fixed	3	2	4	379330	2	1	1	1	0	757	1	4	0	72	16	0	0	100
fixed	3	2	5	381115	5	3	3	1	0	794	1	4	0	88	17	0	0	100
fixed	3	2	6	382813	6	4	4	1	0	666	1	4	0	96	18	0	0	100
fixed	3	2	7	383925	3	1	1	1	0	603	1	4	0	72	19	0	0	100
fixed	3	2	8	385576	2	3	3	1	0	637	1	4	0	88	20	0	0	100
fixed	3	2	9	386879	3	2	2	1	0	478	1	4	0	80	21	0	0	100
fixed	3	2	10	387784	1	4	4	1	0	511	1	4	0	96	22	0	0	100
fixed	3	2	11	389149	5	2	2	1	0	1078	1	4	0	80	23	0	0	100
fixed	3	2	12	390572	4	3	3	1	0	522	1	4	0	88	24	0	0	100
fixed	3	3	1	391712	4	1	1	2	0	1233	2	4	0	72	25	0	0	100
fixed	3	3	2	393978	1	2	2	1	0	881	1	4	0	80	26	0	0	100
fixed	3	3	3	395665	6	4	4	1	0	746	1	4	0	96	27	0	0	100
fixed	3	3	4	396707	2	1	1	1	0	837	1	4	0	72	28	0	0	100
fixed	3	3	5	398405	5	3	3	1	0	798	1	4	0	88	29	0	0	100
fixed	3	3	6	399971	6	4	4	1	0	619	1	4	0	96	30	0	0	100
fixed	3	3	7	401211	3	1	1	1	0	695	1	4	0	72	31	0	0	100
fixed	3	3	8	402504	2	3	3	1	0	1144	1	4	0	88	32	0	0	100
fixed	3	3	9	404010	3	2	2	1	0	624	1	4	0	80	33	0	0	100
fixed	3	3	10	405445	1	4	4	1	0	475	1	4	0	96	34	0	0	100
fixed	3	3	11	406905	5	2	2	1	0	830	1	4	0	80	35	0	0	100
fixed	3	3	12	408370	4	3	3	1	0	615	1	4	0	88	36	0	0	100
fixed	3	4	1	409773	4	1	1	1	0	1228	1	4	0	72	37	0	0	100
fixed	3	4	2	411465	1	2	2	1	0	756	1	4	0	80	38	0	0	100
fixed	3	4	3	413042	6	4	4	1	0	714	1	4	0	96	39	0	0	100
fixed	3	4	4	414234	2	1	1	1	0	743	1	4	0	72	40	0	0	100
fixed	3	4	5	415498	5	3	3	1	0	722	1	4	0	88	41	0	0	100
fixed	3	4	6	416581	6	4	4	1	0	812	1	4	0	96	42	0	0	100
fixed	3	4	7	418271	3	1	1	1	0	716	1	4	0	72	43	0	0	100
fixed	3	4	8	419605	2	3	3	1	0	692	1	4	0	88	44	0	0	100
fixed	3	4	9	421252	3	2	2	1	0	358	1	4	0	80	45	0	0	100
fixed	3	4	10	422307	1	4	4	1	0	361	1	4	0	96	46	0	0	100
fixed	3	4	11	423477	5	2	2	1	0	800	1	4	0	80	47	0	0	100
fixed	3	4	12	424969	4	3	3	1	0	481	1	4	0	88	48	0	0	100
fixed	3	5	1	426430	4	1	1	1	0	578	1	4	0	72	49	0	0	100
fixed	3	5	2	427591	1	2	2	1	0	858	1	4	0	80	50	0	0	100
fixed	3	5	3	428744	6	4	4	1	0	697	1	4	0	96	51	0	0	100
fixed	3	5	4	429813	2	1	1	1	0	731	1	4	0	72	52	0	0	100
fixed	3	5	5	431413	5	3	3	1	0	728	1	4	0	88	53	0	0	100
fixed	3	5	6	433113	6	4	4	1	0	711	1	4	0	96	54	0	0	100
fixed	3	5	7	434218	3	1	1	1	0	769	1	4	0	72	55	0	0	100
fixed	3	5	8	435373	2	3	3	1	0	784	1	4	0	88	56	0	0	100
fixed	3	5	9	436917	3	2	2	1	0	807	1	4	0	80	57	0	0	100
fixed	3	5	10	438338	1	4	4	1	0	539	1	4	0	96	58	0	0	100
fixed	3	5	11	439581	5	2	2	1	0	885	1	4	0	80	59	0	0	100
fixed	3	5	12	441333	4	3	3	1	0	435	1	4	0	88	60	0	0	100
fixed	3	6	1	443071	4	1	1	1	0	738	1	4	0	72	61	0	0	100
fixed	3	6	2	444531	1	2	2	1	0	828	1	4	0	80	62	0	0	100
fixed	3	6	3	446212	6	4	4	1	0	709	1	4	0	96	63	0	0	100
fixed	3	6	4	447836	2	1	1	1	0	784	1	4	0	72	64	0	0	100
fixed	3	6	5	449553	5	3	3	1	0	751	1	4	0	88	65	0	0	100
fixed	3	6	6	450921	6	4	4	1	0	685	1	4	0	96	66	0	0	100
fixed	3	6	7	452590	3	1	1	1	0	799	1	4	0	72	67	0	0	100
fixed	3	6	8	453756	2	3	3	1	0	805	1	4	0	88	68	0	0	100
fixed	3	6	9	455437	3	2	2	1	0	798	1	4	0	80	69	0	0	100
fixed	3	6	10	457170	1	4	4	1	0	436	1	4	0	96	70	0	0	100
fixed	3	6	11	458472	5	2	2	1	0	974	1	4	0	80	71	0	0	100
fixed	3	6	12	460299	4	3	3	1	0	704	1	4	0	88	72	0	0	100
fixed	3	7	1	461784	4	1	1	1	0	737	1	4	0	72	73	0	0	100
fixed	3	7	2	463116	1	2	2	1	0	897	1	4	0	80	74	0	0	100
fixed	3	7	3	464836	6	4	4	1	0	784	1	4	0	96	75	0	0	100
fixed	3	7	4	466357	2	1	1	1	0	480	1	4	0	72	76	0	0	100
fixed	3	7	5	467230	5	3	3	1	0	658	1	4	0	88	77	0	0	100
fixed	3	7	6	468286	6	4	4	1	0	630	1	4	0	96	78	0	0	100
fixed	3	7	7	469835	3	1	1	1	0	804	1	4	0	72	79	0	0	100
fixed	3	7	8	471544	2	3	3	1	0	668	1	4	0	88	80	0	0	100
fixed	3	7	9	472550	3	2	2	1	0	489	1	4	0	80	81	0	0	100
fixed	3	7	10	474058	1	4	4	1	0	314	1	4	0	96	82	0	0	100
fixed	3	7	11	475002	5	2	2	1	0	729	1	4	0	80	83	0	0	100
fixed	3	7	12	476349	4	3	3	1	0	593	1	4	0	88	84	0	0	100
fixed	3	8	1	477723	4	1	1	1	0	702	1	4	0	72	85	0	0	100
fixed	3	8	2	478880	1	2	2	1	0	893	1	4	0	80	86	0	0	100
fixed	3	8	3	480410	6	4	4	1	0	652	1	4	0	96	87	0	0	100
fixed	3	8	4	481998	2	1	1	1	0	681	1	4	0	72	88	0	0	100
fixed	3	8	5	483611	5	3	3	1	0	725	1	4	0	88	89	0	0	100
fixed	3	8	6	485107	6	4	4	1	0	661	1	4	0	96	90	0	0	100
fixed	3	8	7	486126	3	1	1	1	0	762	1	4	0	72	91	0	0	100
fixed	3	8	8	487287	2	3	3	1	0	705	1	4	0	88	92	0	0	100
fixed	3	8	9	488352	3	2	2	1	0	508	1	4	0	80	93	0	0	100
fixed	3	8	10	489740	1	4	4	1	0	569	1	4	0	96	94	0	0	100
fixed	3	8	11	491069	5	2	2	1	0	881	1	4	0	80	95	0	0	100
fixed	3	8	12	492721	4	3	3	1	0	539	1	4	0	88	96	0	0	100
fixed	3	9	1	494313	4	1	1	1	0	759	1	4	0	72	97	0	0	100
fixed	3	9	2	495532	1	2	2	1	0	707	1	4	0	80	98	0	0	100
fixed	3	9	3	496937	6	4	4	1	0	592	1	4	0	96	99	0	0	100
fixed	3	9	4	498130	2	1	1	1	0	606	1	4	0	72	100	0	0	100
fixed	3	9	5	499160	5	3	3	1	0	794	1	4	0	88	101	0	0	100
fixed	3	9	6	500261	6	4	4	1	0	739	1	4	0	96	102	0	0	100
fixed	3	9	7	501690	3	1	1	1	0	727	1	4	0	72	103	0	0	100
fixed	3	9	8	503103	2	3	3	1	0	723	1	4	0	88	104	0	0	100
fixed	3	9	9	504869	3	2	2	1	0	633	1	4	0	80	105	0	0	100
fixed	3	9	10	505969	1	4	4	1	0	602	1	4	0	96	106	0	0	100
fixed	3	9	11	507047	5	2	2	1	0	996	1	4	0	80	107	0	0	100
fixed	3	9	12	508650	4	3	3	1	0	472	1	4	0	88	108	0	0	100
fixed	3	10	1	510303	4	1	1	1	0	586	1	4	0	72	109	0	0	100
fixed	3	10	2	511430	1	2	2	1	0	835	1	4	0	80	110	0	0	100
fixed	3	10	3	512572	6	4	4	1	0	922	1	4	0	96	111	0	0	100
fixed	3	10	4	514366	2	1	1	1	0	886	1	4	0	72	112	0	0	100
fixed	3	10	5	516062	5	3	3	1	0	1247	1	4	0	88	113	0	0	100
fixed	3	10	6	517726	6	4	4	1	0	688	1	4	0	96	114	0	0	100
fixed	3	10	7	519442	3	1	1	1	0	759	1	4	0	72	115	0	0	100
fixed	3	10	8	520727	2	3	3	1	0	888	1	4	0	88	116	0	0	100
fixed	3	10	9	521921	3	2	2	1	0	718	1	4	0	80	117	0	0	100
fixed	3	10	10	523067	1	4	4	1	0	501	1	4	0	96	118	0	0	100
fixed	3	10	11	523995	5	2	2	1	0	870	1	4	0	80	119	0	0	100
fixed	3	10	12	525869	4	3	3	1	0	1375	1	4	0	88	120	0	0	100
fixed	4	1	1	649676	4	1	1	1	0	811	1	4	0	104	1	0	0	100
fixed	4	1	2	650800	1	2	2	1	0	979	1	4	0	112	2	0	0	100
fixed	4	1	3	652731	6	4	4	1	0	642	1	4	0	128	3	0	0	100
fixed	4	1	4	654345	2	1	1	1	0	813	1	4	0	104	4	0	0	100
fixed	4	1	5	656018	5	3	3	1	0	846	1	4	0	120	5	0	0	100
fixed	4	1	6	657253	6	4	4	1	0	698	1	4	0	128	6	0	0	100
fixed	4	1	7	658631	3	1	1	1	0	767	1	4	0	104	7	0	0	100
fixed	4	1	8	660258	2	3	3	1	0	699	1	4	0	120	8	0	0	100
fixed	4	1	9	661715	3	2	2	1	0	405	1	4	0	112	9	0	0	100
fixed	4	1	10	662492	1	4	4	1	0	612	1	4	0	128	10	0	0	100
fixed	4	1	11	663435	5	2	2	1	0	932	1	4	0	112	11	0	0	100
fixed	4	1	12	665232	4	3	3	1	0	696	1	4	0	120	12	0	0	100
fixed	4	2	1	666753	4	1	1	1	0	551	1	4	0	104	13	0	0	100
fixed	4	2	2	668104	1	2	2	1	0	742	1	4	0	112	14	0	0	100
fixed	4	2	3	669269	6	4	4	1	0	669	1	4	0	128	15	0	0	100
fixed	4	2	4	670564	2	1	1	1	0	646	1	4	0	104	16	0	0	100
fixed	4	2	5	671936	5	3	3	1	0	828	1	4	0	120	17	0	0	100
fixed	4	2	6	673272	6	4	4	1	0	675	1	4	0	128	18	0	0	100
fixed	4	2	7	674949	3	1	1	1	0	533	1	4	0	104	19	0	0	100
fixed	4	2	8	676225	2	3	3	1	0	750	1	4	0	120	20	0	0	100
fixed	4	2	9	677594	3	2	2	1	0	596	1	4	0	112	21	0	0	100
fixed	4	2	10	679220	1	4	4	1	0	439	1	4	0	128	22	0	0	100
fixed	4	2	11	680681	5	2	2	1	0	890	1	4	0	112	23	0	0	100
fixed	4	2	12	682189	4	3	3	2	0	1258	2	4	0	120	24	0	0	100
fixed	4	3	1	684129	4	1	1	1	0	895	1	4	0	104	25	0	0	100
fixed	4	3	2	685971	1	2	2	1	0	802	1	4	0	112	26	0	0	100
fixed	4	3	3	687733	6	4	4	1	0	735	1	4	0	128	27	0	0	100
fixed	4	3	4	689225	2	1	1	1	0	712	1	4	0	104	28	0	0	100
fixed	4	3	5	690281	5	3	3	1	0	787	1	4	0	120	29	0	0	100
fixed	4	3	6	691370	6	4	4	1	0	701	1	4	0	128	30	0	0	100
fixed	4	3	7	692905	3	1	1	1	0	788	1	4	0	104	31	0	0	100
fixed	4	3	8	694269	2	3	3	1	0	666	1	4	0	120	32	0	0	100
fixed	4	3	9	695474	3	2	2	1	0	783	1	4	0	112	33	0	0	100
fixed	4	3	10	697181	1	4	4	1	0	447	1	4	0	128	34	0	0	100
fixed	4	3	11	698087	5	2	2	1	0	833	1	4	0	112	35	0	0	100
fixed	4	3	12	699372	4	3	3	1	0	482	1	4	0	120	36	0	0	100
fixed	4	4	1	700402	4	1	1	1	0	566	1	4	0	104	37	0	0	100
fixed	4	4	2	701823	1	2	2	1	0	786	1	4	0	112	38	0	0	100
fixed	4	4	3	703386	6	4	4	1	0	720	1	4	0	128	39	0	0	100
fixed	4	4	4	704931	2	1	1	1	0	774	1	4	0	104	40	0	0	100
fixed	4	4	5	706554	5	3	3	1	0	682	1	4	0	120	41	0	0	100
fixed	4	4	6	707648	6	4	4	1	0	692	1	4	0	128	42	0	0	100
fixed	4	4	7	709304	3	1	1	1	0	526	1	4	0	104	43	0	0	100
fixed	4	4	8	710261	2	3	3	1	0	1061	1	4	0	120	44	0	0	100
fixed	4	4	9	711986	3	2	2	1	0	612	1	4	0	112	45	0	0	100
fixed	4	4	10	713612	1	4	4	1	0	399	1	4	0	128	46	0	0	100
fixed	4	4	11	714513	5	2	2	1	0	865	1	4	0	112	47	0	0	100
fixed	4	4	12	715982	4	3	3	1	0	883	1	4	0	120	48	0	0	100
fixed	4	5	1	718079	4	1	1	1	0	537	1	4	0	104	49	0	0	100
fixed	4	5	2	719273	1	2	2	1	0	903	1	4	0	112	50	0	0	100
fixed	4	5	3	720772	6	4	4	1	0	728	1	4	0	128	51	0	0	100
fixed	4	5	4	722314	2	1	1	1	0	582	1	4	0	104	52	0	0	100
fixed	4	5	5	723270	5	3	3	1	0	814	1	4	0	120	53	0	0	100
fixed	4	5	6	724718	6	4	4	1	0	737	1	4	0	128	54	0	0	100
fixed	4	5	7	726470	3	1	1	1	0	486	1	4	0	104	55	0	0	100
fixed	4	5	8	727825	2	3	3	1	0	1021	1	4	0	120	56	0	0	100
fixed	4	5	9	729528	3	2	2	1	0	741	1	4	0	112	57	0	0	100
fixed	4	5	10	731209	1	4	4	1	0	349	1	4	0	128	58	0	0	100
fixed	4	5	11	731969	5	2	2	1	0	941	1	4	0	112	59	0	0	100
fixed	4	5	12	733720	4	3	3	1	0	699	1	4	0	120	60	0	0	100
fixed	4	6	1	735355	4	1	1	1	0	510	1	4	0	104	61	0	0	100
fixed	4	6	2	736494	1	2	2	1	0	822	1	4	0	112	62	0	0	100
fixed	4	6	3	737989	6	4	4	1	0	815	1	4	0	128	63	0	0	100
fixed	4	6	4	739118	2	1	1	1	0	847	1	4	0	104	64	0	0	100
fixed	4	6	5	740678	5	3	3	1	0	821	1	4	0	120	65	0	0	100
fixed	4	6	6	741833	6	4	4	1	0	684	1	4	0	128	66	0	0	100
fixed	4	6	7	743138	3	1	1	1	0	445	1	4	0	104	67	0	0	100
fixed	4	6	8	744213	2	3	3	1	0	599	1	4	0	120	68	0	0	100
fixed	4	6	9	745368	3	2	2	1	0	446	1	4	0	112	69	0	0	100
fixed	4	6	10	746540	1	4	4	1	0	508	1	4	0	128	70	0	0	100
fixed	4	6	11	747948	5	2	2	1	0	737	1	4	0	112	71	0	0	100
fixed	4	6	12	749364	4	3	3	1	0	629	1	4	0	120	72	0	0	100
fixed	4	7	1	750993	4	1	1	1	0	583	1	4	0	104	73	0	0	100
fixed	4	7	2	751961	1	2	2	1	0	782	1	4	0	112	74	0	0	100
fixed	4	7	3	753465	6	4	4	1	0	655	1	4	0	128	75	0	0	100
fixed	4	7	4	754925	2	1	1	1	0	641	1	4	0	104	76	0	0	100
fixed	4	7	5	756110	5	3	3	1	0	791	1	4	0	120	77	0	0	100
fixed	4	7	6	757363	6	4	4	1	0	682	1	4	0	128	78	0	0	100
fixed	4	7	7	759002	3	1	1	1	0	420	1	4	0	104	79	0	0	100
fixed	4	7	8	760285	2	3	3	1	0	974	1	4	0	120	80	0	0	100
fixed	4	7	9	762191	3	2	2	1	0	557	1	4	0	112	81	0	0	100
fixed	4	7	10	763594	1	4	4	1	0	482	1	4	0	128	82	0	0	100
fixed	4	7	11	764457	5	2	2	1	0	1333	1	4	0	112	83	0	0	100
fixed	4	7	12	766634	4	3	3	1	0	441	1	4	0	120	84	0	0	100
fixed	4	8	1	767718	4	1	1	1	0	899	1	4	0	104	85	0	0	100
fixed	4	8	2	769113	1	2	2	1	0	736	1	4	0	112	86	0	0	100
fixed	4	8	3	770668	6	4	4	1	0	718	1	4	0	128	87	0	0	100
fixed	4	8	4	771980	2	1	1	1	0	615	1	4	0	104	88	0	0	100
fixed	4	8	5	773525	5	3	3	1	0	765	1	4	0	120	89	0	0	100
fixed	4	8	6	774790	6	4	4	1	0	712	1	4	0	128	90	0	0	100
fixed	4	8	7	775899	3	1	1	1	0	641	1	4	0	104	91	0	0	100
fixed	4	8	8	777356	2	3	3	1	0	739	1	4	0	120	92	0	0	100
fixed	4	8	9	778644	3	2	2	1	0	740	1	4	0	112	93	0	0	100
fixed	4	8	10	780073	1	4	4	1	0	560	1	4	0	128	94	0	0	100
fixed	4	8	11	781071	5	2	2	1	0	1070	1	4	0	112	95	0	0	100
fixed	4	8	12	783026	4	3	3	1	0	363	1	4	0	120	96	0	0	100
fixed	4	9	1	784592	4	1	1	1	0	744	1	4	0	104	97	0	0	100
fixed	4	9	2	786266	1	2	2	1	0	745	1	4	0	112	98	0	0	100
fixed	4	9	3	787884	6	4	4	1	0	709	1	4	0	128	99	0	0	100
fixed	4	9	4	788892	2	1	1	1	0	770	1	4	0	104	100	0	0	100
fixed	4	9	5	790621	5	3	3	1	0	889	1	4	0	120	101	0	0	100
fixed	4	9	6	792261	6	4	4	1	0	899	1	4	0	128	102	0	0	100
fixed	4	9	7	794143	3	1	1	1	0	804	1	4	0	104	103	0	0	100
fixed	4	9	8	795897	2	3	3	1	0	874	1	4	0	120	104	0	0	100
fixed	4	9	9	797522	3	2	2	1	0	372	1	4	0	112	105	0	0	100
fixed	4	9	10	798593	1	4	4	1	0	423	1	4	0	128	106	0	0	100
fixed	4	9	11	800029	5	2	2	1	0	866	1	4	0	112	107	0	0	100
fixed	4	9	12	801475	4	3	3	1	0	541	1	4	0	120	108	0	0	100
fixed	4	10	1	803171	4	1	1	1	0	797	1	4	0	104	109	0	0	100
fixed	4	10	2	804938	1	2	2	1	0	859	1	4	0	112	110	0	0	100
fixed	4	10	3	806314	6	4	4	1	0	688	1	4	0	128	111	0	0	100
fixed	4	10	4	807976	2	1	1	1	0	570	1	4	0	104	112	0	0	100
fixed	4	10	5	809046	5	3	3	1	0	1061	1	4	0	120	113	0	0	100
fixed	4	10	6	811122	6	4	4	1	0	724	1	4	0	128	114	0	0	100
fixed	4	10	7	812620	3	1	1	1	0	1229	1	4	0	104	115	0	0	100
fixed	4	10	8	814874	2	3	3	1	0	910	1	4	0	120	116	0	0	100
fixed	4	10	9	816381	3	2	2	1	0	742	1	4	0	112	117	0	0	100
fixed	4	10	10	818127	1	4	4	1	0	412	1	4	0	128	118	0	0	100
fixed	4	10	11	819411	5	2	2	1	0	877	1	4	0	112	119	0	0	100
fixed	4	10	12	821135	4	3	3	1	0	373	1	4	0	120	120	0	0	100
fixed	5	1	1	822366	4	1	1	1	0	776	1	4	0	136	1	0	0	100
fixed	5	1	2	823750	1	2	2	1	0	742	1	4	0	144	2	0	0	100
fixed	5	1	3	825319	6	4	4	1	0	812	1	4	0	160	3	0	0	100
fixed	5	1	4	826749	2	1	1	1	0	703	1	4	0	136	4	0	0	100
fixed	5	1	5	828098	5	3	3	1	0	837	1	4	0	152	5	0	0	100
fixed	5	1	6	829616	6	4	4	1	0	950	1	4	0	160	6	0	0	100
fixed	5	1	7	830910	3	1	1	1	0	831	1	4	0	136	7	0	0	100
fixed	5	1	8	832096	2	3	3	1	0	892	1	4	0	152	8	0	0	100
fixed	5	1	9	833495	3	2	2	1	0	433	1	4	0	144	9	0	0	100
fixed	5	1	10	834770	1	4	4	1	0	419	1	4	0	160	10	0	0	100
fixed	5	1	11	835822	5	2	2	1	0	839	1	4	0	144	11	0	0	100
fixed	5	1	12	837701	4	3	3	1	0	495	1	4	0	152	12	0	0	100
fixed	5	2	1	839327	4	1	1	1	0	706	1	4	0	136	13	0	0	100
fixed	5	2	2	840841	1	2	2	1	0	1138	1	4	0	144	14	0	0	100
fixed	5	2	3	842958	6	4	4	1	0	576	1	4	0	160	15	0	0	100
fixed	5	2	4	844213	2	1	1	1	0	571	1	4	0	136	16	0	0	100
fixed	5	2	5	845636	5	3	3	1	0	823	1	4	0	152	17	0	0	100
fixed	5	2	6	846955	6	4	4	1	0	735	1	4	0	160	18	0	0	100
fixed	5	2	7	848044	3	1	1	1	0	761	1	4	0	136	19	0	0	100
fixed	5	2	8	849275	2	3	3	1	0	1685	1	4	0	152	20	0	0	100
fixed	5	2	9	851720	3	2	2	1	0	438	1	4	0	144	21	0	0	100
fixed	5	2	10	852595	1	4	4	1	0	880	1	4	0	160	22	0	0	100
fixed	5	2	11	854302	5	2	2	1	0	864	1	4	0	144	23	0	0	100
fixed	5	2	12	855901	4	3	3	1	0	308	1	4	0	152	24	0	0	100
fixed	5	3	1	857187	4	1	1	1	0	693	1	4	0	136	25	0	0	100
fixed	5	3	2	858657	1	2	2	1	0	879	1	4	0	144	26	0	0	100
fixed	5	3	3	860093	6	4	4	1	0	650	1	4	0	160	27	0	0	100
fixed	5	3	4	861133	2	1	1	1	0	806	1	4	0	136	28	0	0	100
fixed	5	3	5	862427	5	3	3	1	0	824	1	4	0	152	29	0	0	100
fixed	5	3	6	863803	6	4	4	1	0	741	1	4	0	160	30	0	0	100
fixed	5	3	7	865232	3	1	1	1	0	881	1	4	0	136	31	0	0	100
fixed	5	3	8	866649	2	3	3	1	0	845	1	4	0	152	32	0	0	100
fixed	5	3	9	868124	3	2	2	1	0	559	1	4	0	144	33	0	0	100
fixed	5	3	10	869180	1	4	4	1	0	506	1	4	0	160	34	0	0	100
fixed	5	3	11	869991	5	2	2	1	0	927	1	4	0	144	35	0	0	100
fixed	5	3	12	871694	4	3	3	1	0	343	1	4	0	152	36	0	0	100
fixed	5	4	1	872976	4	1	1	1	0	665	1	4	0	136	37	0	0	100
fixed	5	4	2	874649	1	2	2	1	0	1202	1	4	0	144	38	0	0	100
fixed	5	4	3	876710	6	4	4	1	0	883	1	4	0	160	39	0	0	100
fixed	5	4	4	878398	2	1	1	1	0	723	1	4	0	136	40	0	0	100
fixed	5	4	5	879847	5	3	3	1	0	1222	1	4	0	152	41	0	0	100
fixed	5	4	6	882053	6	4	4	1	0	888	1	4	0	160	42	0	0	100
fixed	5	4	7	883353	3	1	1	1	0	641	1	4	0	136	43	0	0	100
fixed	5	4	8	884962	2	3	3	1	0	877	1	4	0	152	44	0	0	100
fixed	5	4	9	886424	3	2	2	1	0	415	1	4	0	144	45	0	0	100
fixed	5	4	10	887751	1	4	4	1	0	399	1	4	0	160	46	0	0	100
fixed	5	4	11	888823	5	2	2	1	0	866	1	4	0	144	47	0	0	100
fixed	5	4	12	890397	4	3	3	1	0	679	1	4	0	152	48	0	0	100
fixed	5	5	1	892357	4	1	1	1	0	716	1	4	0	136	49	0	0	100
fixed	5	5	2	893696	1	2	2	1	0	875	1	4	0	144	50	0	0	100
fixed	5	5	3	895091	6	4	4	1	0	608	1	4	0	160	51	0	0	100
fixed	5	5	4	896309	2	1	1	1	0	653	1	4	0	136	52	0	0	100
fixed	5	5	5	897358	5	3	0	0	2	0	3	4	0	152	52	0	1	98
fixed	5	5	6	900492	6	4	4	1	0	779	1	4	0	160	53	0	1	98
fixed	5	5	7	901731	3	1	1	1	0	727	1	4	0	136	54	0	1	98
fixed	5	5	8	903131	2	3	3	1	0	867	1	4	0	152	55	0	1	98
fixed	5	5	9	904401	3	2	2	1	0	1046	1	4	0	144	56	0	1	98
fixed	5	5	10	906265	1	4	4	1	0	751	1	4	0	160	57	0	1	98
fixed	5	5	11	907640	5	2	2	1	0	869	1	4	0	144	58	0	1	98
fixed	5	5	12	908808	4	3	3	1	0	483	1	4	0	152	59	0	1	98
fixed	5	6	1	909950	4	1	1	1	0	851	1	4	0	136	60	0	1	98
fixed	5	6	2	911187	1	2	2	1	0	998	1	4	0	144	61	0	1	98
fixed	5	6	3	912513	6	4	4	1	0	726	1	4	0	160	62	0	1	98
fixed	5	6	4	914019	2	1	1	1	0	839	1	4	0	136	63	0	1	98
fixed	5	6	5	915809	5	3	3	1	0	1099	1	4	0	152	64	0	1	98
fixed	5	6	6	917723	6	4	4	1	0	682	1	4	0	160	65	0	1	98
fixed	5	6	7	919039	3	1	1	1	0	602	1	4	0	136	66	0	1	99
fixed	5	6	8	919961	2	3	3	1	0	1139	1	4	0	152	67	0	1	99
fixed	5	6	9	921570	3	2	2	1	0	543	1	4	0	144	68	0	1	99
fixed	5	6	10	922950	1	4	4	1	0	356	1	4	0	160	69	0	1	99
fixed	5	6	11	923704	5	2	2	1	0	876	1	4	0	144	70	0	1	99
fixed	5	6	12	925408	4	3	3	1	0	532	1	4	0	152	71	0	1	99
fixed	5	7	1	927075	4	1	1	1	0	782	1	4	0	136	72	0	1	99
fixed	5	7	2	928529	1	2	2	1	0	784	1	4	0	144	73	0	1	99
fixed	5	7	3	930126	6	4	4	1	0	628	1	4	0	160	74	0	1	99
fixed	5	7	4	931434	2	1	1	1	0	453	1	4	0	136	75	0	1	99
fixed	5	7	5	932241	5	3	3	1	0	835	1	4	0	152	76	0	1	99
fixed	5	7	6	933830	6	4	4	1	0	671	1	4	0	160	77	0	1	99
fixed	5	7	7	935178	3	1	1	1	0	526	1	4	0	136	78	0	1	99
fixed	5	7	8	936023	2	3	3	1	0	811	1	4	0	152	79	0	1	99
fixed	5	7	9	937201	3	2	2	1	0	520	1	4	0	144	80	0	1	99
fixed	5	7	10	938065	1	4	4	1	0	636	1	4	0	160	81	0	1	99
fixed	5	7	11	939446	5	2	2	2	0	1586	2	4	0	144	82	0	1	99
fixed	5	7	12	941996	4	3	3	1	0	861	1	4	0	152	83	0	1	99
fixed	5	8	1	943549	4	1	1	1	0	971	1	4	0	136	84	0	1	99
fixed	5	8	2	945405	1	2	2	1	0	773	1	4	0	144	85	0	1	99
fixed	5	8	3	947127	6	4	4	1	0	716	1	4	0	160	86	0	1	99
fixed	5	8	4	948260	2	1	1	1	0	868	1	4	0	136	87	0	1	99
fixed	5	8	5	949806	5	3	3	1	0	1139	1	4	0	152	88	0	1	99
fixed	5	8	6	951985	6	4	4	1	0	782	1	4	0	160	89	0	1	99
fixed	5	8	7	953329	3	1	1	1	0	637	1	4	0	136	90	0	1	99
fixed	5	8	8	954334	2	3	3	1	0	827	1	4	0	152	91	0	1	99
fixed	5	8	9	955534	3	2	2	1	0	480	1	4	0	144	92	0	1	99
fixed	5	8	10	956781	1	4	4	1	0	339	1	4	0	160	93	0	1	99
fixed	5	8	11	957833	5	2	2	1	0	902	1	4	0	144	94	0	1	99
fixed	5	8	12	959282	4	3	3	1	0	346	1	4	0	152	95	0	1	99
fixed	5	9	1	960524	4	1	1	1	0	788	1	4	0	136	96	0	1	99
fixed	5	9	2	961894	1	2	2	1	0	874	1	4	0	144	97	0	1	99
fixed	5	9	3	963673	6	4	4	1	0	671	1	4	0	160	98	0	1	99
fixed	5	9	4	965013	2	1	1	1	0	807	1	4	0	136	99	0	1	99
fixed	5	9	5	966109	5	3	3	1	0	864	1	4	0	152	100	0	1	99
fixed	5	9	6	967257	6	4	4	1	0	671	1	4	0	160	101	0	1	99
fixed	5	9	7	968683	3	1	1	1	0	467	1	4	0	136	102	0	1	99
fixed	5	9	8	969916	2	3	3	1	0	543	1	4	0	152	103	0	1	99
fixed	5	9	9	971136	3	2	2	1	0	419	1	4	0	144	104	0	1	99
fixed	5	9	10	972361	1	4	4	1	0	439	1	4	0	160	105	0	1	99
fixed	5	9	11	973361	5	2	2	1	0	797	1	4	0	144	106	0	1	99
fixed	5	9	12	974734	4	3	3	1	0	387	1	4	0	152	107	0	1	99
fixed	5	10	1	975878	4	1	1	1	0	634	1	4	0	136	108	0	1	99
fixed	5	10	2	976816	1	2	2	1	0	746	1	4	0	144	109	0	1	99
fixed	5	10	3	978022	6	4	4	1	0	664	1	4	0	160	110	0	1	99
fixed	5	10	4	979009	2	1	1	1	0	686	1	4	0	136	111	0	1	99
fixed	5	10	5	980481	5	3	3	1	0	880	1	4	0	152	112	0	1	99
fixed	5	10	6	982028	6	4	4	1	0	646	1	4	0	160	113	0	1	99
fixed	5	10	7	983253	3	1	1	1	0	538	1	4	0	136	114	0	1	99
fixed	5	10	8	984170	2	3	3	1	0	547	1	4	0	152	115	0	1	99
fixed	5	10	9	985288	3	2	2	1	0	388	1	4	0	144	116	0	1	99
fixed	5	10	10	986586	1	4	4	1	0	525	1	4	0	160	117	0	1	99
fixed	5	10	11	987600	5	2	2	1	0	770	1	4	0	144	118	0	1	99
fixed	5	10	12	989062	4	3	3	1	0	740	1	4	0	152	119	0	1	99
random	6	1	1	1083089	6	1	1	1	0	1277	1	4	0	168	1	0	0	100
random	6	1	2	1084933	4	4	4	1	0	751	1	4	0	192	2	0	0	100
random	6	1	3	1086014	2	2	0	1	2	0	3	4	0	176	2	0	1	67
random	6	1	4	1089347	3	3	3	1	0	972	1	4	0	184	3	0	1	75
random	6	1	5	1091154	5	2	2	1	0	760	1	4	0	176	4	0	1	80
random	6	1	6	1092391	1	4	4	1	0	684	1	4	0	192	5	0	1	83
random	6	1	7	1093941	6	1	1	1	0	890	1	4	0	168	6	0	1	86
random	6	1	8	1095304	2	3	3	1	0	824	1	4	0	184	7	0	1	88
random	6	1	9	1096455	4	2	2	1	0	823	1	4	0	176	8	0	1	89
random	6	1	10	1097806	1	1	1	1	0	846	1	4	0	168	9	0	1	90
random	6	1	11	1099476	5	4	4	1	0	735	1	4	0	192	10	0	1	91
random	6	1	12	1100825	3	3	3	2	0	2238	2	4	0	184	11	0	1	92
random	6	1	13	1103976	5	2	2	1	0	864	1	4	0	176	12	0	1	92
random	6	1	14	1105151	1	4	4	1	0	703	1	4	0	192	13	0	1	93
random	6	1	15	1106338	3	1	1	1	0	693	1	4	0	168	14	0	1	93
random	6	1	16	1107348	4	3	3	1	0	1234	1	4	0	184	15	0	1	94
random	6	1	17	1109276	6	4	4	1	0	720	1	4	0	192	16	0	1	94
random	6	1	18	1110739	2	1	1	1	0	691	1	4	0	168	17	0	1	94
random	6	1	19	1112277	5	3	3	1	0	1049	1	4	0	184	18	0	1	95
random	6	1	20	1113751	2	2	2	1	0	682	1	4	0	176	19	0	1	95
random	6	1	21	1115280	3	3	3	1	0	746	1	4	0	184	20	0	1	95
random	6	1	22	1116361	6	1	1	1	0	948	1	4	0	168	21	0	1	95
random	6	1	23	1118341	4	2	2	1	0	833	1	4	0	176	22	0	1	96
random	6	1	24	1119756	1	4	4	1	0	572	1	4	0	192	23	0	1	96
random	6	1	25	1121202	4	3	3	1	0	1119	1	4	0	184	24	0	1	96
random	6	1	26	1123062	2	1	1	1	0	728	1	4	0	168	25	0	1	96
random	6	1	27	1124607	5	2	2	1	0	910	1	4	0	176	26	0	1	96
random	6	1	28	1125934	6	4	4	1	0	679	1	4	0	192	27	0	1	96
random	6	1	29	1127062	1	3	3	1	0	895	1	4	0	184	28	0	1	97
random	6	1	30	1128527	5	2	2	1	0	737	1	4	0	176	29	0	1	97
random	6	1	31	1129672	2	1	1	1	0	744	1	4	0	168	30	0	1	97
random	6	1	32	1131103	3	3	3	1	0	764	1	4	0	184	31	0	1	97
random	6	1	33	1132635	6	4	4	1	0	947	1	4	0	192	32	0	1	97
random	6	1	34	1133992	4	2	2	1	0	929	1	4	0	176	33	0	1	97
random	6	1	35	1135941	3	4	4	1	0	719	1	4	0	192	34	0	1	97
random	6	1	36	1137138	1	1	1	1	0	812	1	4	0	168	35	0	1	97
random	6	1	37	1138895	3	4	4	1	0	946	1	4	0	192	36	0	1	97
random	6	1	38	1140421	5	3	3	1	0	873	1	4	0	184	37	0	1	97
random	6	1	39	1141893	6	1	1	1	0	755	1	4	0	168	38	0	1	97
random	6	1	40	1143614	1	2	2	1	0	786	1	4	0	176	39	0	1	98
random	6	1	41	1145012	2	3	3	1	0	750	1	4	0	184	40	0	1	98
random	6	1	42	1146155	4	4	4	1	0	710	1	4	0	192	41	0	1	98
random	6	1	43	1147221	1	2	2	1	0	880	1	4	0	176	42	0	1	98
random	6	1	44	1149098	6	3	3	1	0	690	1	4	0	184	43	0	1	98
random	6	1	45	1150369	3	1	1	1	0	876	1	4	0	168	44	0	1	98
random	6	1	46	1152006	4	4	4	1	0	599	1	4	0	192	45	0	1	98
random	6	1	47	1152905	2	2	2	1	0	880	1	4	0	176	46	0	1	98
random	6	1	48	1154230	5	1	1	1	0	776	1	4	0	168	47	0	1	98
random	6	1	49	1155820	2	3	3	1	0	901	1	4	0	184	48	0	1	98
random	6	1	50	1157463	3	1	1	1	0	759	1	4	0	168	49	0	1	98
random	6	1	51	1159108	1	4	4	1	0	762	1	4	0	192	50	0	1	98
random	6	1	52	1160631	5	3	3	1	0	1105	1	4	0	184	51	0	1	98
random	6	1	53	1162305	3	2	2	1	0	698	1	4	0	176	52	0	1	98
random	6	1	54	1163894	6	4	4	1	0	647	1	4	0	192	53	0	1	98
random	6	1	55	1165041	4	2	2	1	0	766	1	4	0	176	54	0	1	98
random	6	1	56	1166295	1	1	1	1	0	713	1	4	0	168	55	0	1	98
random	6	1	57	1168006	5	4	4	1	0	761	1	4	0	192	56	0	1	98
random	6	1	58	1169587	2	1	1	1	0	805	1	4	0	168	57	0	1	98
random	6	1	59	1170877	6	2	2	1	0	1055	1	4	0	176	58	0	1	98
random	6	1	60	1172796	4	3	3	1	0	726	1	4	0	184	59	0	1	98
random	6	1	61	1174449	1	2	2	1	0	991	1	4	0	176	60	0	1	98
random	6	1	62	1176339	6	4	4	1	0	632	1	4	0	192	61	0	1	98
random	6	1	63	1177910	4	1	1	1	0	773	1	4	0	168	62	0	1	98
random	6	1	64	1179542	2	2	2	1	0	1032	1	4	0	176	63	0	1	98
random	6	1	65	1181178	4	3	3	1	0	715	1	4	0	184	64	0	1	98
random	6	1	66	1182307	3	1	1	1	0	803	1	4	0	168	65	0	1	98
random	6	1	67	1183591	1	3	3	1	0	860	1	4	0	184	66	0	1	99
random	6	1	68	1184846	5	4	4	1	0	759	1	4	0	192	67	0	1	99
random	6	1	69	1186420	2	2	2	1	0	885	1	4	0	176	68	0	1	99
random	6	1	70	1187992	3	1	1	1	0	722	1	4	0	168	69	0	1	99
random	6	1	71	1189079	5	4	4	1	0	764	1	4	0	192	70	0	1	99
random	6	1	72	1190651	6	3	3	1	0	810	1	4	0	184	71	0	1	99
random	6	1	73	1192410	2	1	1	1	0	719	1	4	0	168	72	0	1	99
random	6	1	74	1193754	5	3	3	1	0	846	1	4	0	184	73	0	1	99
random	6	1	75	1195555	1	4	4	1	0	634	1	4	0	192	74	0	1	99
random	6	1	76	1197081	6	2	2	1	0	849	1	4	0	176	75	0	1	99
random	6	1	77	1198434	2	1	1	1	0	648	1	4	0	168	76	0	1	99
random	6	1	78	1199638	4	4	4	1	0	717	1	4	0	192	77	0	1	99
random	6	1	79	1200923	3	2	2	1	0	1031	1	4	0	176	78	0	1	99
random	6	1	80	1202498	4	3	3	1	0	684	1	4	0	184	79	0	1	99
random	6	1	81	1203556	1	4	4	1	0	639	1	4	0	192	80	0	1	99
random	6	1	82	1204787	5	1	1	1	0	667	1	4	0	168	81	0	1	99
random	6	1	83	1205803	3	2	2	1	0	848	1	4	0	176	82	0	1	99
random	6	1	84	1207596	6	3	3	1	0	819	1	4	0	184	83	0	1	99
random	6	1	85	1209268	3	2	2	1	0	853	1	4	0	176	84	0	1	99
random	6	1	86	1210753	1	3	3	1	0	686	1	4	0	184	85	0	1	99
random	6	1	87	1211807	4	4	4	1	0	793	1	4	0	192	86	0	1	99
random	6	1	88	1213103	2	1	1	1	0	619	1	4	0	168	87	0	1	99
random	6	1	89	1214501	6	4	4	1	0	663	1	4	0	192	88	0	1	99
random	6	1	90	1216011	3	3	3	1	0	1056	1	4	0	184	89	0	1	99
random	6	1	91	1217457	5	4	4	1	0	738	1	4	0	192	90	0	1	99
random	6	1	92	1219096	1	2	2	1	0	1061	1	4	0	176	91	0	1	99
random	6	1	93	1221123	5	1	1	1	0	815	1	4	0	168	92	0	1	99
random	6	1	94	1222687	4	3	3	1	0	813	1	4	0	184	93	0	1	99
random	6	1	95	1224487	6	1	1	1	0	736	1	4	0	168	94	0	1	99
random	6	1	96	1226063	2	2	2	1	0	1158	1	4	0	176	95	0	1	99
random	6	1	97	1228498	4	3	3	1	0	1022	1	4	0	184	96	0	1	99
random	6	1	98	1230125	3	2	2	1	0	858	1	4	0	176	97	0	1	99
random	6	1	99	1231718	6	3	3	1	0	870	1	4	0	184	98	0	1	99
random	6	1	100	1233182	1	4	4	1	0	768	1	4	0	192	99	0	1	99
random	6	1	101	1234324	4	1	1	1	0	776	1	4	0	168	100	0	1	99
random	6	1	102	1235993	5	2	2	1	0	1049	1	4	0	176	101	0	1	99
random	6	1	103	1237366	2	4	4	1	0	1207	1	4	0	192	102	0	1	99
random	6	1	104	1239081	3	1	1	1	0	782	1	4	0	168	103	0	1	99
random	6	1	105	1240763	1	3	3	1	0	1391	1	4	0	184	104	0	1	99
random	6	1	106	1242456	2	2	2	1	0	703	1	4	0	176	105	0	1	99
random	6	1	107	1243705	5	4	4	1	0	594	1	4	0	192	106	0	1	99
random	6	1	108	1244926	6	1	1	1	0	783	1	4	0	168	107	0	1	99
random	6	1	109	1246476	5	4	4	1	0	757	1	4	0	192	108	0	1	99
random	6	1	110	1247574	6	3	3	1	0	799	1	4	0	184	109	0	1	99
random	6	1	111	1249230	2	2	2	1	0	736	1	4	0	176	110	0	1	99
random	6	1	112	1250625	3	1	1	1	0	773	1	4	0	168	111	0	1	99
random	6	1	113	1252375	1	2	2	1	0	1059	1	4	0	176	112	0	1	99
random	6	1	114	1254071	2	3	3	1	0	820	1	4	0	184	113	0	1	99
random	6	1	115	1255626	3	1	1	1	0	922	1	4	0	168	114	0	1	99
random	6	1	116	1257426	4	4	4	1	0	605	1	4	0	192	115	0	1	99
random	6	1	117	1258839	6	1	1	1	0	745	1	4	0	168	116	0	1	99
random	6	1	118	1260208	5	3	3	1	0	943	1	4	0	184	117	0	1	99
random	6	1	119	1261467	1	4	4	1	0	770	1	4	0	192	118	0	1	99
random	6	1	120	1262617	4	2	2	1	0	873	1	4	0	176	119	0	1	99
fixed	7	1	1	1264384	4	1	1	1	0	1326	1	4	0	200	1	0	0	100
fixed	7	1	2	1266725	1	2	2	1	0	755	1	4	0	208	2	0	0	100
fixed	7	1	3	1267812	6	4	4	1	0	693	1	4	0	224	3	0	0	100
fixed	7	1	4	1269020	2	1	1	1	0	682	1	4	0	200	4	0	0	100
fixed	7	1	5	1270476	5	3	3	1	0	893	1	4	0	216	5	0	0	100
fixed	7	1	6	1272121	6	4	4	1	0	727	1	4	0	224	6	0	0	100
fixed	7	1	7	1273761	3	1	1	1	0	705	1	4	0	200	7	0	0	100
fixed	7	1	8	1275216	2	3	3	1	0	844	1	4	0	216	8	0	0	100
fixed	7	1	9	1276728	3	2	2	1	0	628	1	4	0	208	9	0	0	100
fixed	7	1	10	1278263	1	4	4	1	0	643	1	4	0	224	10	0	0	100
fixed	7	1	11	1279352	5	2	2	1	0	757	1	4	0	208	11	0	0	100
fixed	7	1	12	1280482	4	3	3	1	0	565	1	4	0	216	12	0	0	100
fixed	7	2	1	1282080	4	1	1	1	0	817	1	4	0	200	1	0	0	8
fixed	7	2	2	1283792	1	2	2	1	0	824	1	4	0	208	2	0	0	14
fixed	7	2	3	1285280	6	4	4	1	0	722	1	4	0	224	3	0	0	20
fixed	7	2	4	1286440	2	1	1	1	0	656	1	4	0	200	4	0	0	25
fixed	7	2	5	1287821	5	3	3	1	0	862	1	4	0	216	5	0	0	29
fixed	7	2	6	1289372	6	4	4	1	0	724	1	4	0	224	6	0	0	33
fixed	7	2	7	1290823	3	1	1	1	0	1055	1	4	0	200	7	0	0	37
fixed	7	2	8	1292353	2	3	3	1	0	798	1	4	0	216	8	0	0	40
fixed	7	2	9	1293935	3	2	2	1	0	627	1	4	0	208	9	0	0	43
fixed	7	2	10	1295412	1	4	4	1	0	676	1	4	0	224	10	0	0	45
fixed	7	2	11	1296785	5	2	2	1	0	754	1	4	0	208	11	0	0	48
fixed	7	2	12	1298439	4	3	3	1	0	764	1	4	0	216	12	0	0	50
fixed	7	3	1	1300124	4	1	1	1	0	708	1	4	0	200	1	0	0	4
fixed	7	3	2	1301760	1	2	2	1	0	751	1	4	0	208	2	0	0	8
fixed	7	3	3	1302842	6	4	4	1	0	650	1	4	0	224	3	0	0	11
fixed	7	3	4	1304319	2	1	1	1	0	731	1	4	0	200	4	0	0	14
fixed	7	3	5	1306042	5	3	3	1	0	858	1	4	0	216	5	0	0	17
fixed	7	3	6	1307637	6	4	4	1	0	711	1	4	0	224	6	0	0	20
fixed	7	3	7	1309040	3	1	1	1	0	731	1	4	0	200	7	0	0	23
fixed	7	3	8	1310781	2	3	3	1	0	834	1	4	0	216	8	0	0	25
fixed	7	3	9	1312429	3	2	2	1	0	732	1	4	0	208	9	0	0	27
fixed	7	3	10	1313829	1	4	4	1	0	544	1	4	0	224	10	0	0	29
fixed	7	3	11	1315199	5	2	2	1	0	822	1	4	0	208	11	0	0	31
fixed	7	3	12	1316771	4	3	3	1	0	780	1	4	0	216	12	0	0	33
fixed	7	4	1	1318653	4	1	1	1	0	708	1	4	0	200	1	0	0	3
fixed	7	4	2	1319889	1	2	2	1	0	743	1	4	0	208	2	0	0	5
fixed	7	4	3	1321441	6	4	4	1	0	630	1	4	0	224	3	0	0	8
fixed	7	4	4	1323025	2	1	1	1	0	659	1	4	0	200	4	0	0	10
fixed	7	4	5	1324344	5	3	3	1	0	763	1	4	0	216	5	0	0	12
fixed	7	4	6	1325733	6	4	4	1	0	664	1	4	0	224	6	0	0	14
fixed	7	4	7	1327299	3	1	1	1	0	702	1	4	0	200	7	0	0	16
fixed	7	4	8	1328766	2	3	3	1	0	672	1	4	0	216	8	0	0	18
fixed	7	4	9	1329763	3	2	2	1	0	789	1	4	0	208	9	0	0	20
fixed	7	4	10	1331493	1	4	4	1	0	676	1	4	0	224	10	0	0	22
fixed	7	4	11	1332737	5	2	2	1	0	791	1	4	0	208	11	0	0	23
fixed	7	4	12	1333924	4	3	3	1	0	749	1	4	0	216	12	0	0	25
fixed	7	5	1	1335879	4	1	1	1	0	794	1	4	0	200	1	0	0	2
fixed	7	5	2	1337544	1	2	2	1	0	652	1	4	0	208	2	0	0	4
fixed	7	5	3	1338741	6	4	4	1	0	617	1	4	0	224	3	0	0	6
fixed	7	5	4	1339767	2	1	1	1	0	622	1	4	0	200	4	0	0	8
fixed	7	5	5	1341372	5	3	3	1	0	754	1	4	0	216	5	0	0	9
fixed	7	5	6	1342690	6	4	4	1	0	698	1	4	0	224	6	0	0	11
fixed	7	5	7	1344248	3	1	1	1	0	968	1	4	0	200	7	0	0	13
fixed	7	5	8	1345659	2	3	3	1	0	796	1	4	0	216	8	0	0	14
fixed	7	5	9	1346967	3	2	2	1	0	709	1	4	0	208	9	0	0	16
fixed	7	5	10	1348629	1	4	4	1	0	678	1	4	0	224	10	0	0	17
fixed	7	5	11	1349795	5	2	2	1	0	1069	1	4	0	208	11	0	0	19
fixed	7	5	12	1351495	4	3	3	1	0	765	1	4	0	216	12	0	0	20
fixed	7	6	1	1353021	4	1	1	1	0	772	1	4	0	200	1	0	0	2
fixed	7	6	2	1354480	1	2	2	1	0	742	1	4	0	208	2	0	0	3
fixed	7	6	3	1355878	6	4	4	1	0	731	1	4	0	224	3	0	0	5
fixed	7	6	4	1357406	2	1	1	1	0	747	1	4	0	200	4	0	0	6
fixed	7	6	5	1358871	5	3	3	1	0	636	1	4	0	216	5	0	0	8
fixed	7	6	6	1359952	6	4	4	1	0	726	1	4	0	224	6	0	0	9
fixed	7	6	7	1361201	3	1	1	1	0	738	1	4	0	200	7	0	0	10
fixed	7	6	8	1362357	2	3	3	1	0	849	1	4	0	216	8	0	0	12
fixed	7	6	9	1364045	3	2	2	1	0	946	1	4	0	208	9	0	0	13
fixed	7	6	10	1365570	1	4	4	1	0	729	1	4	0	224	10	0	0	14
fixed	7	6	11	1367122	5	2	2	1	0	767	1	4	0	208	11	0	0	15
fixed	7	6	12	1368461	4	3	3	1	0	646	1	4	0	216	12	0	0	17
fixed	7	7	1	1369829	4	1	1	1	0	684	1	4	0	200	1	0	0	1
fixed	7	7	2	1371335	1	2	2	1	0	748	1	4	0	208	2	0	0	3
fixed	7	7	3	1372431	6	4	4	1	0	806	1	4	0	224	3	0	0	4
fixed	7	7	4	1373962	2	1	1	1	0	701	1	4	0	200	4	0	0	5
fixed	7	7	5	1375285	5	3	3	1	0	973	1	4	0	216	5	0	0	6
fixed	7	7	6	1377062	6	4	4	1	0	658	1	4	0	224	6	0	0	8
fixed	7	7	7	1378301	3	1	1	1	0	749	1	4	0	200	7	0	0	9
fixed	7	7	8	1379533	2	3	3	1	0	777	1	4	0	216	8	0	0	10
fixed	7	7	9	1380971	3	2	2	1	0	468	1	4	0	208	9	0	0	11
fixed	7	7	10	1382117	1	4	4	1	0	460	1	4	0	224	10	0	0	12
fixed	7	7	11	1383353	5	2	2	1	0	720	1	4	0	208	11	0	0	13
fixed	7	7	12	1384569	4	3	3	1	0	500	1	4	0	216	12	0	0	14
fixed	7	8	1	1386169	4	1	1	1	0	752	1	4	0	200	1	0	0	1
fixed	7	8	2	1387714	1	2	2	1	0	655	1	4	0	208	2	0	0	2
fixed	7	8	3	1389198	6	4	4	1	0	752	1	4	0	224	3	0	0	3
fixed	7	8	4	1390702	2	1	1	1	0	720	1	4	0	200	4	0	0	5
fixed	7	8	5	1391885	5	3	3	1	0	854	1	4	0	216	5	0	0	6
fixed	7	8	6	1393519	6	4	4	1	0	601	1	4	0	224	6	0	0	7
fixed	7	8	7	1394779	3	1	1	1	0	780	1	4	0	200	7	0	0	8
fixed	7	8	8	1396344	2	3	3	1	0	713	1	4	0	216	8	0	0	9
fixed	7	8	9	1397573	3	2	2	1	0	709	1	4	0	208	9	0	0	10
fixed	7	8	10	1399192	1	4	4	1	0	473	1	4	0	224	10	0	0	11
fixed	7	8	11	1400055	5	2	2	1	0	724	1	4	0	208	11	0	0	12
fixed	7	8	12	1401704	4	3	3	1	0	543	1	4	0	216	12	0	0	13
fixed	7	9	1	1403377	4	1	1	1	0	719	1	4	0	200	1	0	0	1
fixed	7	9	2	1404848	1	2	2	1	0	665	1	4	0	208	2	0	0	2
fixed	7	9	3	1406446	6	4	4	1	0	590	1	4	0	224	3	0	0	3
fixed	7	9	4	1407511	2	1	1	1	0	664	1	4	0	200	4	0	0	4
fixed	7	9	5	1408767	5	3	3	1	0	827	1	4	0	216	5	0	0	5
fixed	7	9	6	1410176	6	4	4	1	0	663	1	4	0	224	6	0	0	6
fixed	7	9	7	1411166	3	1	1	1	0	725	1	4	0	200	7	0	0	7
fixed	7	9	8	1412399	2	3	3	1	0	577	1	4	0	216	8	0	0	8
fixed	7	9	9	1413855	3	2	2	1	0	499	1	4	0	208	9	0	0	9
fixed	7	9	10	1415116	1	4	4	1	0	494	1	4	0	224	10	0	0	9
fixed	7	9	11	1416328	5	2	2	1	0	1035	1	4	0	208	11	0	0	10
fixed	7	9	12	1417722	4	3	3	1	0	528	1	4	0	216	12	0	0	11
fixed	7	10	1	1418949	4	1	1	1	0	1012	1	4	0	200	1	0	0	1
fixed	7	10	2	1420814	1	2	2	1	0	733	1	4	0	208	2	0	0	2
fixed	7	10	3	1422207	6	4	4	1	0	954	1	4	0	224	3	0	0	3
fixed	7	10	4	1423751	2	1	1	1	0	728	1	4	0	200	4	0	0	4
fixed	7	10	5	1425073	5	3	3	1	0	673	1	4	0	216	5	0	0	4
fixed	7	10	6	1426409	6	4	4	1	0	632	1	4	0	224	6	0	0	5
fixed	7	10	7	1427671	3	1	1	1	0	698	1	4	0	200	7	0	0	6
fixed	7	10	8	1429160	2	3	3	1	0	747	1	4	0	216	8	0	0	7
fixed	7	10	9	1430940	3	2	2	1	0	608	1	4	0	208	9	0	0	8
fixed	7	10	10	1432033	1	4	4	1	0	761	1	4	0	224	10	0	0	8
fixed	7	10	11	1433466	5	2	2	1	0	877	1	4	0	208	11	0	0	9
fixed	7	10	12	1435388	4	3	3	1	0	1115	1	4	0	216	12	0	0	10
