type	block	sequ.	trial	time	Pos.	Color	Button	NumRsp	Resp_1	RT_1	R_Code	Resp_2	RT_2	Trigg.	n_hit	n_inc	n_miss	score_%
random	0	0	0	310774	11	3	3	1	0	2447	14	0	1000	1
random	0	0	1	312800	14	1	1	1	0	2024	14	0	550	2
random	0	0	2	314505	11	3	3	1	0	1704	14	0	900	3
random	0	0	3	315990	12	0	0	1	0	1485	14	0	750	4
random	0	0	4	318147	15	2	2	1	0	2157	14	0	600	5
random	0	0	5	320178	10	0	0	1	0	2031	14	0	300	6
random	0	0	6	322231	13	1	1	1	0	2052	14	0	400	7
random	0	0	7	324121	10	2	2	1	0	1890	14	0	1000	8
random	0	0	8	325606	14	3	3	1	0	1485	14	0	500	9
random	0	0	9	327415	13	2	2	1	0	1809	14	0	800	10
random	0	1	0	330087	14	3	3	1	0	1849	14	0	650	11
random	0	1	1	331693	15	2	2	1	0	1605	14	0	600	12
random	0	1	2	333293	12	1	1	1	0	1600	14	0	300	13
random	0	1	3	335335	11	2	2	1	0	2042	14	0	1000	14
random	0	1	4	337100	15	1	0	1	0	1764	14	0	900	14
random	0	1	5	338626	10	0	0	1	0	1525	14	0	800	15
random	0	1	6	340373	11	3	2	1	0	1747	14	0	750	15
random	0	1	7	342250	10	2	2	1	0	1876	14	0	400	16
random	0	1	8	344018	13	1	1	1	0	1768	14	0	1000	17
random	0	1	9	345585	12	0	0	1	0	1567	14	0	500	18
random	0	2	0	348389	10	1	1	1	0	2081	14	0	900	19
random	0	2	1	350077	14	0	0	1	0	1687	14	0	300	20
random	0	2	2	352338	15	3	3	1	0	2261	14	0	1000	21
random	0	2	3	354101	13	0	0	1	0	1762	14	0	550	22
random	0	2	4	355926	12	2	2	1	0	1825	14	0	1000	23
random	0	2	5	357564	11	1	1	1	0	1638	14	0	400	24
random	0	2	6	359739	12	3	3	1	0	2174	14	0	600	25
random	0	2	7	361899	14	2	2	1	0	2159	14	0	500	26
random	0	2	8	363900	10	3	3	1	0	2001	14	0	750	27
random	0	2	9	365944	15	2	2	1	0	2044	14	0	650	28
random	0	3	0	368438	10	0	0	1	0	1798	14	0	900	29
random	0	3	1	370490	14	2	2	1	0	2051	14	0	300	30
random	0	3	2	372141	15	1	1	1	0	1651	14	0	1000	31
random	0	3	3	373922	13	3	3	1	0	1780	14	0	550	32
random	0	3	4	375690	12	1	1	1	0	1768	14	0	1000	33
random	0	3	5	376957	11	0	0	1	0	1267	14	0	400	34
random	0	3	6	378728	12	3	3	1	0	1771	14	0	600	35
random	0	3	7	380629	14	2	2	1	0	1901	14	0	500	36
random	0	3	8	382143	10	1	1	1	0	1514	14	0	750	37
random	0	3	9	384189	15	2	2	1	0	2045	14	0	650	38
random	0	4	0	386608	11	3	3	1	0	1821	14	0	500	39
random	0	4	1	388441	15	2	2	1	0	1832	14	0	600	40
random	0	4	2	390368	12	1	1	1	0	1927	14	0	900	41
random	0	4	3	392124	15	0	0	1	0	1756	14	0	1000	42
random	0	4	4	394238	14	3	3	1	0	2113	14	0	650	43
random	0	4	5	395957	10	1	1	1	0	1719	14	0	550	44
random	0	4	6	397588	13	3	3	1	0	1631	14	0	800	45
random	0	4	7	399324	12	0	0	1	0	1735	14	0	700	46
random	0	4	8	400952	14	2	2	1	0	1628	14	0	1000	47
random	0	4	9	402888	11	1	1	1	0	1934	14	0	300	48
random	0	5	0	405646	12	0	0	1	0	1764	14	0	1000	49
random	0	5	1	407626	14	2	2	1	0	1979	14	0	400	50
random	0	5	2	409454	10	3	3	1	0	1828	14	0	750	51
random	0	5	3	411375	14	1	1	1	0	1921	14	0	900	52
random	0	5	4	413206	11	2	2	1	0	1830	14	0	300	53
random	0	5	5	414881	10	3	3	1	0	1675	14	0	650	54
random	0	5	6	416472	13	0	0	1	0	1591	14	0	550	55
random	0	5	7	418472	15	2	2	1	0	2000	14	0	800	56
random	0	5	8	420265	13	1	1	1	0	1793	14	0	500	57
random	0	5	9	421867	12	0	0	1	0	1602	14	0	1000	58
random	0	6	0	424689	15	0	0	1	0	2126	14	0	1000	59
random	0	6	1	426597	12	2	2	1	0	1907	14	0	650	60
random	0	6	2	428258	15	1	1	1	0	1661	14	0	900	61
random	0	6	3	430027	14	2	2	1	0	1769	14	0	600	62
random	0	6	4	431780	12	0	0	1	0	1753	14	0	400	63
random	0	6	5	433842	14	3	3	1	0	2061	14	0	300	64
random	0	6	6	435524	11	1	1	1	0	1681	14	0	700	65
random	0	6	7	437359	10	3	3	1	0	1835	14	0	750	66
random	0	6	8	439306	13	1	1	1	0	1946	14	0	500	67
random	0	6	9	441193	11	2	2	1	0	1887	14	0	1000	68
fixed	1	0	0	443727	9	2	2	1	0	1746	14	0	1000	69
fixed	1	0	1	445271	12	1	1	1	0	1543	14	0	500	70
fixed	1	0	2	446937	11	0	0	1	0	1666	14	0	650	71
fixed	1	0	3	448731	14	2	2	1	0	1793	14	0	900	72
fixed	1	0	4	450402	10	3	3	1	0	1671	14	0	1000	73
fixed	1	0	5	452133	12	1	1	1	0	1731	14	0	400	74
fixed	1	0	6	453959	13	2	2	1	0	1825	14	0	550	75
fixed	1	0	7	455840	11	0	0	1	0	1880	14	0	800	76
fixed	1	0	8	458061	10	3	3	1	0	2221	14	0	600	77
fixed	1	0	9	459892	9	1	1	1	0	1830	14	0	750	78
fixed	1	1	0	462296	9	2	2	1	0	1796	14	0	1000	79
fixed	1	1	1	464187	12	1	1	1	0	1890	14	0	500	80
fixed	1	1	2	465684	11	0	0	1	0	1497	14	0	650	81
fixed	1	1	3	467577	14	2	2	1	0	1892	14	0	900	82
fixed	1	1	4	469151	10	3	3	1	0	1574	14	0	1000	83
fixed	1	1	5	470944	12	1	1	1	0	1792	14	0	400	84
fixed	1	1	6	472897	13	2	2	1	0	1953	14	0	550	85
fixed	1	1	7	474659	11	0	0	1	0	1761	14	0	800	86
fixed	1	1	8	476543	10	3	3	1	0	1884	14	0	600	87
fixed	1	1	9	478136	9	1	0	1	0	1591	14	0	750	87
fixed	1	2	0	480365	9	2	2	1	0	1542	14	0	1000	88
fixed	1	2	1	481976	12	1	1	1	0	1610	14	0	500	89
fixed	1	2	2	483647	11	0	0	1	0	1671	14	0	650	90
fixed	1	2	3	485664	14	2	2	1	0	2017	14	0	900	91
fixed	1	2	4	487388	10	3	3	1	0	1723	14	0	1000	92
fixed	1	2	5	489259	12	1	1	1	0	1871	14	0	400	93
fixed	1	2	6	490858	13	2	2	1	0	1594	14	0	550	94
fixed	1	2	7	492440	11	0	0	1	0	1582	14	0	800	95
fixed	1	2	8	493918	10	3	3	1	0	1478	14	0	600	96
fixed	1	2	9	495685	9	1	0	1	0	1767	14	0	750	96
fixed	1	3	0	498357	9	2	2	1	0	2064	14	0	1000	97
fixed	1	3	1	500103	12	1	1	1	0	1746	14	0	500	98
fixed	1	3	2	501600	11	0	0	1	0	1497	14	0	650	99
fixed	1	3	3	503604	14	2	2	1	0	2003	14	0	900	100
fixed	1	3	4	505410	10	3	3	1	0	1806	14	0	1000	101
fixed	1	3	5	507486	12	1	1	1	0	2075	14	0	400	102
fixed	1	3	6	509320	13	2	2	1	0	1833	14	0	550	103
fixed	1	3	7	511201	11	0	0	1	0	1880	14	0	800	104
fixed	1	3	8	513704	10	3	-1	1	0	2500	14	0	600	104
fixed	1	3	9	513704	9	1	3	1	0	179	14	0	750	104
fixed	1	4	0	513704	9	2	1	1	0	212	14	0	1000	104
fixed	1	4	1	513704	12	1	2	1	0	630	14	0	500	104
fixed	1	4	2	513704	11	0	1	1	0	699	14	0	650	104
fixed	1	4	3	513704	14	2	0	1	0	912	14	0	900	104
fixed	1	4	4	513704	10	3	3	1	0	1225	14	0	1000	105
fixed	1	4	5	522248	12	1	1	1	0	1538	14	0	400	106
fixed	1	4	6	524032	13	2	2	1	0	1784	14	0	550	107
fixed	1	4	7	525464	11	0	0	1	0	1432	14	0	800	108
fixed	1	4	8	527116	10	3	3	1	0	1651	14	0	600	109
fixed	1	4	9	528731	9	1	1	1	0	1615	14	0	750	110
fixed	1	5	0	530970	9	2	2	1	0	1642	14	0	1000	111
fixed	1	5	1	532081	12	1	1	1	0	1111	14	0	500	112
fixed	1	5	2	533215	11	0	0	1	0	1134	14	0	650	113
fixed	1	5	3	534972	14	2	2	1	0	1756	14	0	900	114
fixed	1	5	4	536377	10	3	3	1	0	1404	14	0	1000	115
fixed	1	5	5	538267	12	1	1	1	0	1889	14	0	400	116
fixed	1	5	6	540107	13	2	2	1	0	1840	14	0	550	117
fixed	1	5	7	541598	11	0	0	1	0	1491	14	0	800	118
fixed	1	5	8	543115	10	3	3	1	0	1517	14	0	600	119
fixed	1	5	9	545029	9	1	1	1	0	1913	14	0	750	120
fixed	1	6	0	547101	9	2	2	1	0	1425	14	0	1000	121
fixed	1	6	1	548442	12	1	1	1	0	1341	14	0	500	122
fixed	1	6	2	549691	11	0	0	1	0	1249	14	0	650	123
fixed	1	6	3	551250	14	2	2	1	0	1557	14	0	900	124
fixed	1	6	4	552606	10	3	3	1	0	1356	14	0	1000	125
fixed	1	6	5	553692	12	1	1	1	0	1086	14	0	400	126
fixed	1	6	6	555155	13	2	2	1	0	1462	14	0	550	127
fixed	1	6	7	556823	11	0	0	1	0	1668	14	0	800	128
fixed	1	6	8	558616	10	3	2	1	0	1792	14	0	600	128
fixed	1	6	9	560474	9	1	1	1	0	1858	14	0	750	129
fixed	2	0	0	562913	8	2	2	1	0	1727	14	0	1000	130
fixed	2	0	1	564598	11	1	1	1	0	1685	14	0	500	131
fixed	2	0	2	566375	10	0	0	1	0	1776	14	0	650	132
fixed	2	0	3	568238	13	2	2	1	0	1863	14	0	900	133
fixed	2	0	4	569712	9	3	3	1	0	1473	14	0	1000	134
fixed	2	0	5	571425	11	1	1	1	0	1713	14	0	400	135
fixed	2	0	6	573226	12	2	2	1	0	1800	14	0	550	136
fixed	2	0	7	575024	10	0	0	1	0	1798	14	0	800	137
fixed	2	0	8	576612	9	3	3	1	0	1587	14	0	600	138
fixed	2	0	9	578479	8	1	1	1	0	1867	14	0	750	139
fixed	2	1	0	580937	8	2	2	1	0	1801	14	0	1000	140
fixed	2	1	1	582115	11	1	1	1	0	1177	14	0	500	141
fixed	2	1	2	583896	10	0	0	1	0	1781	14	0	650	142
fixed	2	1	3	585602	13	2	2	1	0	1706	14	0	900	143
fixed	2	1	4	587458	9	3	3	1	0	1855	14	0	1000	144
fixed	2	1	5	589491	11	1	1	1	0	2033	14	0	400	145
fixed	2	1	6	591286	12	2	2	1	0	1795	14	0	550	146
fixed	2	1	7	592719	10	0	0	1	0	1432	14	0	800	147
fixed	2	1	8	594293	9	3	3	1	0	1574	14	0	600	148
fixed	2	1	9	596048	8	1	1	1	0	1753	14	0	750	149
fixed	2	2	0	599168	8	2	2	1	0	2411	14	0	1000	150
fixed	2	2	1	601366	11	1	1	1	0	2198	14	0	500	151
fixed	2	2	2	603095	10	0	0	1	0	1729	14	0	650	152
fixed	2	2	3	605310	13	2	2	1	0	2214	14	0	900	153
fixed	2	2	4	607248	9	3	3	1	0	1938	14	0	1000	154
fixed	2	2	5	609005	11	1	0	1	0	1757	14	0	400	154
fixed	2	2	6	610922	12	2	2	1	0	1917	14	0	550	155
fixed	2	2	7	612738	10	0	0	1	0	1816	14	0	800	156
fixed	2	2	8	614584	9	3	3	1	0	1846	14	0	600	157
fixed	2	2	9	616520	8	1	1	1	0	1936	14	0	750	158
fixed	2	3	0	619024	8	2	2	1	0	1784	14	0	1000	159
fixed	2	3	1	620944	11	1	1	1	0	1919	14	0	500	160
fixed	2	3	2	623119	10	0	0	1	0	2175	14	0	650	161
fixed	2	3	3	625048	13	2	2	1	0	1928	14	0	900	162
fixed	2	3	4	626772	9	3	3	1	0	1725	14	0	1000	163
fixed	2	3	5	628599	11	1	1	1	0	1826	14	0	400	164
fixed	2	3	6	630418	12	2	2	1	0	1818	14	0	550	165
fixed	2	3	7	632152	10	0	0	1	0	1734	14	0	800	166
fixed	2	3	8	634015	9	3	3	1	0	1862	14	0	600	167
fixed	2	3	9	635742	8	1	1	1	0	1727	14	0	750	168
fixed	2	4	0	638165	8	2	2	1	0	1725	14	0	1000	169
fixed	2	4	1	639963	11	1	1	1	0	1798	14	0	500	170
fixed	2	4	2	641662	10	0	0	1	0	1698	14	0	650	171
fixed	2	4	3	643688	13	2	2	1	0	2026	14	0	900	172
fixed	2	4	4	645645	9	3	3	1	0	1956	14	0	1000	173
fixed	2	4	5	647596	11	1	1	1	0	1951	14	0	400	174
fixed	2	4	6	649464	12	2	2	1	0	1868	14	0	550	175
fixed	2	4	7	651186	10	0	0	1	0	1721	14	0	800	176
fixed	2	4	8	653187	9	3	3	1	0	2001	14	0	600	177
fixed	2	4	9	654970	8	1	1	1	0	1782	14	0	750	178
fixed	2	5	0	657673	8	2	2	1	0	2023	14	0	1000	179
fixed	2	5	1	659397	11	1	1	1	0	1724	14	0	500	180
fixed	2	5	2	661017	10	0	0	1	0	1620	14	0	650	181
fixed	2	5	3	663261	13	2	2	1	0	2244	14	0	900	182
fixed	2	5	4	665256	9	3	3	1	0	1993	14	0	1000	183
fixed	2	5	5	667220	11	1	1	1	0	1963	14	0	400	184
fixed	2	5	6	668747	12	2	2	1	0	1527	14	0	550	185
fixed	2	5	7	670496	10	0	0	1	0	1748	14	0	800	186
fixed	2	5	8	672232	9	3	3	1	0	1736	14	0	600	187
fixed	2	5	9	673978	8	1	1	1	0	1745	14	0	750	188
fixed	2	6	0	676331	8	2	2	1	0	1490	14	0	1000	189
fixed	2	6	1	677939	11	1	0	1	0	1607	14	0	500	189
fixed	2	6	2	679788	10	0	0	1	0	1849	14	0	650	190
fixed	2	6	3	681820	13	2	2	1	0	2032	14	0	900	191
fixed	2	6	4	683345	9	3	3	1	0	1524	14	0	1000	192
fixed	2	6	5	684960	11	1	1	1	0	1615	14	0	400	193
fixed	2	6	6	686762	12	2	2	1	0	1802	14	0	550	194
fixed	2	6	7	688576	10	0	0	1	0	1814	14	0	800	195
fixed	2	6	8	690262	9	3	3	1	0	1685	14	0	600	196
fixed	2	6	9	692077	8	1	1	1	0	1815	14	0	750	197
fixed	3	0	0	694936	7	2	2	1	0	2089	14	0	1000	198
fixed	3	0	1	696824	10	1	1	1	0	1887	14	0	500	199
fixed	3	0	2	698692	9	0	0	1	0	1867	14	0	650	200
fixed	3	0	3	700543	12	2	2	1	0	1851	14	0	900	201
fixed	3	0	4	702216	8	3	3	1	0	1673	14	0	1000	202
fixed	3	0	5	704238	10	1	1	1	0	2021	14	0	400	203
fixed	3	0	6	706040	11	2	2	1	0	1801	14	0	550	204
fixed	3	0	7	707832	9	0	0	1	0	1792	14	0	800	205
fixed	3	0	8	709586	8	3	3	1	0	1753	14	0	600	206
fixed	3	0	9	711516	7	1	1	1	0	1930	14	0	750	207
fixed	3	1	0	713829	7	2	2	1	0	1542	14	0	1000	208
fixed	3	1	1	715782	10	1	1	1	0	1952	14	0	500	209
fixed	3	1	2	717319	9	0	0	1	0	1537	14	0	650	210
fixed	3	1	3	719408	12	2	2	1	0	2088	14	0	900	211
fixed	3	1	4	719408	8	3	3	1	0	1481	14	0	1000	212
fixed	3	1	5	722869	10	1	1	1	0	1980	14	0	400	213
fixed	3	1	6	724691	11	2	2	1	0	1821	14	0	550	214
fixed	3	1	7	726489	9	0	0	1	0	1798	14	0	800	215
fixed	3	1	8	728207	8	3	3	1	0	1718	14	0	600	216
fixed	3	1	9	730177	7	1	1	1	0	1969	14	0	750	217
fixed	3	2	0	732874	7	2	2	1	0	1930	14	0	1000	218
fixed	3	2	1	734816	10	1	1	1	0	1942	14	0	500	219
fixed	3	2	2	736213	9	0	0	1	0	1396	14	0	650	220
fixed	3	2	3	738005	12	2	2	1	0	1792	14	0	900	221
fixed	3	2	4	739435	8	3	3	1	0	1429	14	0	1000	222
fixed	3	2	5	741234	10	1	1	1	0	1798	14	0	400	223
fixed	3	2	6	743093	11	2	2	1	0	1859	14	0	550	224
fixed	3	2	7	744717	9	0	0	1	0	1623	14	0	800	225
fixed	3	2	8	746464	8	3	3	1	0	1747	14	0	600	226
fixed	3	2	9	748250	7	1	1	1	0	1786	14	0	750	227
fixed	3	3	0	750664	7	2	2	1	0	1786	14	0	1000	228
fixed	3	3	1	752056	10	1	1	1	0	1392	14	0	500	229
fixed	3	3	2	753431	9	0	0	1	0	1374	14	0	650	230
fixed	3	3	3	755577	12	2	2	1	0	2146	14	0	900	231
fixed	3	3	4	757340	8	3	3	1	0	1763	14	0	1000	232
fixed	3	3	5	759290	10	1	1	1	0	1950	14	0	400	233
fixed	3	3	6	761050	11	2	2	1	0	1759	14	0	550	234
fixed	3	3	7	762603	9	0	1	1	0	1552	14	0	800	234
fixed	3	3	8	764200	8	3	2	1	0	1596	14	0	600	234
fixed	3	3	9	766408	7	1	1	1	0	2208	14	0	750	235
fixed	3	4	0	768848	7	2	2	1	0	1760	14	0	1000	236
fixed	3	4	1	770000	10	1	1	1	0	1151	14	0	500	237
fixed	3	4	2	771394	9	0	0	1	0	1393	14	0	650	238
fixed	3	4	3	773208	12	2	2	1	0	1813	14	0	900	239
fixed	3	4	4	774958	8	3	3	1	0	1750	14	0	1000	240
fixed	3	4	5	777041	10	1	1	1	0	2083	14	0	400	241
fixed	3	4	6	778956	11	2	2	1	0	1916	14	0	550	242
fixed	3	4	7	780662	9	0	0	1	0	1705	14	0	800	243
fixed	3	4	8	782622	8	3	3	1	0	1959	14	0	600	244
fixed	3	4	9	784419	7	1	1	1	0	1797	14	0	750	245
fixed	3	5	0	786954	7	2	2	1	0	2019	14	0	1000	246
fixed	3	5	1	788319	10	1	1	1	0	1365	14	0	500	247
fixed	3	5	2	789994	9	0	0	1	0	1674	14	0	650	248
fixed	3	5	3	789994	12	2	2	1	0	1484	14	0	900	249
fixed	3	5	4	789994	8	3	3	1	0	1322	14	0	1000	250
fixed	3	5	5	794843	10	1	1	1	0	2042	14	0	400	251
fixed	3	5	6	796955	11	2	2	1	0	2112	14	0	550	252
fixed	3	5	7	798927	9	0	0	1	0	1972	14	0	800	253
fixed	3	5	8	800593	8	3	3	1	0	1666	14	0	600	254
fixed	3	5	9	802419	7	1	1	1	0	1826	14	0	750	255
fixed	3	6	0	805630	7	2	2	1	0	2402	14	0	1000	256
fixed	3	6	1	807215	10	1	1	1	0	1585	14	0	500	257
fixed	3	6	2	808514	9	0	0	1	0	1299	14	0	650	258
fixed	3	6	3	810818	12	2	2	1	0	2304	14	0	900	259
fixed	3	6	4	812162	8	3	3	1	0	1344	14	0	1000	260
fixed	3	6	5	813770	10	1	1	1	0	1607	14	0	400	261
fixed	3	6	6	815524	11	2	2	1	0	1754	14	0	550	262
fixed	3	6	7	817074	9	0	0	1	0	1550	14	0	800	263
fixed	3	6	8	818909	8	3	3	1	0	1834	14	0	600	264
fixed	3	6	9	820325	7	1	1	1	0	1416	14	0	750	265
fixed	4	0	0	823764	6	2	-1	1	0	2500	14	0	1000	265
fixed	4	0	1	823764	9	1	2	1	0	143	14	0	500	265
fixed	4	0	2	823764	8	0	1	1	0	693	14	0	650	265
fixed	4	0	3	823764	11	2	0	1	0	1249	14	0	900	265
fixed	4	0	4	823764	7	3	2	1	0	875	14	0	1000	265
fixed	4	0	5	823764	9	1	3	1	0	374	14	0	400	265
fixed	4	0	6	829841	10	2	1	1	0	1337	14	0	550	265
fixed	4	0	7	829841	8	0	2	1	0	935	14	0	800	265
fixed	4	0	8	829841	7	3	0	1	0	705	14	0	600	265
fixed	4	0	9	832782	6	1	3	1	0	1089	14	0	750	265
fixed	4	1	0	832782	6	2	1	1	0	216	14	0	1000	265
fixed	4	1	1	832782	9	1	2	1	0	543	14	0	500	265
fixed	4	1	2	832782	8	0	1	1	0	764	14	0	650	265
fixed	4	1	3	832782	11	2	0	1	0	699	14	0	900	265
fixed	4	1	4	832782	7	3	2	1	0	771	14	0	1000	265
fixed	4	1	5	832782	9	1	3	1	0	531	14	0	400	265
fixed	4	1	6	840750	10	2	1	1	0	1114	14	0	550	265
fixed	4	1	7	840750	8	0	3	1	0	1001	14	0	800	265
fixed	4	1	8	840750	7	3	1	1	0	828	14	0	600	265
fixed	4	1	9	840750	6	1	0	1	0	409	14	0	750	265
fixed	4	2	0	840750	6	2	1	1	0	574	14	0	1000	265
fixed	4	2	1	848210	9	1	-1	1	0	2500	14	0	500	265
fixed	4	2	2	850078	8	0	0	1	0	1867	14	0	650	266
fixed	4	2	3	852054	11	2	2	1	0	1976	14	0	900	267
fixed	4	2	4	853870	7	3	3	1	0	1815	14	0	1000	268
fixed	4	2	5	855977	9	1	1	1	0	2106	14	0	400	269
fixed	4	2	6	858324	10	2	2	1	0	2345	14	0	550	270
fixed	4	2	7	860527	8	0	0	1	0	2203	14	0	800	271
fixed	4	2	8	862639	7	3	3	1	0	2111	14	0	600	272
fixed	4	2	9	865004	6	1	1	1	0	2365	14	0	750	273
fixed	4	3	0	868308	6	2	2	1	0	2357	14	0	1000	274
fixed	4	3	1	870394	9	1	1	1	0	2085	14	0	500	275
fixed	4	3	2	872321	8	0	0	1	0	1927	14	0	650	276
fixed	4	3	3	874448	11	2	2	1	0	2127	14	0	900	277
fixed	4	3	4	874448	7	3	3	1	0	1639	14	0	1000	278
fixed	4	3	5	878105	9	1	1	1	0	1961	14	0	400	279
fixed	4	3	6	879931	10	2	2	1	0	1826	14	0	550	280
fixed	4	3	7	881776	8	0	0	1	0	1845	14	0	800	281
fixed	4	3	8	883905	7	3	3	1	0	2128	14	0	600	282
fixed	4	3	9	885907	6	1	1	1	0	2002	14	0	750	283
fixed	4	4	0	888952	6	2	2	1	0	2115	14	0	1000	284
fixed	4	4	1	890983	9	1	1	1	0	2031	14	0	500	285
fixed	4	4	2	893099	8	0	0	1	0	2116	14	0	650	286
fixed	4	4	3	895256	11	2	3	1	0	2156	14	0	900	286
fixed	4	4	4	895256	7	3	3	1	0	1882	14	0	1000	287
fixed	4	4	5	899296	9	1	1	1	0	2156	14	0	400	288
fixed	4	4	6	901021	10	2	2	1	0	1724	14	0	550	289
fixed	4	4	7	903096	8	0	0	1	0	2076	14	0	800	290
fixed	4	4	8	905297	7	3	3	1	0	2200	14	0	600	291
fixed	4	4	9	907496	6	1	1	1	0	2198	14	0	750	292
fixed	4	5	0	910936	6	2	2	1	0	2562	14	0	1000	293
fixed	4	5	1	913104	9	1	1	1	0	2168	14	0	500	294
fixed	4	5	2	915013	8	0	0	1	0	1908	14	0	650	295
fixed	4	5	3	917011	11	2	2	1	0	1998	14	0	900	296
fixed	4	5	4	917011	7	3	3	1	0	1830	14	0	1000	297
fixed	4	5	5	920828	9	1	1	1	0	1986	14	0	400	298
fixed	4	5	6	922635	10	2	2	1	0	1807	14	0	550	299
fixed	4	5	7	924678	8	0	0	1	0	2042	14	0	800	300
fixed	4	5	8	926706	7	3	3	1	0	2028	14	0	600	301
fixed	4	5	9	928469	6	1	1	1	0	1763	14	0	750	302
fixed	4	6	0	931379	6	2	2	1	0	2013	14	0	1000	303
fixed	4	6	1	933120	9	1	1	1	0	1740	14	0	500	304
fixed	4	6	2	935246	8	0	0	1	0	2126	14	0	650	305
fixed	4	6	3	937095	11	2	2	1	0	1848	14	0	900	306
fixed	4	6	4	937095	7	3	3	1	0	1769	14	0	1000	307
fixed	4	6	5	940725	9	1	1	1	0	1860	14	0	400	308
fixed	4	6	6	942493	10	2	2	1	0	1767	14	0	550	309
fixed	4	6	7	944155	8	0	0	1	0	1661	14	0	800	310
fixed	4	6	8	945810	7	3	3	1	0	1655	14	0	600	311
fixed	4	6	9	947664	6	1	1	1	0	1854	14	0	750	312
fixed	5	0	0	950160	5	2	2	1	0	1729	14	0	1000	313
fixed	5	0	1	952294	8	1	1	1	0	2133	14	0	500	314
fixed	5	0	2	954206	7	0	0	1	0	1912	14	0	650	315
fixed	5	0	3	956488	10	2	2	1	0	2282	14	0	900	316
fixed	5	0	4	956488	6	3	3	1	0	1487	14	0	1000	317
fixed	5	0	5	959831	8	1	1	1	0	1753	14	0	400	318
fixed	5	0	6	961841	9	2	2	1	0	2010	14	0	550	319
fixed	5	0	7	963511	7	0	0	1	0	1670	14	0	800	320
fixed	5	0	8	965191	6	3	3	1	0	1680	14	0	600	321
fixed	5	0	9	967074	5	1	1	1	0	1882	14	0	750	322
fixed	5	1	0	969804	5	2	2	1	0	2013	14	0	1000	323
fixed	5	1	1	971888	8	1	1	1	0	2083	14	0	500	324
fixed	5	1	2	973686	7	0	0	1	0	1798	14	0	650	325
fixed	5	1	3	975550	10	2	2	1	0	1863	14	0	900	326
fixed	5	1	4	977197	6	3	3	1	0	1647	14	0	1000	327
fixed	5	1	5	979338	8	1	1	1	0	2141	14	0	400	328
fixed	5	1	6	981422	9	2	2	1	0	2083	14	0	550	329
fixed	5	1	7	983436	7	0	0	1	0	2014	14	0	800	330
fixed	5	1	8	985606	6	3	3	1	0	2169	14	0	600	331
fixed	5	1	9	987674	5	1	1	1	0	2068	14	0	750	332
fixed	5	2	0	987674	5	2	2	1	0	1719	14	0	1000	333
fixed	5	2	1	992632	8	1	1	1	0	2274	14	0	500	334
fixed	5	2	2	994391	7	0	0	1	0	1759	14	0	650	335
fixed	5	2	3	996549	10	2	2	1	0	2157	14	0	900	336
fixed	5	2	4	996549	6	3	3	1	0	1973	14	0	1000	337
fixed	5	2	5	1000667	8	1	1	1	0	2145	14	0	400	338
fixed	5	2	6	1002728	9	2	2	1	0	2060	14	0	550	339
fixed	5	2	7	1004858	7	0	0	1	0	2130	14	0	800	340
fixed	5	2	8	1006932	6	3	3	1	0	2074	14	0	600	341
fixed	5	2	9	1008908	5	1	1	1	0	1975	14	0	750	342
fixed	5	3	0	1012446	5	2	2	1	0	2463	14	0	1000	343
fixed	5	3	1	1014404	8	1	1	1	0	1957	14	0	500	344
fixed	5	3	2	1016147	7	0	0	1	0	1742	14	0	650	345
fixed	5	3	3	1018212	10	2	2	1	0	2065	14	0	900	346
fixed	5	3	4	1019951	6	3	3	1	0	1739	14	0	1000	347
fixed	5	3	5	1021739	8	1	1	1	0	1788	14	0	400	348
fixed	5	3	6	1023651	9	2	2	1	0	1912	14	0	550	349
fixed	5	3	7	1025629	7	0	0	1	0	1978	14	0	800	350
fixed	5	3	8	1027764	6	3	3	1	0	2134	14	0	600	351
fixed	5	3	9	1029755	5	1	1	1	0	1991	14	0	750	352
fixed	5	4	0	1029755	5	2	2	1	0	1681	14	0	1000	353
fixed	5	4	1	1034102	8	1	1	1	0	1812	14	0	500	354
fixed	5	4	2	1035608	7	0	0	1	0	1506	14	0	650	355
fixed	5	4	3	1037451	10	2	2	1	0	1842	14	0	900	356
fixed	5	4	4	1037451	6	3	3	1	0	1679	14	0	1000	357
fixed	5	4	5	1041271	8	1	0	1	0	1970	14	0	400	357
fixed	5	4	6	1043522	9	2	2	1	0	2251	14	0	550	358
fixed	5	4	7	1045789	7	0	0	1	0	2266	14	0	800	359
fixed	5	4	8	1047673	6	3	3	1	0	1883	14	0	600	360
fixed	5	4	9	1049359	5	1	1	1	0	1686	14	0	750	361
fixed	5	5	0	1052135	5	2	2	1	0	1782	14	0	1000	362
fixed	5	5	1	1053833	8	1	1	1	0	1697	14	0	500	363
fixed	5	5	2	1055635	7	0	0	1	0	1802	14	0	650	364
fixed	5	5	3	1057878	10	2	2	1	0	2243	14	0	900	365
fixed	5	5	4	1057878	6	3	3	1	0	1590	14	0	1000	366
fixed	5	5	5	1061032	8	1	1	1	0	1563	14	0	400	367
fixed	5	5	6	1062988	9	2	2	1	0	1956	14	0	550	368
fixed	5	5	7	1064862	7	0	0	1	0	1874	14	0	800	369
fixed	5	5	8	1066829	6	3	3	1	0	1967	14	0	600	370
fixed	5	5	9	1068415	5	1	1	1	0	1586	14	0	750	371
fixed	5	6	0	1068415	5	2	2	1	0	1749	14	0	1000	372
fixed	5	6	1	1072885	8	1	1	1	0	1823	14	0	500	373
fixed	5	6	2	1074670	7	0	0	1	0	1784	14	0	650	374
fixed	5	6	3	1076988	10	2	2	1	0	2318	14	0	900	375
fixed	5	6	4	1078663	6	3	3	1	0	1675	14	0	1000	376
fixed	5	6	5	1080912	8	1	1	1	0	2248	14	0	400	377
fixed	5	6	6	1082852	9	2	2	1	0	1940	14	0	550	378
fixed	5	6	7	1084444	7	0	0	1	0	1592	14	0	800	379
fixed	5	6	8	1086318	6	3	2	1	0	1873	14	0	600	379
fixed	5	6	9	1086318	5	1	2	1	0	481	14	0	750	379
random	6	0	0	1091436	5	3	3	1	0	2526	14	0	1000	380
random	6	0	1	1093190	8	1	0	1	0	1753	14	0	550	380
random	6	0	2	1095198	5	3	3	1	0	2007	14	0	900	381
random	6	0	3	1097291	6	0	0	1	0	2093	14	0	750	382
random	6	0	4	1099092	9	2	2	1	0	1801	14	0	600	383
random	6	0	5	1101483	4	0	0	1	0	2391	14	0	300	384
random	6	0	6	1103157	7	1	1	1	0	1674	14	0	400	385
random	6	0	7	1103157	4	2	2	1	0	1824	14	0	1000	386
random	6	0	8	1106814	8	3	3	1	0	1831	14	0	500	387
random	6	0	9	1108987	7	2	2	1	0	2173	14	0	800	388
random	6	1	0	1111792	8	3	3	1	0	1976	14	0	650	389
random	6	1	1	1113649	9	2	2	1	0	1856	14	0	600	390
random	6	1	2	1115587	6	1	1	1	0	1938	14	0	300	391
random	6	1	3	1117518	5	2	2	1	0	1931	14	0	1000	392
random	6	1	4	1119351	9	1	1	1	0	1833	14	0	900	393
random	6	1	5	1121274	4	0	0	1	0	1922	14	0	800	394
random	6	1	6	1123207	5	3	3	1	0	1933	14	0	750	395
random	6	1	7	1124885	4	2	2	1	0	1677	14	0	400	396
random	6	1	8	1126310	7	1	1	1	0	1425	14	0	1000	397
random	6	1	9	1128117	6	0	0	1	0	1807	14	0	500	398
random	6	2	0	1130774	4	1	1	1	0	1853	14	0	900	399
random	6	2	1	1132414	8	0	0	1	0	1640	14	0	300	400
random	6	2	2	1134357	9	3	3	1	0	1942	14	0	1000	401
random	6	2	3	1136365	7	0	0	1	0	2007	14	0	550	402
random	6	2	4	1138247	6	2	2	1	0	1881	14	0	1000	403
random	6	2	5	1140200	5	1	1	1	0	1953	14	0	400	404
random	6	2	6	1141895	6	3	3	1	0	1695	14	0	600	405
random	6	2	7	1143730	8	2	2	1	0	1834	14	0	500	406
random	6	2	8	1145490	4	3	3	1	0	1760	14	0	750	407
random	6	2	9	1147244	9	2	2	1	0	1754	14	0	650	408
random	6	3	0	1149805	4	0	0	1	0	1784	14	0	900	409
random	6	3	1	1151659	8	2	2	1	0	1854	14	0	300	410
random	6	3	2	1151659	9	1	1	1	0	1520	14	0	1000	411
random	6	3	3	1155304	7	3	3	1	0	1930	14	0	550	412
random	6	3	4	1157050	6	1	1	1	0	1746	14	0	1000	413
random	6	3	5	1158767	5	0	0	1	0	1716	14	0	400	414
random	6	3	6	1160063	6	3	2	1	0	1296	14	0	600	414
random	6	3	7	1161634	8	2	2	1	0	1571	14	0	500	415
random	6	3	8	1163274	4	1	1	1	0	1640	14	0	750	416
random	6	3	9	1165118	9	2	2	1	0	1843	14	0	650	417
random	6	4	0	1167958	5	3	3	1	0	1951	14	0	500	418
random	6	4	1	1169779	9	2	2	1	0	1820	14	0	600	419
random	6	4	2	1171604	6	1	1	1	0	1825	14	0	900	420
random	6	4	3	1173500	9	0	0	1	0	1895	14	0	1000	421
random	6	4	4	1175193	8	3	3	1	0	1693	14	0	650	422
random	6	4	5	1177285	4	1	1	1	0	2092	14	0	550	423
random	6	4	6	1178944	7	3	2	1	0	1658	14	0	800	423
random	6	4	7	1181178	6	0	0	1	0	2234	14	0	700	424
random	6	4	8	1183212	8	2	2	1	0	2034	14	0	1000	425
random	6	4	9	1185116	5	1	1	1	0	1904	14	0	300	426
random	6	5	0	1187729	6	0	0	1	0	1953	14	0	1000	427
random	6	5	1	1190184	8	2	2	1	0	2455	14	0	400	428
random	6	5	2	1191809	4	3	3	1	0	1625	14	0	750	429
random	6	5	3	1193698	8	1	1	1	0	1889	14	0	900	430
random	6	5	4	1195344	5	2	2	1	0	1646	14	0	300	431
random	6	5	5	1197225	4	3	3	1	0	1880	14	0	650	432
random	6	5	6	1199032	7	0	0	1	0	1806	14	0	550	433
random	6	5	7	1200950	9	2	2	1	0	1918	14	0	800	434
random	6	5	8	1203301	7	1	1	1	0	2351	14	0	500	435
random	6	5	9	1205234	6	0	0	1	0	1932	14	0	1000	436
random	6	6	0	1207854	9	0	0	1	0	1897	14	0	1000	437
random	6	6	1	1209686	6	2	2	1	0	1832	14	0	650	438
random	6	6	2	1211828	9	1	1	1	0	2141	14	0	900	439
random	6	6	3	1214105	8	2	2	1	0	2276	14	0	600	440
random	6	6	4	1215656	6	0	0	1	0	1551	14	0	400	441
random	6	6	5	1217496	8	3	2	1	0	1840	14	0	300	441
random	6	6	6	1219683	5	1	1	1	0	2187	14	0	700	442
random	6	6	7	1221675	4	3	3	1	0	1992	14	0	750	443
random	6	6	8	1223613	7	1	0	1	0	1937	14	0	500	443
random	6	6	9	1225627	5	2	2	1	0	2014	14	0	1000	444
fixed	7	0	0	1229024	3	2	2	1	0	2146	14	0	1000	445
fixed	7	0	1	1231161	6	1	1	1	0	2137	14	0	500	446
fixed	7	0	2	1232875	5	0	0	1	0	1713	14	0	650	447
fixed	7	0	3	1234817	8	2	2	1	0	1942	14	0	900	448
fixed	7	0	4	1234817	4	3	3	1	0	1665	14	0	1000	449
fixed	7	0	5	1238665	6	1	1	1	0	2182	14	0	400	450
fixed	7	0	6	1240613	7	2	2	1	0	1947	14	0	550	451
fixed	7	0	7	1242225	5	0	0	1	0	1611	14	0	800	452
fixed	7	0	8	1244324	4	3	3	1	0	2099	14	0	600	453
fixed	7	0	9	1246199	3	1	1	1	0	1874	14	0	750	454
fixed	7	1	0	1248765	3	2	2	1	0	1879	14	0	1000	455
fixed	7	1	1	1250724	6	1	1	1	0	1958	14	0	500	456
fixed	7	1	2	1252591	5	0	0	1	0	1867	14	0	650	457
fixed	7	1	3	1254781	8	2	2	1	0	2190	14	0	900	458
fixed	7	1	4	1256672	4	3	3	1	0	1891	14	0	1000	459
fixed	7	1	5	1258876	6	1	1	1	0	2203	14	0	400	460
fixed	7	1	6	1260701	7	2	2	1	0	1824	14	0	550	461
fixed	7	1	7	1262960	5	0	0	1	0	2258	14	0	800	462
fixed	7	1	8	1265276	4	3	3	1	0	2316	14	0	600	463
fixed	7	1	9	1267212	3	1	1	1	0	1936	14	0	750	464
fixed	7	2	0	1270086	3	2	2	1	0	2093	14	0	1000	465
fixed	7	2	1	1272074	6	1	1	1	0	1987	14	0	500	466
fixed	7	2	2	1274113	5	0	0	1	0	2039	14	0	650	467
fixed	7	2	3	1276029	8	2	2	1	0	1916	14	0	900	468
fixed	7	2	4	1277929	4	3	3	1	0	1900	14	0	1000	469
fixed	7	2	5	1279753	6	1	1	1	0	1823	14	0	400	470
fixed	7	2	6	1281831	7	2	2	1	0	2078	14	0	550	471
fixed	7	2	7	1283921	5	0	0	1	0	2090	14	0	800	472
fixed	7	2	8	1286194	4	3	3	1	0	2272	14	0	600	473
fixed	7	2	9	1288152	3	1	1	1	0	1958	14	0	750	474
fixed	7	3	0	1290976	3	2	2	1	0	1849	14	0	1000	475
fixed	7	3	1	1292832	6	1	1	1	0	1856	14	0	500	476
fixed	7	3	2	1294977	5	0	0	1	0	2144	14	0	650	477
fixed	7	3	3	1297560	8	2	2	1	0	2584	14	0	900	478
fixed	7	3	4	1299615	4	3	3	1	0	2054	14	0	1000	479
fixed	7	3	5	1301827	6	1	1	1	0	2212	14	0	400	480
fixed	7	3	6	1303605	7	2	2	1	0	1778	14	0	550	481
fixed	7	3	7	1305261	5	0	0	1	0	1655	14	0	800	482
fixed	7	3	8	1307215	4	3	3	1	0	1954	14	0	600	483
fixed	7	3	9	1309092	3	1	1	1	0	1876	14	0	750	484
fixed	7	4	0	1312120	3	2	2	1	0	2059	14	0	1000	485
fixed	7	4	1	1314426	6	1	1	1	0	2306	14	0	500	486
fixed	7	4	2	1316364	5	0	0	1	0	1937	14	0	650	487
fixed	7	4	3	1318689	8	2	2	1	0	2325	14	0	900	488
fixed	7	4	4	1320582	4	3	3	1	0	1893	14	0	1000	489
fixed	7	4	5	1322310	6	1	1	1	0	1727	14	0	400	490
fixed	7	4	6	1324013	7	2	2	1	0	1703	14	0	550	491
fixed	7	4	7	1326189	5	0	0	1	0	2175	14	0	800	492
fixed	7	4	8	1327751	4	3	3	1	0	1562	14	0	600	493
fixed	7	4	9	1329673	3	1	1	1	0	1922	14	0	750	494
fixed	7	5	0	1329673	3	2	2	1	0	2057	14	0	1000	495
fixed	7	5	1	1334486	6	1	1	1	0	2023	14	0	500	496
fixed	7	5	2	1336341	5	0	0	1	0	1855	14	0	650	497
fixed	7	5	3	1338262	8	2	2	1	0	1921	14	0	900	498
fixed	7	5	4	1340142	4	3	3	1	0	1879	14	0	1000	499
fixed	7	5	5	1342112	6	1	1	1	0	1969	14	0	400	500
fixed	7	5	6	1344227	7	2	2	1	0	2115	14	0	550	501
fixed	7	5	7	1345944	5	0	0	1	0	1717	14	0	800	502
fixed	7	5	8	1348073	4	3	3	1	0	2128	14	0	600	503
fixed	7	5	9	1348073	3	1	1	1	0	2506	14	0	750	504
fixed	7	6	0	1355450	3	2	-1	1	0	2500	14	0	1000	504
fixed	7	6	1	1355450	6	1	2	1	0	199	14	0	500	504
fixed	7	6	2	1355450	5	0	1	1	0	1094	14	0	650	504
fixed	7	6	3	1355450	8	2	2	1	0	3454	14	0	900	505
fixed	7	6	4	1355450	4	3	3	1	0	2651	14	0	1000	506
fixed	7	6	5	1367157	6	1	1	1	0	2403	14	0	400	507
fixed	7	6	6	1369423	7	2	2	1	0	2266	14	0	550	508
fixed	7	6	7	1372059	5	0	-1	1	0	2500	14	0	800	508
fixed	7	6	8	1372059	4	3	0	1	0	147	14	0	600	508
fixed	7	6	9	1372059	3	1	2	1	0	990	14	0	750	508
