type	block	sequ.	trial	time	Pos.	Color	Button	NumRsp	Resp_1	RT_1	R_Code	Resp_2	RT_2	Trigg.	n_hit	n_inc	n_miss	score_%
random	0	0	0	66782	11	3	-1	1	0	2500	14	0	1000	0
random	0	0	1	66782	14	1	3	1	0	127	14	0	550	0
random	0	0	2	66782	11	3	1	1	0	703	14	0	900	0
random	0	0	3	66782	12	0	3	1	0	578	14	0	750	0
random	0	0	4	66782	15	2	0	1	0	439	14	0	600	0
random	0	0	5	71993	10	0	0	1	0	2185	14	0	300	1
random	0	0	6	73269	13	1	1	1	0	1276	14	0	400	2
random	0	0	7	73269	10	2	2	1	0	1020	14	0	1000	3
random	0	0	8	75572	14	3	3	1	0	1282	14	0	500	4
random	0	0	9	76774	13	2	2	1	0	1201	14	0	800	5
random	0	1	0	78724	14	3	3	1	0	1472	14	0	650	6
random	0	1	1	79731	15	2	2	1	0	1008	14	0	600	7
random	0	1	2	80909	12	1	1	1	0	1177	14	0	300	8
random	0	1	3	82113	11	2	2	1	0	1204	14	0	1000	9
random	0	1	4	83307	15	1	1	1	0	1194	14	0	900	10
random	0	1	5	84227	10	0	0	1	0	919	14	0	800	11
random	0	1	6	85319	11	3	3	1	0	1092	14	0	750	12
random	0	1	7	86478	10	2	2	1	0	1159	14	0	400	13
random	0	1	8	86478	13	1	1	1	0	978	14	0	1000	14
random	0	1	9	88252	12	0	0	1	0	749	14	0	500	15
random	0	2	0	90610	10	1	1	1	0	1863	14	0	900	16
random	0	2	1	91757	14	0	0	1	0	1146	14	0	300	17
random	0	2	2	93002	15	3	2	1	0	1245	14	0	1000	17
random	0	2	3	94388	13	0	0	1	0	1386	14	0	550	18
random	0	2	4	95728	12	2	2	1	0	1340	14	0	1000	19
random	0	2	5	96894	11	1	1	1	0	1166	14	0	400	20
random	0	2	6	98021	12	3	3	1	0	1127	14	0	600	21
random	0	2	7	99208	14	2	2	1	0	1187	14	0	500	22
random	0	2	8	100321	10	3	3	1	0	1112	14	0	750	23
random	0	2	9	101700	15	2	3	1	0	1379	14	0	650	23
random	0	3	0	103524	10	0	0	1	0	1366	14	0	900	24
random	0	3	1	104742	14	2	2	1	0	1218	14	0	300	25
random	0	3	2	106007	15	1	1	1	0	1265	14	0	1000	26
random	0	3	3	107193	13	3	3	1	0	1186	14	0	550	27
random	0	3	4	108271	12	1	1	1	0	1077	14	0	1000	28
random	0	3	5	109187	11	0	0	1	0	916	14	0	400	29
random	0	3	6	110176	12	3	3	1	0	988	14	0	600	30
random	0	3	7	111162	14	2	2	1	0	986	14	0	500	31
random	0	3	8	112387	10	1	1	1	0	1225	14	0	750	32
random	0	3	9	113539	15	2	2	1	0	1151	14	0	650	33
random	0	4	0	115371	11	3	3	1	0	1280	14	0	500	34
random	0	4	1	116692	15	2	2	1	0	1321	14	0	600	35
random	0	4	2	117894	12	1	1	1	0	1201	14	0	900	36
random	0	4	3	117894	15	0	0	1	0	763	14	0	1000	37
random	0	4	4	120059	14	3	3	1	0	1149	14	0	650	38
random	0	4	5	121665	10	1	1	1	0	1606	14	0	550	39
random	0	4	6	122959	13	3	3	1	0	1294	14	0	800	40
random	0	4	7	124000	12	0	0	1	0	1041	14	0	700	41
random	0	4	8	125061	14	2	2	1	0	1061	14	0	1000	42
random	0	4	9	126299	11	1	1	1	0	1238	14	0	300	43
random	0	5	0	126299	12	0	0	1	0	1038	14	0	1000	44
random	0	5	1	129155	14	2	2	1	0	1336	14	0	400	45
random	0	5	2	130276	10	3	3	1	0	1121	14	0	750	46
random	0	5	3	131409	14	1	1	1	0	1133	14	0	900	47
random	0	5	4	132496	11	2	2	1	0	1086	14	0	300	48
random	0	5	5	133660	10	3	3	1	0	1164	14	0	650	49
random	0	5	6	134940	13	0	0	1	0	1280	14	0	550	50
random	0	5	7	136178	15	2	2	1	0	1237	14	0	800	51
random	0	5	8	137507	13	1	1	1	0	1329	14	0	500	52
random	0	5	9	138589	12	0	0	1	0	1082	14	0	1000	53
random	0	6	0	138589	15	0	0	1	0	1022	14	0	1000	54
random	0	6	1	141323	12	2	2	1	0	1253	14	0	650	55
random	0	6	2	142642	15	1	1	1	0	1319	14	0	900	56
random	0	6	3	143767	14	2	2	1	0	1125	14	0	600	57
random	0	6	4	144842	12	0	0	1	0	1075	14	0	400	58
random	0	6	5	145959	14	3	3	1	0	1116	14	0	300	59
random	0	6	6	147056	11	1	1	1	0	1096	14	0	700	60
random	0	6	7	148181	10	3	2	1	0	1124	14	0	750	60
random	0	6	8	149630	13	1	1	1	0	1449	14	0	500	61
random	0	6	9	149630	11	2	3	1	0	1068	14	0	1000	61
fixed	1	0	0	152676	9	2	2	1	0	1479	14	0	1000	62
fixed	1	0	1	153844	12	1	1	1	0	1168	14	0	500	63
fixed	1	0	2	154603	11	0	0	1	0	758	14	0	650	64
fixed	1	0	3	155790	14	2	2	1	0	1188	14	0	900	65
fixed	1	0	4	156928	10	3	3	1	0	1137	14	0	1000	66
fixed	1	0	5	158205	12	1	1	1	0	1276	14	0	400	67
fixed	1	0	6	159350	13	2	2	1	0	1145	14	0	550	68
fixed	1	0	7	160354	11	0	0	1	0	1004	14	0	800	69
fixed	1	0	8	161594	10	3	3	1	0	1240	14	0	600	70
fixed	1	0	9	162772	9	1	1	1	0	1178	14	0	750	71
fixed	1	1	0	164666	9	2	2	1	0	1471	14	0	1000	72
fixed	1	1	1	165751	12	1	1	1	0	1085	14	0	500	73
fixed	1	1	2	166528	11	0	0	1	0	777	14	0	650	74
fixed	1	1	3	167656	14	2	2	1	0	1128	14	0	900	75
fixed	1	1	4	167656	10	3	3	1	0	800	14	0	1000	76
fixed	1	1	5	169971	12	1	1	1	0	1278	14	0	400	77
fixed	1	1	6	171122	13	2	2	1	0	1151	14	0	550	78
fixed	1	1	7	172460	11	0	0	1	0	1337	14	0	800	79
fixed	1	1	8	173506	10	3	3	1	0	1046	14	0	600	80
fixed	1	1	9	174757	9	1	1	1	0	1250	14	0	750	81
fixed	1	2	0	176479	9	2	2	1	0	1205	14	0	1000	82
fixed	1	2	1	177268	12	1	1	1	0	789	14	0	500	83
fixed	1	2	2	178069	11	0	0	1	0	801	14	0	650	84
fixed	1	2	3	179129	14	2	2	1	0	1060	14	0	900	85
fixed	1	2	4	179129	10	3	3	1	0	754	14	0	1000	86
fixed	1	2	5	181352	12	1	1	1	0	1178	14	0	400	87
fixed	1	2	6	182545	13	2	2	1	0	1193	14	0	550	88
fixed	1	2	7	183475	11	0	0	1	0	930	14	0	800	89
fixed	1	2	8	184742	10	3	3	1	0	1266	14	0	600	90
fixed	1	2	9	185935	9	1	1	1	0	1193	14	0	750	91
fixed	1	3	0	187508	9	2	2	1	0	1110	14	0	1000	92
fixed	1	3	1	188233	12	1	0	1	0	724	14	0	500	92
fixed	1	3	2	189155	11	0	0	1	0	922	14	0	650	93
fixed	1	3	3	190378	14	2	2	1	0	1222	14	0	900	94
fixed	1	3	4	190378	10	3	3	1	0	697	14	0	1000	95
fixed	1	3	5	192710	12	1	1	1	0	1287	14	0	400	96
fixed	1	3	6	193901	13	2	2	1	0	1191	14	0	550	97
fixed	1	3	7	194941	11	0	0	1	0	1039	14	0	800	98
fixed	1	3	8	196075	10	3	3	1	0	1134	14	0	600	99
fixed	1	3	9	197326	9	1	1	1	0	1250	14	0	750	100
fixed	1	4	0	199121	9	2	2	1	0	1248	14	0	1000	101
fixed	1	4	1	199845	12	1	1	1	0	724	14	0	500	102
fixed	1	4	2	199845	11	0	0	1	0	642	14	0	650	103
fixed	1	4	3	199845	14	2	2	1	0	900	14	0	900	104
fixed	1	4	4	199845	10	3	3	1	0	683	14	0	1000	105
fixed	1	4	5	203639	12	1	1	1	0	1188	14	0	400	106
fixed	1	4	6	204646	13	2	2	1	0	1006	14	0	550	107
fixed	1	4	7	205677	11	0	0	1	0	1031	14	0	800	108
fixed	1	4	8	206519	10	3	3	1	0	841	14	0	600	109
fixed	1	4	9	207758	9	1	1	1	0	1239	14	0	750	110
fixed	1	5	0	210190	9	2	2	1	0	1946	14	0	1000	111
fixed	1	5	1	210925	12	1	1	1	0	735	14	0	500	112
fixed	1	5	2	211658	11	0	0	1	0	733	14	0	650	113
fixed	1	5	3	212676	14	2	2	1	0	1017	14	0	900	114
fixed	1	5	4	212676	10	3	3	1	0	650	14	0	1000	115
fixed	1	5	5	214312	12	1	1	1	0	627	14	0	400	116
fixed	1	5	6	215176	13	2	2	1	0	864	14	0	550	117
fixed	1	5	7	216140	11	0	0	1	0	963	14	0	800	118
fixed	1	5	8	217202	10	3	3	1	0	1061	14	0	600	119
fixed	1	5	9	218569	9	1	1	1	0	1367	14	0	750	120
fixed	1	6	0	220360	9	2	2	1	0	1303	14	0	1000	121
fixed	1	6	1	221000	12	1	1	1	0	639	14	0	500	122
fixed	1	6	2	221744	11	0	0	1	0	744	14	0	650	123
fixed	1	6	3	222699	14	2	2	1	0	955	14	0	900	124
fixed	1	6	4	222699	10	3	3	1	0	677	14	0	1000	125
fixed	1	6	5	225119	12	1	1	1	0	1372	14	0	400	126
fixed	1	6	6	226274	13	2	2	1	0	1155	14	0	550	127
fixed	1	6	7	227277	11	0	0	1	0	1002	14	0	800	128
fixed	1	6	8	228514	10	3	3	1	0	1237	14	0	600	129
fixed	1	6	9	230242	9	1	1	1	0	1728	14	0	750	130
fixed	2	0	0	231728	8	2	2	1	0	1045	14	0	1000	131
fixed	2	0	1	232394	11	1	1	1	0	665	14	0	500	132
fixed	2	0	2	232394	10	0	0	1	0	638	14	0	650	133
fixed	2	0	3	234127	13	2	2	1	0	1051	14	0	900	134
fixed	2	0	4	234127	9	3	3	1	0	648	14	0	1000	135
fixed	2	0	5	236328	11	1	1	1	0	1176	14	0	400	136
fixed	2	0	6	237442	12	2	2	1	0	1114	14	0	550	137
fixed	2	0	7	238429	10	0	0	1	0	986	14	0	800	138
fixed	2	0	8	239505	9	3	3	1	0	1075	14	0	600	139
fixed	2	0	9	240743	8	1	1	1	0	1238	14	0	750	140
fixed	2	1	0	240743	8	2	2	1	0	883	14	0	1000	141
fixed	2	1	1	240743	11	1	1	1	0	477	14	0	500	142
fixed	2	1	2	240743	10	0	0	1	0	633	14	0	650	143
fixed	2	1	3	240743	13	2	2	1	0	590	14	0	900	144
fixed	2	1	4	240743	9	3	3	1	0	410	14	0	1000	145
fixed	2	1	5	246349	11	1	1	1	0	977	14	0	400	146
fixed	2	1	6	247560	12	2	2	1	0	1210	14	0	550	147
fixed	2	1	7	248897	10	0	0	1	0	1337	14	0	800	148
fixed	2	1	8	249901	9	3	3	1	0	1004	14	0	600	149
fixed	2	1	9	249901	8	1	1	1	0	607	14	0	750	150
fixed	2	2	0	252254	8	2	2	1	0	1117	14	0	1000	151
fixed	2	2	1	252930	11	1	1	1	0	676	14	0	500	152
fixed	2	2	2	254102	10	0	0	1	0	1172	14	0	650	153
fixed	2	2	3	255119	13	2	2	1	0	1017	14	0	900	154
fixed	2	2	4	255119	9	3	3	1	0	744	14	0	1000	155
fixed	2	2	5	257220	11	1	1	1	0	1077	14	0	400	156
fixed	2	2	6	258157	12	2	2	1	0	937	14	0	550	157
fixed	2	2	7	259141	10	0	0	1	0	984	14	0	800	158
fixed	2	2	8	259974	9	3	3	1	0	833	14	0	600	159
fixed	2	2	9	261475	8	1	1	1	0	1500	14	0	750	160
fixed	2	3	0	261475	8	2	2	1	0	940	14	0	1000	161
fixed	2	3	1	261475	11	1	1	1	0	406	14	0	500	162
fixed	2	3	2	264548	10	0	0	1	0	1005	14	0	650	163
fixed	2	3	3	264548	13	2	2	1	0	892	14	0	900	164
fixed	2	3	4	264548	9	3	3	1	0	773	14	0	1000	165
fixed	2	3	5	267080	11	1	1	1	0	590	14	0	400	166
fixed	2	3	6	267899	12	2	2	1	0	819	14	0	550	167
fixed	2	3	7	268959	10	0	0	1	0	1060	14	0	800	168
fixed	2	3	8	270143	9	3	3	1	0	1183	14	0	600	169
fixed	2	3	9	270143	8	1	1	1	0	742	14	0	750	170
fixed	2	4	0	270143	8	2	2	1	0	850	14	0	1000	171
fixed	2	4	1	273060	11	1	1	1	0	635	14	0	500	172
fixed	2	4	2	273060	10	0	0	1	0	669	14	0	650	173
fixed	2	4	3	273060	13	2	2	1	0	813	14	0	900	174
fixed	2	4	4	273060	9	3	3	1	0	937	14	0	1000	175
fixed	2	4	5	276860	11	1	1	1	0	1150	14	0	400	176
fixed	2	4	6	277630	12	2	2	1	0	770	14	0	550	177
fixed	2	4	7	278677	10	0	0	1	0	1047	14	0	800	178
fixed	2	4	8	279973	9	3	3	1	0	1295	14	0	600	179
fixed	2	4	9	279973	8	1	1	1	0	711	14	0	750	180
fixed	2	5	0	282333	8	2	2	1	0	1073	14	0	1000	181
fixed	2	5	1	282333	11	1	1	1	0	578	14	0	500	182
fixed	2	5	2	283891	10	0	0	1	0	980	14	0	650	183
fixed	2	5	3	285043	13	2	2	1	0	1152	14	0	900	184
fixed	2	5	4	285043	9	3	3	1	0	696	14	0	1000	185
fixed	2	5	5	286881	11	1	1	1	0	771	14	0	400	186
fixed	2	5	6	287656	12	2	2	1	0	775	14	0	550	187
fixed	2	5	7	288558	10	0	0	1	0	901	14	0	800	188
fixed	2	5	8	289325	9	3	3	1	0	767	14	0	600	189
fixed	2	5	9	289325	8	1	1	1	0	735	14	0	750	190
fixed	2	6	0	292044	8	2	2	1	0	1469	14	0	1000	191
fixed	2	6	1	292044	11	1	1	1	0	451	14	0	500	192
fixed	2	6	2	292044	10	0	0	1	0	559	14	0	650	193
fixed	2	6	3	292044	13	2	2	1	0	636	14	0	900	194
fixed	2	6	4	292044	9	3	3	1	0	192	14	0	1000	195
fixed	2	6	5	292044	11	1	1	1	0	109	14	0	400	196
fixed	2	6	6	292044	12	2	2	1	0	544	14	0	550	197
fixed	2	6	7	297237	10	0	0	1	0	980	14	0	800	198
fixed	2	6	8	298470	9	3	3	1	0	1233	14	0	600	199
fixed	2	6	9	298470	8	1	1	1	0	776	14	0	750	200
fixed	3	0	0	298470	7	2	2	1	0	1008	14	0	1000	201
fixed	3	0	1	298470	10	1	1	1	0	416	14	0	500	202
fixed	3	0	2	298470	9	0	0	1	0	378	14	0	650	203
fixed	3	0	3	298470	12	2	2	1	0	443	14	0	900	204
fixed	3	0	4	298470	8	3	1	1	0	723	14	0	1000	204
fixed	3	0	5	298470	10	1	2	1	0	160	14	0	400	204
fixed	3	0	6	298470	11	2	0	1	0	356	14	0	550	204
fixed	3	0	7	298470	9	0	1	1	0	318	14	0	800	204
fixed	3	0	8	307411	8	3	3	1	0	1703	14	0	600	205
fixed	3	0	9	308725	7	1	1	1	0	1314	14	0	750	206
fixed	3	1	0	310794	7	2	2	1	0	1600	14	0	1000	207
fixed	3	1	1	311443	10	1	1	1	0	649	14	0	500	208
fixed	3	1	2	312144	9	0	0	1	0	700	14	0	650	209
fixed	3	1	3	313317	12	2	2	1	0	1173	14	0	900	210
fixed	3	1	4	313317	8	3	3	1	0	798	14	0	1000	211
fixed	3	1	5	313317	10	1	1	1	0	340	14	0	400	212
fixed	3	1	6	315538	11	2	2	1	0	679	14	0	550	213
fixed	3	1	7	315538	9	0	0	1	0	756	14	0	800	214
fixed	3	1	8	315538	8	3	3	1	0	638	14	0	600	215
fixed	3	1	9	315538	7	1	1	1	0	605	14	0	750	216
fixed	3	2	0	315538	7	2	2	1	0	957	14	0	1000	217
fixed	3	2	1	319896	10	1	1	1	0	646	14	0	500	218
fixed	3	2	2	319896	9	0	0	1	0	691	14	0	650	219
fixed	3	2	3	319896	12	2	2	1	0	916	14	0	900	220
fixed	3	2	4	319896	8	3	3	1	0	707	14	0	1000	221
fixed	3	2	5	319896	10	1	1	1	0	440	14	0	400	222
fixed	3	2	6	323677	11	2	2	1	0	707	14	0	550	223
fixed	3	2	7	324581	9	0	0	1	0	904	14	0	800	224
fixed	3	2	8	325308	8	3	3	1	0	727	14	0	600	225
fixed	3	2	9	325308	7	1	1	1	0	620	14	0	750	226
fixed	3	3	0	325308	7	2	2	1	0	890	14	0	1000	227
fixed	3	3	1	325308	10	1	1	1	0	355	14	0	500	228
fixed	3	3	2	329127	9	0	0	1	0	952	14	0	650	229
fixed	3	3	3	329127	12	2	3	1	0	473	14	0	900	229
fixed	3	3	4	331339	8	3	3	1	0	1243	14	0	1000	230
fixed	3	3	5	331816	10	1	1	1	0	477	14	0	400	231
fixed	3	3	6	331816	11	2	2	1	0	436	14	0	550	232
fixed	3	3	7	331816	9	0	0	1	0	369	14	0	800	233
fixed	3	3	8	331816	8	3	1	1	0	568	14	0	600	233
fixed	3	3	9	335708	7	1	1	1	0	1859	14	0	750	234
fixed	3	4	0	337277	7	2	2	1	0	1115	14	0	1000	235
fixed	3	4	1	338014	10	1	1	1	0	736	14	0	500	236
fixed	3	4	2	339121	9	0	0	1	0	1107	14	0	650	237
fixed	3	4	3	340225	12	2	2	1	0	1104	14	0	900	238
fixed	3	4	4	340225	8	3	3	1	0	721	14	0	1000	239
fixed	3	4	5	341945	10	1	1	1	0	686	14	0	400	240
fixed	3	4	6	342868	11	2	2	1	0	923	14	0	550	241
fixed	3	4	7	342868	9	0	0	1	0	863	14	0	800	242
fixed	3	4	8	344676	8	3	3	1	0	852	14	0	600	243
fixed	3	4	9	344676	7	1	1	1	0	768	14	0	750	244
fixed	3	5	0	344676	7	2	2	1	0	1100	14	0	1000	245
fixed	3	5	1	347749	10	1	1	1	0	686	14	0	500	246
fixed	3	5	2	347749	9	0	0	1	0	688	14	0	650	247
fixed	3	5	3	349557	12	2	2	1	0	1120	14	0	900	248
fixed	3	5	4	349557	8	3	3	1	0	673	14	0	1000	249
fixed	3	5	5	349557	10	1	1	1	0	221	14	0	400	250
fixed	3	5	6	351862	11	2	2	1	0	872	14	0	550	251
fixed	3	5	7	351862	9	0	0	1	0	568	14	0	800	252
fixed	3	5	8	351862	8	3	3	1	0	322	14	0	600	253
fixed	3	5	9	351862	7	1	1	1	0	320	14	0	750	254
fixed	3	6	0	351862	7	2	2	1	0	783	14	0	1000	255
fixed	3	6	1	351862	10	1	1	1	0	321	14	0	500	256
fixed	3	6	2	351862	9	0	0	1	0	472	14	0	650	257
fixed	3	6	3	351862	12	2	3	1	0	501	14	0	900	257
fixed	3	6	4	359290	8	3	3	1	0	1426	14	0	1000	258
fixed	3	6	5	359844	10	1	1	1	0	553	14	0	400	259
fixed	3	6	6	360997	11	2	2	1	0	1153	14	0	550	260
fixed	3	6	7	360997	9	0	0	1	0	784	14	0	800	261
fixed	3	6	8	360997	8	3	3	1	0	594	14	0	600	262
fixed	3	6	9	360997	7	1	1	1	0	433	14	0	750	263
fixed	4	0	0	360997	6	2	2	1	0	882	14	0	1000	264
fixed	4	0	1	365682	9	1	1	1	0	868	14	0	500	265
fixed	4	0	2	366702	8	0	0	1	0	1019	14	0	650	266
fixed	4	0	3	367667	11	2	2	1	0	965	14	0	900	267
fixed	4	0	4	367667	7	3	3	1	0	757	14	0	1000	268
fixed	4	0	5	369470	9	1	1	1	0	758	14	0	400	269
fixed	4	0	6	370548	10	2	3	1	0	1078	14	0	550	269
fixed	4	0	7	372024	8	0	0	1	0	1476	14	0	800	270
fixed	4	0	8	372880	7	3	3	1	0	856	14	0	600	271
fixed	4	0	9	373797	6	1	1	1	0	917	14	0	750	272
fixed	4	1	0	375844	6	2	2	1	0	1659	14	0	1000	273
fixed	4	1	1	376529	9	1	1	1	0	685	14	0	500	274
fixed	4	1	2	377510	8	0	0	1	0	981	14	0	650	275
fixed	4	1	3	377510	11	2	2	1	0	888	14	0	900	276
fixed	4	1	4	377510	7	3	3	1	0	755	14	0	1000	277
fixed	4	1	5	377510	9	1	1	1	0	425	14	0	400	278
fixed	4	1	6	380843	10	2	2	1	0	866	14	0	550	279
fixed	4	1	7	380843	8	0	0	1	0	547	14	0	800	280
fixed	4	1	8	380843	7	3	3	1	0	551	14	0	600	281
fixed	4	1	9	380843	6	1	1	1	0	510	14	0	750	282
fixed	4	2	0	380843	6	2	2	1	0	921	14	0	1000	283
fixed	4	2	1	380843	9	1	1	1	0	503	14	0	500	284
fixed	4	2	2	385995	8	0	0	1	0	832	14	0	650	285
fixed	4	2	3	385995	11	2	2	1	0	686	14	0	900	286
fixed	4	2	4	385995	7	3	3	1	0	393	14	0	1000	287
fixed	4	2	5	385995	9	1	1	1	0	240	14	0	400	288
fixed	4	2	6	385995	10	2	2	1	0	564	14	0	550	289
fixed	4	2	7	385995	8	0	0	1	0	812	14	0	800	290
fixed	4	2	8	390727	7	3	3	1	0	903	14	0	600	291
fixed	4	2	9	390727	6	1	1	1	0	594	14	0	750	292
fixed	4	3	0	393345	6	2	2	1	0	1378	14	0	1000	293
fixed	4	3	1	394026	9	1	1	1	0	681	14	0	500	294
fixed	4	3	2	395218	8	0	0	1	0	1191	14	0	650	295
fixed	4	3	3	395218	11	2	3	1	0	492	14	0	900	295
fixed	4	3	4	395218	7	3	3	1	0	611	14	0	1000	296
fixed	4	3	5	395218	9	1	1	1	0	174	14	0	400	297
fixed	4	3	6	395218	10	2	2	1	0	321	14	0	550	298
fixed	4	3	7	395218	8	0	0	1	0	630	14	0	800	299
fixed	4	3	8	395218	7	3	3	1	0	297	14	0	600	300
fixed	4	3	9	395218	6	1	1	1	0	268	14	0	750	301
fixed	4	4	0	401942	6	2	2	1	0	1114	14	0	1000	302
fixed	4	4	1	402639	9	1	1	1	0	697	14	0	500	303
fixed	4	4	2	402639	8	0	0	1	0	604	14	0	650	304
fixed	4	4	3	402639	11	2	2	1	0	458	14	0	900	305
fixed	4	4	4	402639	7	3	3	1	0	643	14	0	1000	306
fixed	4	4	5	402639	9	1	1	1	0	296	14	0	400	307
fixed	4	4	6	402639	10	2	2	1	0	494	14	0	550	308
fixed	4	4	7	402639	8	0	0	1	0	486	14	0	800	309
fixed	4	4	8	402639	7	3	3	1	0	225	14	0	600	310
fixed	4	4	9	402639	6	1	1	1	0	412	14	0	750	311
fixed	4	5	0	402639	6	2	2	1	0	873	14	0	1000	312
fixed	4	5	1	402639	9	1	1	1	0	453	14	0	500	313
fixed	4	5	2	411412	8	0	0	1	0	804	14	0	650	314
fixed	4	5	3	411412	11	2	2	1	0	824	14	0	900	315
fixed	4	5	4	411412	7	3	3	1	0	631	14	0	1000	316
fixed	4	5	5	414786	9	1	1	1	0	1373	14	0	400	317
fixed	4	5	6	415561	10	2	2	1	0	775	14	0	550	318
fixed	4	5	7	416603	8	0	0	1	0	1041	14	0	800	319
fixed	4	5	8	417352	7	3	3	1	0	749	14	0	600	320
fixed	4	5	9	417352	6	1	1	1	0	756	14	0	750	321
fixed	4	6	0	419758	6	2	2	1	0	1166	14	0	1000	322
fixed	4	6	1	420459	9	1	1	1	0	701	14	0	500	323
fixed	4	6	2	421185	8	0	0	1	0	725	14	0	650	324
fixed	4	6	3	421185	11	2	2	1	0	932	14	0	900	325
fixed	4	6	4	421185	7	3	3	1	0	596	14	0	1000	326
fixed	4	6	5	421185	9	1	1	1	0	229	14	0	400	327
fixed	4	6	6	421185	10	2	2	1	0	403	14	0	550	328
fixed	4	6	7	421185	8	0	0	1	0	462	14	0	800	329
fixed	4	6	8	421185	7	3	3	1	0	208	14	0	600	330
fixed	4	6	9	421185	6	1	1	1	0	285	14	0	750	331
fixed	5	0	0	421185	5	2	2	1	0	1041	14	0	1000	332
fixed	5	0	1	428547	8	1	1	1	0	675	14	0	500	333
fixed	5	0	2	428547	7	0	0	1	0	564	14	0	650	334
fixed	5	0	3	428547	10	2	2	1	0	455	14	0	900	335
fixed	5	0	4	428547	6	3	1	1	0	1016	14	0	1000	335
fixed	5	0	5	431898	8	1	2	1	0	698	14	0	400	335
fixed	5	0	6	431898	9	2	0	1	0	584	14	0	550	335
fixed	5	0	7	431898	7	0	3	1	0	704	14	0	800	335
fixed	5	0	8	431898	6	3	1	1	0	469	14	0	600	335
fixed	5	0	9	435293	5	1	1	1	0	1352	14	0	750	336
fixed	5	1	0	437194	5	2	2	1	0	1463	14	0	1000	337
fixed	5	1	1	438205	8	1	1	1	0	1011	14	0	500	338
fixed	5	1	2	439004	7	0	0	1	0	798	14	0	650	339
fixed	5	1	3	440162	10	2	2	1	0	1158	14	0	900	340
fixed	5	1	4	440162	6	3	3	1	0	767	14	0	1000	341
fixed	5	1	5	441726	8	1	1	1	0	476	14	0	400	342
fixed	5	1	6	442578	9	2	2	1	0	851	14	0	550	343
fixed	5	1	7	442578	7	0	0	1	0	763	14	0	800	344
fixed	5	1	8	442578	6	3	3	1	0	666	14	0	600	345
fixed	5	1	9	442578	5	1	1	1	0	686	14	0	750	346
fixed	5	2	0	446448	5	2	2	1	0	1092	14	0	1000	347
fixed	5	2	1	447260	8	1	1	1	0	812	14	0	500	348
fixed	5	2	2	447260	7	0	0	1	0	665	14	0	650	349
fixed	5	2	3	447260	10	2	2	1	0	898	14	0	900	350
fixed	5	2	4	447260	6	3	3	1	0	792	14	0	1000	351
fixed	5	2	5	450400	8	1	1	1	0	521	14	0	400	352
fixed	5	2	6	451216	9	2	2	1	0	816	14	0	550	353
fixed	5	2	7	451216	7	0	0	1	0	678	14	0	800	354
fixed	5	2	8	451216	6	3	3	1	0	539	14	0	600	355
fixed	5	2	9	451216	5	1	1	1	0	538	14	0	750	356
fixed	5	3	0	451216	5	2	2	1	0	791	14	0	1000	357
fixed	5	3	1	455713	8	1	1	1	0	657	14	0	500	358
fixed	5	3	2	456535	7	0	0	1	0	821	14	0	650	359
fixed	5	3	3	456535	10	2	2	1	0	856	14	0	900	360
fixed	5	3	4	456535	6	3	3	1	0	658	14	0	1000	361
fixed	5	3	5	456535	8	1	1	1	0	397	14	0	400	362
fixed	5	3	6	459688	9	2	2	1	0	793	14	0	550	363
fixed	5	3	7	460630	7	0	0	1	0	942	14	0	800	364
fixed	5	3	8	461319	6	3	3	1	0	689	14	0	600	365
fixed	5	3	9	461319	5	1	1	1	0	681	14	0	750	366
fixed	5	4	0	461319	5	2	2	1	0	874	14	0	1000	367
fixed	5	4	1	464231	8	1	1	1	0	575	14	0	500	368
fixed	5	4	2	465471	7	0	0	1	0	1240	14	0	650	369
fixed	5	4	3	465471	10	2	2	1	0	656	14	0	900	370
fixed	5	4	4	465471	6	3	3	1	0	745	14	0	1000	371
fixed	5	4	5	467984	8	1	1	1	0	550	14	0	400	372
fixed	5	4	6	468709	9	2	2	1	0	725	14	0	550	373
fixed	5	4	7	468709	7	0	0	1	0	773	14	0	800	374
fixed	5	4	8	470813	6	3	3	1	0	1252	14	0	600	375
fixed	5	4	9	470813	5	1	1	1	0	699	14	0	750	376
fixed	5	5	0	470813	5	2	2	1	0	992	14	0	1000	377
fixed	5	5	1	473846	8	1	1	1	0	687	14	0	500	378
fixed	5	5	2	473846	7	0	0	1	0	712	14	0	650	379
fixed	5	5	3	473846	10	2	3	1	0	798	14	0	900	379
fixed	5	5	4	473846	6	3	3	1	0	1026	14	0	1000	380
fixed	5	5	5	478046	8	1	1	1	0	1534	14	0	400	381
fixed	5	5	6	478986	9	2	2	1	0	940	14	0	550	382
fixed	5	5	7	478986	7	0	0	1	0	574	14	0	800	383
fixed	5	5	8	480908	6	3	3	1	0	1118	14	0	600	384
fixed	5	5	9	480908	5	1	1	1	0	602	14	0	750	385
fixed	5	6	0	480908	5	2	2	1	0	809	14	0	1000	386
fixed	5	6	1	483780	8	1	1	1	0	584	14	0	500	387
fixed	5	6	2	484583	7	0	0	1	0	803	14	0	650	388
fixed	5	6	3	484583	10	2	2	1	0	842	14	0	900	389
fixed	5	6	4	484583	6	3	3	1	0	558	14	0	1000	390
fixed	5	6	5	484583	8	1	1	1	0	319	14	0	400	391
fixed	5	6	6	489047	9	2	2	1	0	1925	14	0	550	392
fixed	5	6	7	489047	7	0	0	1	0	643	14	0	800	393
fixed	5	6	8	490813	6	3	2	1	0	949	14	0	600	393
fixed	5	6	9	491748	5	1	1	1	0	934	14	0	750	394
random	6	0	0	494526	5	3	3	1	0	2199	14	0	1000	395
random	6	0	1	495680	8	1	1	1	0	1154	14	0	550	396
random	6	0	2	495680	5	3	3	1	0	961	14	0	900	397
random	6	0	3	497941	6	0	0	1	0	1299	14	0	750	398
random	6	0	4	499099	9	2	2	1	0	1157	14	0	600	399
random	6	0	5	500195	4	0	1	1	0	1097	14	0	300	399
random	6	0	6	501194	7	1	1	1	0	999	14	0	400	400
random	6	0	7	502413	4	2	2	1	0	1219	14	0	1000	401
random	6	0	8	503459	8	3	3	1	0	1046	14	0	500	402
random	6	0	9	504500	7	2	2	1	0	1041	14	0	800	403
random	6	1	0	506430	8	3	3	1	0	1538	14	0	650	404
random	6	1	1	507637	9	2	2	1	0	1207	14	0	600	405
random	6	1	2	509294	6	1	1	1	0	1657	14	0	300	406
random	6	1	3	510529	5	2	2	1	0	1235	14	0	1000	407
random	6	1	4	511838	9	1	1	1	0	1309	14	0	900	408
random	6	1	5	513094	4	0	0	1	0	1255	14	0	800	409
random	6	1	6	514420	5	3	3	1	0	1326	14	0	750	410
random	6	1	7	515586	4	2	2	1	0	1165	14	0	400	411
random	6	1	8	516852	7	1	1	1	0	1266	14	0	1000	412
random	6	1	9	517738	6	0	0	1	0	887	14	0	500	413
random	6	2	0	519894	4	1	1	1	0	1643	14	0	900	414
random	6	2	1	521041	8	0	0	1	0	1148	14	0	300	415
random	6	2	2	522280	9	3	3	1	0	1238	14	0	1000	416
random	6	2	3	523627	7	0	0	1	0	1346	14	0	550	417
random	6	2	4	524865	6	2	2	1	0	1236	14	0	1000	418
random	6	2	5	526027	5	1	1	1	0	1162	14	0	400	419
random	6	2	6	527402	6	3	3	1	0	1375	14	0	600	420
random	6	2	7	528595	8	2	2	1	0	1193	14	0	500	421
random	6	2	8	530029	4	3	3	1	0	1434	14	0	750	422
random	6	2	9	531115	9	2	2	1	0	1086	14	0	650	423
random	6	3	0	532936	4	0	0	1	0	1327	14	0	900	424
random	6	3	1	534233	8	2	2	1	0	1296	14	0	300	425
random	6	3	2	535463	9	1	1	1	0	1230	14	0	1000	426
random	6	3	3	536826	7	3	3	1	0	1362	14	0	550	427
random	6	3	4	537949	6	1	1	1	0	1122	14	0	1000	428
random	6	3	5	539093	5	0	0	1	0	1144	14	0	400	429
random	6	3	6	540177	6	3	1	1	0	1084	14	0	600	429
random	6	3	7	541414	8	2	2	1	0	1236	14	0	500	430
random	6	3	8	542503	4	1	1	1	0	1089	14	0	750	431
random	6	3	9	543598	9	2	2	1	0	1095	14	0	650	432
random	6	4	0	545193	5	3	3	1	0	1168	14	0	500	433
random	6	4	1	546293	9	2	2	1	0	1101	14	0	600	434
random	6	4	2	547474	6	1	1	1	0	1180	14	0	900	435
random	6	4	3	548619	9	0	0	1	0	1145	14	0	1000	436
random	6	4	4	549814	8	3	3	1	0	1195	14	0	650	437
random	6	4	5	551187	4	1	1	1	0	1372	14	0	550	438
random	6	4	6	552395	7	3	3	1	0	1208	14	0	800	439
random	6	4	7	553494	6	0	0	1	0	1099	14	0	700	440
random	6	4	8	554836	8	2	2	1	0	1342	14	0	1000	441
random	6	4	9	556060	5	1	1	1	0	1224	14	0	300	442
random	6	5	0	557683	6	0	0	1	0	1113	14	0	1000	443
random	6	5	1	558936	8	2	2	1	0	1253	14	0	400	444
random	6	5	2	559945	4	3	3	1	0	1009	14	0	750	445
random	6	5	3	561300	8	1	1	1	0	1355	14	0	900	446
random	6	5	4	562499	5	2	2	1	0	1198	14	0	300	447
random	6	5	5	563814	4	3	3	1	0	1315	14	0	650	448
random	6	5	6	564918	7	0	0	1	0	1104	14	0	550	449
random	6	5	7	566164	9	2	2	1	0	1245	14	0	800	450
random	6	5	8	567429	7	1	1	1	0	1265	14	0	500	451
random	6	5	9	567429	6	0	0	1	0	983	14	0	1000	452
random	6	6	0	570177	9	0	0	1	0	1169	14	0	1000	453
random	6	6	1	571428	6	2	2	1	0	1250	14	0	650	454
random	6	6	2	572550	9	1	1	1	0	1122	14	0	900	455
random	6	6	3	573562	8	2	2	1	0	1012	14	0	600	456
random	6	6	4	574519	6	0	0	1	0	956	14	0	400	457
random	6	6	5	575582	8	3	3	1	0	1063	14	0	300	458
random	6	6	6	576620	5	1	1	1	0	1038	14	0	700	459
random	6	6	7	578176	4	3	3	1	0	1553	14	0	750	460
random	6	6	8	579635	7	1	1	1	0	1460	14	0	500	461
random	6	6	9	579635	5	2	2	1	0	1318	14	0	1000	462
fixed	7	0	0	583484	3	2	2	1	0	1501	14	0	1000	463
fixed	7	0	1	584831	6	1	1	1	0	1347	14	0	500	464
fixed	7	0	2	585614	5	0	0	1	0	783	14	0	650	465
fixed	7	0	3	585614	8	2	2	1	0	816	14	0	900	466
fixed	7	0	4	585614	4	3	3	1	0	687	14	0	1000	467
fixed	7	0	5	588192	6	1	1	1	0	668	14	0	400	468
fixed	7	0	6	589404	7	2	2	1	0	1211	14	0	550	469
fixed	7	0	7	589404	5	0	0	1	0	692	14	0	800	470
fixed	7	0	8	591644	4	3	3	1	0	1418	14	0	600	471
fixed	7	0	9	591644	3	1	1	1	0	816	14	0	750	472
fixed	7	1	0	591644	3	2	2	1	0	870	14	0	1000	473
fixed	7	1	1	594756	6	1	1	1	0	668	14	0	500	474
fixed	7	1	2	594756	5	0	0	1	0	649	14	0	650	475
fixed	7	1	3	594756	8	2	2	1	0	786	14	0	900	476
fixed	7	1	4	594756	4	3	3	1	0	626	14	0	1000	477
fixed	7	1	5	597828	6	1	1	1	0	448	14	0	400	478
fixed	7	1	6	598767	7	2	2	1	0	939	14	0	550	479
fixed	7	1	7	598767	5	0	0	1	0	830	14	0	800	480
fixed	7	1	8	600583	4	3	3	1	0	986	14	0	600	481
fixed	7	1	9	600583	3	1	1	1	0	813	14	0	750	482
fixed	7	2	0	600583	3	2	2	1	0	909	14	0	1000	483
fixed	7	2	1	603485	6	1	1	1	0	637	14	0	500	484
fixed	7	2	2	604798	5	0	0	1	0	1313	14	0	650	485
fixed	7	2	3	604798	8	2	2	1	0	741	14	0	900	486
fixed	7	2	4	604798	4	3	3	1	0	586	14	0	1000	487
fixed	7	2	5	604798	6	1	1	1	0	280	14	0	400	488
fixed	7	2	6	607870	7	2	2	1	0	699	14	0	550	489
fixed	7	2	7	607870	5	0	0	1	0	793	14	0	800	490
fixed	7	2	8	609479	4	3	3	1	0	755	14	0	600	491
fixed	7	2	9	609479	3	1	1	1	0	749	14	0	750	492
fixed	7	3	0	611810	3	2	2	1	0	1048	14	0	1000	493
fixed	7	3	1	612506	6	1	1	1	0	695	14	0	500	494
fixed	7	3	2	613246	5	0	3	1	0	739	14	0	650	494
fixed	7	3	3	614969	8	2	2	1	0	1723	14	0	900	495
fixed	7	3	4	614969	4	3	3	1	0	1000	14	0	1000	496
fixed	7	3	5	616620	6	1	1	1	0	613	14	0	400	497
fixed	7	3	6	617307	7	2	2	1	0	686	14	0	550	498
fixed	7	3	7	617307	5	0	0	1	0	644	14	0	800	499
fixed	7	3	8	619330	4	3	3	1	0	1202	14	0	600	500
fixed	7	3	9	619330	3	1	1	1	0	556	14	0	750	501
fixed	7	4	0	619330	3	2	2	1	0	969	14	0	1000	502
fixed	7	4	1	622412	6	1	1	1	0	733	14	0	500	503
fixed	7	4	2	623131	5	0	0	1	0	719	14	0	650	504
fixed	7	4	3	623131	8	2	2	1	0	880	14	0	900	505
fixed	7	4	4	623131	4	3	3	1	0	735	14	0	1000	506
fixed	7	4	5	623131	6	1	1	1	0	420	14	0	400	507
fixed	7	4	6	626556	7	2	2	1	0	1013	14	0	550	508
fixed	7	4	7	626556	5	0	0	1	0	684	14	0	800	509
fixed	7	4	8	628056	4	3	3	1	0	659	14	0	600	510
fixed	7	4	9	628937	3	1	1	1	0	881	14	0	750	511
fixed	7	5	0	628937	3	2	2	1	0	750	14	0	1000	512
fixed	7	5	1	631289	6	1	1	1	0	763	14	0	500	513
fixed	7	5	2	632145	5	0	0	1	0	856	14	0	650	514
fixed	7	5	3	633417	8	2	2	1	0	1272	14	0	900	515
fixed	7	5	4	633417	4	3	3	1	0	761	14	0	1000	516
fixed	7	5	5	634983	6	1	1	1	0	507	14	0	400	517
fixed	7	5	6	635976	7	2	2	1	0	992	14	0	550	518
fixed	7	5	7	636970	5	0	0	1	0	993	14	0	800	519
fixed	7	5	8	638376	4	3	3	1	0	1406	14	0	600	520
fixed	7	5	9	639212	3	1	1	1	0	835	14	0	750	521
fixed	7	6	0	640846	3	2	2	1	0	1076	14	0	1000	522
fixed	7	6	1	641541	6	1	1	1	0	695	14	0	500	523
fixed	7	6	2	642530	5	0	0	1	0	989	14	0	650	524
fixed	7	6	3	642530	8	2	2	1	0	879	14	0	900	525
fixed	7	6	4	644508	4	3	1	1	0	1061	14	0	1000	525
fixed	7	6	5	645412	6	1	1	1	0	904	14	0	400	526
fixed	7	6	6	646530	7	2	2	1	0	1117	14	0	550	527
fixed	7	6	7	647610	5	0	0	1	0	1079	14	0	800	528
fixed	7	6	8	648525	4	3	3	1	0	915	14	0	600	529
fixed	7	6	9	649750	3	1	1	1	0	1224	14	0	750	530
