type	block	sequ.	trial	time	Pos.	Color	Button	NumRsp	Resp_1	RT_1	R_Code	Resp_2	RT_2	Trigg.	n_hit	n_inc	n_miss	score_%
random	0	0	0	220400	11	3	3	1	0	1909	14	0	1000	1
random	0	0	1	221714	14	1	1	1	0	1313	14	0	550	2
random	0	0	2	222740	11	3	3	1	0	1025	14	0	900	3
random	0	0	3	223936	12	0	0	1	0	1196	14	0	750	4
random	0	0	4	224995	15	2	2	1	0	1059	14	0	600	5
random	0	0	5	226241	10	0	0	1	0	1246	14	0	300	6
random	0	0	6	227473	13	1	1	1	0	1232	14	0	400	7
random	0	0	7	228900	10	2	2	1	0	1427	14	0	1000	8
random	0	0	8	230078	14	3	3	1	0	1177	14	0	500	9
random	0	0	9	231457	13	2	2	1	0	1379	14	0	800	10
random	0	1	0	233648	14	3	3	1	0	1657	14	0	650	11
random	0	1	1	234787	15	2	2	1	0	1139	14	0	600	12
random	0	1	2	236013	12	1	1	1	0	1226	14	0	300	13
random	0	1	3	237448	11	2	2	1	0	1435	14	0	1000	14
random	0	1	4	238681	15	1	1	1	0	1232	14	0	900	15
random	0	1	5	239929	10	0	0	1	0	1247	14	0	800	16
random	0	1	6	241546	11	3	3	1	0	1618	14	0	750	17
random	0	1	7	243364	10	2	2	1	0	1817	14	0	400	18
random	0	1	8	244786	13	1	3	1	0	1421	14	0	1000	18
random	0	1	9	246119	12	0	0	1	0	1333	14	0	500	19
random	0	2	0	248346	10	1	1	1	0	1739	14	0	900	20
random	0	2	1	250351	14	0	0	1	0	2004	14	0	300	21
random	0	2	2	251650	15	3	3	1	0	1298	14	0	1000	22
random	0	2	3	252806	13	0	0	1	0	1156	14	0	550	23
random	0	2	4	254157	12	2	2	1	0	1351	14	0	1000	24
random	0	2	5	255991	11	1	1	1	0	1834	14	0	400	25
random	0	2	6	257650	12	3	3	1	0	1659	14	0	600	26
random	0	2	7	259360	14	2	2	1	0	1709	14	0	500	27
random	0	2	8	261000	10	3	3	1	0	1640	14	0	750	28
random	0	2	9	262450	15	2	2	1	0	1449	14	0	650	29
random	0	3	0	263966	10	0	0	1	0	1069	14	0	900	30
random	0	3	1	265660	14	2	2	1	0	1694	14	0	300	31
random	0	3	2	266987	15	1	1	1	0	1326	14	0	1000	32
random	0	3	3	268242	13	3	3	1	0	1255	14	0	550	33
random	0	3	4	269387	12	1	1	1	0	1145	14	0	1000	34
random	0	3	5	270253	11	0	0	1	0	866	14	0	400	35
random	0	3	6	271618	12	3	3	1	0	1364	14	0	600	36
random	0	3	7	272919	14	2	2	1	0	1300	14	0	500	37
random	0	3	8	274403	10	1	1	1	0	1484	14	0	750	38
random	0	3	9	275481	15	2	2	1	0	1078	14	0	650	39
random	0	4	0	277208	11	3	3	1	0	1262	14	0	500	40
random	0	4	1	278594	15	2	2	1	0	1385	14	0	600	41
random	0	4	2	280118	12	1	1	1	0	1524	14	0	900	42
random	0	4	3	280118	15	0	0	1	0	883	14	0	1000	43
random	0	4	4	282475	14	3	3	1	0	1327	14	0	650	44
random	0	4	5	284195	10	1	1	1	0	1719	14	0	550	45
random	0	4	6	285586	13	3	3	1	0	1391	14	0	800	46
random	0	4	7	286782	12	0	0	1	0	1196	14	0	700	47
random	0	4	8	288046	14	2	2	1	0	1264	14	0	1000	48
random	0	4	9	289315	11	1	1	1	0	1268	14	0	300	49
random	0	5	0	291033	12	0	0	1	0	1137	14	0	1000	50
random	0	5	1	292323	14	2	2	1	0	1290	14	0	400	51
random	0	5	2	293175	10	3	3	1	0	852	14	0	750	52
random	0	5	3	294514	14	1	1	1	0	1339	14	0	900	53
random	0	5	4	295730	11	2	2	1	0	1215	14	0	300	54
random	0	5	5	296870	10	3	3	1	0	1140	14	0	650	55
random	0	5	6	297787	13	0	0	1	0	917	14	0	550	56
random	0	5	7	299045	15	2	3	1	0	1258	14	0	800	56
random	0	5	8	300214	13	1	1	1	0	1168	14	0	500	57
random	0	5	9	301413	12	0	0	1	0	1198	14	0	1000	58
random	0	6	0	303024	15	0	0	1	0	1106	14	0	1000	59
random	0	6	1	304767	12	2	2	1	0	1742	14	0	650	60
random	0	6	2	306081	15	1	1	1	0	1315	14	0	900	61
random	0	6	3	307351	14	2	2	1	0	1269	14	0	600	62
random	0	6	4	308508	12	0	0	1	0	1157	14	0	400	63
random	0	6	5	309614	14	3	3	1	0	1106	14	0	300	64
random	0	6	6	310819	11	1	1	1	0	1204	14	0	700	65
random	0	6	7	312336	10	3	3	1	0	1516	14	0	750	66
random	0	6	8	313530	13	1	1	1	0	1194	14	0	500	67
random	0	6	9	314808	11	2	2	1	0	1277	14	0	1000	68
fixed	1	0	0	316530	9	2	2	1	0	1133	14	0	1000	69
fixed	1	0	1	318015	12	1	1	1	0	1485	14	0	500	70
fixed	1	0	2	319241	11	0	0	1	0	1225	14	0	650	71
fixed	1	0	3	320347	14	2	2	1	0	1106	14	0	900	72
fixed	1	0	4	321458	10	3	3	1	0	1110	14	0	1000	73
fixed	1	0	5	322591	12	1	1	1	0	1133	14	0	400	74
fixed	1	0	6	323646	13	2	2	1	0	1055	14	0	550	75
fixed	1	0	7	324549	11	0	0	1	0	903	14	0	800	76
fixed	1	0	8	325924	10	3	3	1	0	1375	14	0	600	77
fixed	1	0	9	327195	9	1	1	1	0	1270	14	0	750	78
fixed	1	1	0	329075	9	2	2	1	0	1388	14	0	1000	79
fixed	1	1	1	330428	12	1	1	1	0	1352	14	0	500	80
fixed	1	1	2	331491	11	0	0	1	0	1063	14	0	650	81
fixed	1	1	3	332816	14	2	2	1	0	1325	14	0	900	82
fixed	1	1	4	334025	10	3	3	1	0	1208	14	0	1000	83
fixed	1	1	5	335315	12	1	1	1	0	1290	14	0	400	84
fixed	1	1	6	336347	13	2	2	1	0	1032	14	0	550	85
fixed	1	1	7	337376	11	0	0	1	0	1028	14	0	800	86
fixed	1	1	8	338447	10	3	3	1	0	1071	14	0	600	87
fixed	1	1	9	339703	9	1	1	1	0	1255	14	0	750	88
fixed	1	2	0	341408	9	2	2	1	0	1136	14	0	1000	89
fixed	1	2	1	342397	12	1	1	1	0	989	14	0	500	90
fixed	1	2	2	343494	11	0	0	1	0	1096	14	0	650	91
fixed	1	2	3	344739	14	2	2	1	0	1244	14	0	900	92
fixed	1	2	4	345917	10	3	3	1	0	1178	14	0	1000	93
fixed	1	2	5	347174	12	1	1	1	0	1257	14	0	400	94
fixed	1	2	6	348310	13	2	2	1	0	1136	14	0	550	95
fixed	1	2	7	349479	11	0	0	1	0	1169	14	0	800	96
fixed	1	2	8	350836	10	3	3	1	0	1356	14	0	600	97
fixed	1	2	9	352069	9	1	1	1	0	1233	14	0	750	98
fixed	1	3	0	353770	9	2	2	1	0	1246	14	0	1000	99
fixed	1	3	1	354996	12	1	1	1	0	1226	14	0	500	100
fixed	1	3	2	355839	11	0	0	1	0	842	14	0	650	101
fixed	1	3	3	357447	14	2	2	1	0	1609	14	0	900	102
fixed	1	3	4	357447	10	3	3	1	0	885	14	0	1000	103
fixed	1	3	5	359582	12	1	1	1	0	1116	14	0	400	104
fixed	1	3	6	360719	13	2	2	1	0	1136	14	0	550	105
fixed	1	3	7	361665	11	0	0	1	0	946	14	0	800	106
fixed	1	3	8	362727	10	3	3	1	0	1062	14	0	600	107
fixed	1	3	9	363960	9	1	1	1	0	1232	14	0	750	108
fixed	1	4	0	363960	9	2	2	1	0	902	14	0	1000	109
fixed	1	4	1	366468	12	1	1	1	0	975	14	0	500	110
fixed	1	4	2	367456	11	0	0	1	0	988	14	0	650	111
fixed	1	4	3	368720	14	2	2	1	0	1264	14	0	900	112
fixed	1	4	4	368720	10	3	3	1	0	988	14	0	1000	113
fixed	1	4	5	370678	12	1	1	1	0	938	14	0	400	114
fixed	1	4	6	371659	13	2	2	1	0	980	14	0	550	115
fixed	1	4	7	372666	11	0	0	1	0	1007	14	0	800	116
fixed	1	4	8	374095	10	3	3	1	0	1428	14	0	600	117
fixed	1	4	9	375250	9	1	1	1	0	1154	14	0	750	118
fixed	1	5	0	375250	9	2	2	1	0	963	14	0	1000	119
fixed	1	5	1	377798	12	1	1	1	0	1073	14	0	500	120
fixed	1	5	2	378740	11	0	0	1	0	939	14	0	650	121
fixed	1	5	3	379759	14	2	2	1	0	1018	14	0	900	122
fixed	1	5	4	379759	10	3	3	1	0	904	14	0	1000	123
fixed	1	5	5	381794	12	1	1	1	0	1024	14	0	400	124
fixed	1	5	6	382723	13	2	0	1	0	928	14	0	550	124
fixed	1	5	7	383747	11	0	0	1	0	1024	14	0	800	125
fixed	1	5	8	385284	10	3	3	1	0	1536	14	0	600	126
fixed	1	5	9	386376	9	1	1	1	0	1092	14	0	750	127
fixed	1	6	0	387957	9	2	2	1	0	1105	14	0	1000	128
fixed	1	6	1	388775	12	1	1	1	0	817	14	0	500	129
fixed	1	6	2	389926	11	0	0	1	0	1150	14	0	650	130
fixed	1	6	3	391117	14	2	2	1	0	1191	14	0	900	131
fixed	1	6	4	391117	10	3	3	1	0	1039	14	0	1000	132
fixed	1	6	5	393350	12	1	1	1	0	1193	14	0	400	133
fixed	1	6	6	394437	13	2	2	1	0	1087	14	0	550	134
fixed	1	6	7	395401	11	0	0	1	0	964	14	0	800	135
fixed	1	6	8	396431	10	3	3	1	0	1029	14	0	600	136
fixed	1	6	9	397642	9	1	0	1	0	1210	14	0	750	136
fixed	2	0	0	399378	8	2	2	1	0	1201	14	0	1000	137
fixed	2	0	1	400537	11	1	1	1	0	1159	14	0	500	138
fixed	2	0	2	401587	10	0	0	1	0	1049	14	0	650	139
fixed	2	0	3	402701	13	2	2	1	0	1114	14	0	900	140
fixed	2	0	4	402701	9	3	3	1	0	995	14	0	1000	141
fixed	2	0	5	404790	11	1	1	1	0	1065	14	0	400	142
fixed	2	0	6	405890	12	2	2	1	0	1100	14	0	550	143
fixed	2	0	7	406894	10	0	0	1	0	1003	14	0	800	144
fixed	2	0	8	408134	9	3	3	1	0	1240	14	0	600	145
fixed	2	0	9	409169	8	1	1	1	0	1034	14	0	750	146
fixed	2	1	0	410762	8	2	2	1	0	1082	14	0	1000	147
fixed	2	1	1	411961	11	1	1	1	0	1198	14	0	500	148
fixed	2	1	2	412892	10	0	0	1	0	931	14	0	650	149
fixed	2	1	3	413952	13	2	2	1	0	1060	14	0	900	150
fixed	2	1	4	415148	9	3	3	1	0	1196	14	0	1000	151
fixed	2	1	5	416355	11	1	1	1	0	1206	14	0	400	152
fixed	2	1	6	417551	12	2	2	1	0	1196	14	0	550	153
fixed	2	1	7	418514	10	0	0	1	0	962	14	0	800	154
fixed	2	1	8	419734	9	3	3	1	0	1220	14	0	600	155
fixed	2	1	9	420990	8	1	1	1	0	1255	14	0	750	156
fixed	2	2	0	422542	8	2	2	1	0	1103	14	0	1000	157
fixed	2	2	1	423739	11	1	1	1	0	1196	14	0	500	158
fixed	2	2	2	424733	10	0	0	1	0	993	14	0	650	159
fixed	2	2	3	425884	13	2	2	1	0	1150	14	0	900	160
fixed	2	2	4	427311	9	3	3	1	0	1427	14	0	1000	161
fixed	2	2	5	428775	11	1	1	1	0	1464	14	0	400	162
fixed	2	2	6	429917	12	2	2	1	0	1142	14	0	550	163
fixed	2	2	7	430960	10	0	0	1	0	1042	14	0	800	164
fixed	2	2	8	432279	9	3	3	1	0	1319	14	0	600	165
fixed	2	2	9	433460	8	1	1	1	0	1180	14	0	750	166
fixed	2	3	0	433460	8	2	3	1	0	1047	14	0	1000	166
fixed	2	3	1	436354	11	1	1	1	0	1316	14	0	500	167
fixed	2	3	2	437533	10	0	0	1	0	1179	14	0	650	168
fixed	2	3	3	438726	13	2	2	1	0	1192	14	0	900	169
fixed	2	3	4	439884	9	3	3	1	0	1158	14	0	1000	170
fixed	2	3	5	441020	11	1	1	1	0	1136	14	0	400	171
fixed	2	3	6	442505	12	2	2	1	0	1485	14	0	550	172
fixed	2	3	7	443446	10	0	0	1	0	940	14	0	800	173
fixed	2	3	8	444856	9	3	3	1	0	1410	14	0	600	174
fixed	2	3	9	446069	8	1	1	1	0	1213	14	0	750	175
fixed	2	4	0	446069	8	2	2	1	0	1074	14	0	1000	176
fixed	2	4	1	448707	11	1	1	1	0	1071	14	0	500	177
fixed	2	4	2	449822	10	0	0	1	0	1115	14	0	650	178
fixed	2	4	3	451146	13	2	2	1	0	1324	14	0	900	179
fixed	2	4	4	452468	9	3	3	1	0	1322	14	0	1000	180
fixed	2	4	5	453765	11	1	1	1	0	1297	14	0	400	181
fixed	2	4	6	455055	12	2	2	1	0	1290	14	0	550	182
fixed	2	4	7	456184	10	0	0	1	0	1128	14	0	800	183
fixed	2	4	8	457517	9	3	2	1	0	1333	14	0	600	183
fixed	2	4	9	458787	8	1	1	1	0	1270	14	0	750	184
fixed	2	5	0	458787	8	2	2	1	0	1184	14	0	1000	185
fixed	2	5	1	461803	11	1	1	1	0	1336	14	0	500	186
fixed	2	5	2	462932	10	0	0	1	0	1129	14	0	650	187
fixed	2	5	3	464392	13	2	2	1	0	1460	14	0	900	188
fixed	2	5	4	464392	9	3	3	1	0	1034	14	0	1000	189
fixed	2	5	5	466768	11	1	1	1	0	1341	14	0	400	190
fixed	2	5	6	468395	12	2	2	1	0	1627	14	0	550	191
fixed	2	5	7	469417	10	0	0	1	0	1021	14	0	800	192
fixed	2	5	8	470358	9	3	3	1	0	941	14	0	600	193
fixed	2	5	9	471228	8	1	1	1	0	870	14	0	750	194
fixed	2	6	0	471228	8	2	2	1	0	959	14	0	1000	195
fixed	2	6	1	473675	11	1	1	1	0	875	14	0	500	196
fixed	2	6	2	474816	10	0	0	1	0	1141	14	0	650	197
fixed	2	6	3	476238	13	2	2	1	0	1422	14	0	900	198
fixed	2	6	4	476238	9	3	3	1	0	904	14	0	1000	199
fixed	2	6	5	478514	11	1	1	1	0	1199	14	0	400	200
fixed	2	6	6	479682	12	2	2	1	0	1168	14	0	550	201
fixed	2	6	7	479682	10	0	0	1	0	881	14	0	800	202
fixed	2	6	8	481475	9	3	3	1	0	911	14	0	600	203
fixed	2	6	9	482655	8	1	1	1	0	1180	14	0	750	204
fixed	3	0	0	484325	7	2	2	1	0	1177	14	0	1000	205
fixed	3	0	1	485251	10	1	1	1	0	926	14	0	500	206
fixed	3	0	2	486313	9	0	0	1	0	1061	14	0	650	207
fixed	3	0	3	487472	12	2	2	1	0	1159	14	0	900	208
fixed	3	0	4	487472	8	3	3	1	0	977	14	0	1000	209
fixed	3	0	5	489328	10	1	1	1	0	830	14	0	400	210
fixed	3	0	6	490405	11	2	2	1	0	1077	14	0	550	211
fixed	3	0	7	491447	9	0	0	1	0	1043	14	0	800	212
fixed	3	0	8	492854	8	3	3	1	0	1406	14	0	600	213
fixed	3	0	9	494143	7	1	1	1	0	1289	14	0	750	214
fixed	3	1	0	496156	7	2	2	1	0	1512	14	0	1000	215
fixed	3	1	1	497426	10	1	1	1	0	1270	14	0	500	216
fixed	3	1	2	498341	9	0	0	1	0	915	14	0	650	217
fixed	3	1	3	499458	12	2	2	1	0	1117	14	0	900	218
fixed	3	1	4	499458	8	3	3	1	0	1050	14	0	1000	219
fixed	3	1	5	501819	10	1	1	1	0	1310	14	0	400	220
fixed	3	1	6	503065	11	2	2	1	0	1246	14	0	550	221
fixed	3	1	7	504147	9	0	0	1	0	1081	14	0	800	222
fixed	3	1	8	505119	8	3	3	1	0	972	14	0	600	223
fixed	3	1	9	506358	7	1	1	1	0	1238	14	0	750	224
fixed	3	2	0	508086	7	2	2	1	0	1232	14	0	1000	225
fixed	3	2	1	509021	10	1	3	1	0	934	14	0	500	225
fixed	3	2	2	510269	9	0	0	1	0	1248	14	0	650	226
fixed	3	2	3	512141	12	2	2	1	0	1872	14	0	900	227
fixed	3	2	4	512141	8	3	3	1	0	950	14	0	1000	228
fixed	3	2	5	514104	10	1	1	1	0	914	14	0	400	229
fixed	3	2	6	515275	11	2	2	1	0	1171	14	0	550	230
fixed	3	2	7	516364	9	0	0	1	0	1088	14	0	800	231
fixed	3	2	8	517958	8	3	3	1	0	1594	14	0	600	232
fixed	3	2	9	519247	7	1	1	1	0	1289	14	0	750	233
fixed	3	3	0	521676	7	2	2	1	0	2003	14	0	1000	234
fixed	3	3	1	522862	10	1	1	1	0	1185	14	0	500	235
fixed	3	3	2	524152	9	0	0	1	0	1290	14	0	650	236
fixed	3	3	3	525276	12	2	2	1	0	1123	14	0	900	237
fixed	3	3	4	526985	8	3	3	1	0	1709	14	0	1000	238
fixed	3	3	5	528132	10	1	1	1	0	1147	14	0	400	239
fixed	3	3	6	529438	11	2	2	1	0	1306	14	0	550	240
fixed	3	3	7	530682	9	0	0	1	0	1243	14	0	800	241
fixed	3	3	8	532053	8	3	3	1	0	1370	14	0	600	242
fixed	3	3	9	533301	7	1	1	1	0	1248	14	0	750	243
fixed	3	4	0	535819	7	2	2	1	0	1987	14	0	1000	244
fixed	3	4	1	537051	10	1	1	1	0	1232	14	0	500	245
fixed	3	4	2	538084	9	0	0	1	0	1032	14	0	650	246
fixed	3	4	3	539273	12	2	2	1	0	1189	14	0	900	247
fixed	3	4	4	540566	8	3	3	1	0	1292	14	0	1000	248
fixed	3	4	5	541820	10	1	1	1	0	1254	14	0	400	249
fixed	3	4	6	543131	11	2	2	1	0	1311	14	0	550	250
fixed	3	4	7	544299	9	0	0	1	0	1168	14	0	800	251
fixed	3	4	8	545398	8	3	2	1	0	1098	14	0	600	251
fixed	3	4	9	546732	7	1	1	1	0	1334	14	0	750	252
fixed	3	5	0	548655	7	2	2	1	0	1478	14	0	1000	253
fixed	3	5	1	549857	10	1	1	1	0	1202	14	0	500	254
fixed	3	5	2	550801	9	0	0	1	0	944	14	0	650	255
fixed	3	5	3	552465	12	2	2	1	0	1664	14	0	900	256
fixed	3	5	4	552465	8	3	3	1	0	1052	14	0	1000	257
fixed	3	5	5	554681	10	1	1	1	0	1163	14	0	400	258
fixed	3	5	6	555887	11	2	2	1	0	1206	14	0	550	259
fixed	3	5	7	556948	9	0	0	1	0	1061	14	0	800	260
fixed	3	5	8	558268	8	3	3	1	0	1320	14	0	600	261
fixed	3	5	9	559432	7	1	1	1	0	1163	14	0	750	262
fixed	3	6	0	561465	7	2	2	1	0	1515	14	0	1000	263
fixed	3	6	1	562765	10	1	1	1	0	1299	14	0	500	264
fixed	3	6	2	563851	9	0	0	1	0	1086	14	0	650	265
fixed	3	6	3	565525	12	2	2	1	0	1674	14	0	900	266
fixed	3	6	4	566688	8	3	3	1	0	1163	14	0	1000	267
fixed	3	6	5	567868	10	1	1	1	0	1179	14	0	400	268
fixed	3	6	6	569203	11	2	2	1	0	1335	14	0	550	269
fixed	3	6	7	570375	9	0	0	1	0	1171	14	0	800	270
fixed	3	6	8	571548	8	3	3	1	0	1173	14	0	600	271
fixed	3	6	9	571548	7	1	1	1	0	752	14	0	750	272
fixed	4	0	0	574036	6	2	2	1	0	1154	14	0	1000	273
fixed	4	0	1	575116	9	1	1	1	0	1079	14	0	500	274
fixed	4	0	2	576189	8	0	0	1	0	1072	14	0	650	275
fixed	4	0	3	577766	11	2	2	1	0	1577	14	0	900	276
fixed	4	0	4	578937	7	3	3	1	0	1170	14	0	1000	277
fixed	4	0	5	579976	9	1	1	1	0	1039	14	0	400	278
fixed	4	0	6	581734	10	2	2	1	0	1758	14	0	550	279
fixed	4	0	7	582753	8	0	0	1	0	1018	14	0	800	280
fixed	4	0	8	583882	7	3	3	1	0	1129	14	0	600	281
fixed	4	0	9	585182	6	1	1	1	0	1299	14	0	750	282
fixed	4	1	0	586954	6	2	2	1	0	1244	14	0	1000	283
fixed	4	1	1	588202	9	1	1	1	0	1248	14	0	500	284
fixed	4	1	2	589136	8	0	0	1	0	933	14	0	650	285
fixed	4	1	3	590332	11	2	2	1	0	1196	14	0	900	286
fixed	4	1	4	590332	7	3	3	1	0	902	14	0	1000	287
fixed	4	1	5	592457	9	1	1	1	0	1108	14	0	400	288
fixed	4	1	6	593644	10	2	2	1	0	1186	14	0	550	289
fixed	4	1	7	594638	8	0	0	1	0	994	14	0	800	290
fixed	4	1	8	596047	7	3	3	1	0	1409	14	0	600	291
fixed	4	1	9	597346	6	1	1	1	0	1299	14	0	750	292
fixed	4	2	0	597346	6	2	2	1	0	825	14	0	1000	293
fixed	4	2	1	600086	9	1	1	1	0	1229	14	0	500	294
fixed	4	2	2	601029	8	0	0	1	0	943	14	0	650	295
fixed	4	2	3	602200	11	2	2	1	0	1170	14	0	900	296
fixed	4	2	4	603252	7	3	3	1	0	1052	14	0	1000	297
fixed	4	2	5	604256	9	1	1	1	0	1003	14	0	400	298
fixed	4	2	6	605606	10	2	2	1	0	1349	14	0	550	299
fixed	4	2	7	606538	8	0	0	1	0	932	14	0	800	300
fixed	4	2	8	607841	7	3	3	1	0	1302	14	0	600	301
fixed	4	2	9	609310	6	1	1	1	0	1468	14	0	750	302
fixed	4	3	0	611084	6	2	2	1	0	1325	14	0	1000	303
fixed	4	3	1	612267	9	1	1	1	0	1183	14	0	500	304
fixed	4	3	2	613534	8	0	0	1	0	1266	14	0	650	305
fixed	4	3	3	614782	11	2	2	1	0	1248	14	0	900	306
fixed	4	3	4	616087	7	3	3	1	0	1304	14	0	1000	307
fixed	4	3	5	617268	9	1	1	1	0	1180	14	0	400	308
fixed	4	3	6	618441	10	2	2	1	0	1172	14	0	550	309
fixed	4	3	7	619549	8	0	0	1	0	1108	14	0	800	310
fixed	4	3	8	620876	7	3	3	1	0	1326	14	0	600	311
fixed	4	3	9	622091	6	1	1	1	0	1215	14	0	750	312
fixed	4	4	0	623758	6	2	2	1	0	1246	14	0	1000	313
fixed	4	4	1	624927	9	1	1	1	0	1169	14	0	500	314
fixed	4	4	2	626204	8	0	0	1	0	1277	14	0	650	315
fixed	4	4	3	627485	11	2	2	1	0	1281	14	0	900	316
fixed	4	4	4	627485	7	3	3	1	0	869	14	0	1000	317
fixed	4	4	5	629723	9	1	1	1	0	1228	14	0	400	318
fixed	4	4	6	630586	10	2	0	1	0	862	14	0	550	318
fixed	4	4	7	631658	8	0	0	1	0	1072	14	0	800	319
fixed	4	4	8	633147	7	3	3	1	0	1489	14	0	600	320
fixed	4	4	9	634285	6	1	1	1	0	1139	14	0	750	321
fixed	4	5	0	636414	6	2	2	1	0	1620	14	0	1000	322
fixed	4	5	1	636414	9	1	1	1	0	500	14	0	500	323
fixed	4	5	2	638004	8	0	0	1	0	1090	14	0	650	324
fixed	4	5	3	639310	11	2	2	1	0	1305	14	0	900	325
fixed	4	5	4	639310	7	3	3	1	0	840	14	0	1000	326
fixed	4	5	5	641537	9	1	1	1	0	1223	14	0	400	327
fixed	4	5	6	642751	10	2	2	1	0	1214	14	0	550	328
fixed	4	5	7	643801	8	0	0	1	0	1050	14	0	800	329
fixed	4	5	8	644716	7	3	3	1	0	914	14	0	600	330
fixed	4	5	9	646026	6	1	1	1	0	1310	14	0	750	331
fixed	4	6	0	648025	6	2	2	1	0	1496	14	0	1000	332
fixed	4	6	1	648642	9	1	1	1	0	617	14	0	500	333
fixed	4	6	2	649478	8	0	0	1	0	836	14	0	650	334
fixed	4	6	3	650874	11	2	2	1	0	1395	14	0	900	335
fixed	4	6	4	651944	7	3	3	1	0	1069	14	0	1000	336
fixed	4	6	5	653137	9	1	1	1	0	1193	14	0	400	337
fixed	4	6	6	654366	10	2	3	1	0	1228	14	0	550	337
fixed	4	6	7	655654	8	0	0	1	0	1288	14	0	800	338
fixed	4	6	8	656796	7	3	3	1	0	1142	14	0	600	339
fixed	4	6	9	658018	6	1	1	1	0	1222	14	0	750	340
fixed	5	0	0	659937	5	2	2	1	0	1351	14	0	1000	341
fixed	5	0	1	659937	8	1	1	1	0	588	14	0	500	342
fixed	5	0	2	659937	7	0	0	1	0	543	14	0	650	343
fixed	5	0	3	659937	10	2	2	1	0	792	14	0	900	344
fixed	5	0	4	663258	6	3	3	1	0	1073	14	0	1000	345
fixed	5	0	5	664826	8	1	1	1	0	1568	14	0	400	346
fixed	5	0	6	666201	9	2	2	1	0	1375	14	0	550	347
fixed	5	0	7	667316	7	0	0	1	0	1115	14	0	800	348
fixed	5	0	8	668279	6	3	3	1	0	963	14	0	600	349
fixed	5	0	9	669633	5	1	1	1	0	1354	14	0	750	350
fixed	5	1	0	669633	5	2	2	1	0	1023	14	0	1000	351
fixed	5	1	1	671902	8	1	1	1	0	701	14	0	500	352
fixed	5	1	2	672692	7	0	0	1	0	789	14	0	650	353
fixed	5	1	3	673724	10	2	2	1	0	1031	14	0	900	354
fixed	5	1	4	673724	6	3	3	1	0	887	14	0	1000	355
fixed	5	1	5	676005	8	1	1	1	0	1217	14	0	400	356
fixed	5	1	6	677269	9	2	2	1	0	1263	14	0	550	357
fixed	5	1	7	678320	7	0	0	1	0	1050	14	0	800	358
fixed	5	1	8	679783	6	3	3	1	0	1462	14	0	600	359
fixed	5	1	9	681339	5	1	1	1	0	1556	14	0	750	360
fixed	5	2	0	681339	5	2	2	1	0	940	14	0	1000	361
fixed	5	2	1	681339	8	1	1	1	0	441	14	0	500	362
fixed	5	2	2	684155	7	0	0	1	0	762	14	0	650	363
fixed	5	2	3	685348	10	2	2	1	0	1193	14	0	900	364
fixed	5	2	4	685348	6	3	3	1	0	787	14	0	1000	365
fixed	5	2	5	687552	8	1	1	1	0	1163	14	0	400	366
fixed	5	2	6	688844	9	2	2	1	0	1291	14	0	550	367
fixed	5	2	7	690151	7	0	0	1	0	1307	14	0	800	368
fixed	5	2	8	691010	6	3	3	1	0	859	14	0	600	369
fixed	5	2	9	692232	5	1	1	1	0	1222	14	0	750	370
fixed	5	3	0	693767	5	2	2	1	0	1076	14	0	1000	371
fixed	5	3	1	694405	8	1	1	1	0	637	14	0	500	372
fixed	5	3	2	695164	7	0	0	1	0	759	14	0	650	373
fixed	5	3	3	696401	10	2	2	1	0	1236	14	0	900	374
fixed	5	3	4	696401	6	3	3	1	0	691	14	0	1000	375
fixed	5	3	5	697951	8	1	1	1	0	500	14	0	400	376
fixed	5	3	6	699528	9	2	2	1	0	1576	14	0	550	377
fixed	5	3	7	700754	7	0	0	1	0	1225	14	0	800	378
fixed	5	3	8	701999	6	3	3	1	0	1245	14	0	600	379
fixed	5	3	9	703182	5	1	1	1	0	1184	14	0	750	380
fixed	5	4	0	706132	5	2	-1	1	0	2500	14	0	1000	380
fixed	5	4	1	708500	8	1	1	1	0	2366	14	0	500	381
fixed	5	4	2	709655	7	0	0	1	0	1155	14	0	650	382
fixed	5	4	3	711098	10	2	2	1	0	1443	14	0	900	383
fixed	5	4	4	711098	6	3	3	1	0	868	14	0	1000	384
fixed	5	4	5	713552	8	1	1	1	0	1381	14	0	400	385
fixed	5	4	6	714750	9	2	2	1	0	1197	14	0	550	386
fixed	5	4	7	715892	7	0	0	1	0	1142	14	0	800	387
fixed	5	4	8	717656	6	3	3	1	0	1764	14	0	600	388
fixed	5	4	9	719424	5	1	1	1	0	1767	14	0	750	389
fixed	5	5	0	721655	5	2	2	1	0	1516	14	0	1000	390
fixed	5	5	1	721655	8	1	1	1	0	623	14	0	500	391
fixed	5	5	2	721655	7	0	0	1	0	553	14	0	650	392
fixed	5	5	3	721655	10	2	2	1	0	469	14	0	900	393
fixed	5	5	4	721655	6	3	3	1	0	310	14	0	1000	394
fixed	5	5	5	725497	8	1	3	1	0	532	14	0	400	394
fixed	5	5	6	727953	9	2	2	1	0	2456	14	0	550	395
fixed	5	5	7	729076	7	0	0	1	0	1123	14	0	800	396
fixed	5	5	8	730267	6	3	3	1	0	1190	14	0	600	397
fixed	5	5	9	731442	5	1	1	1	0	1175	14	0	750	398
fixed	5	6	0	733650	5	2	2	1	0	1667	14	0	1000	399
fixed	5	6	1	734337	8	1	1	1	0	687	14	0	500	400
fixed	5	6	2	734337	7	0	0	1	0	615	14	0	650	401
fixed	5	6	3	736104	10	2	2	1	0	1095	14	0	900	402
fixed	5	6	4	736104	6	3	3	1	0	708	14	0	1000	403
fixed	5	6	5	737828	8	1	1	1	0	717	14	0	400	404
fixed	5	6	6	739192	9	2	2	1	0	1364	14	0	550	405
fixed	5	6	7	740231	7	0	0	1	0	1039	14	0	800	406
fixed	5	6	8	741536	6	3	3	1	0	1304	14	0	600	407
fixed	5	6	9	741536	5	1	1	1	0	798	14	0	750	408
random	6	0	0	744706	5	3	3	1	0	1951	14	0	1000	409
random	6	0	1	745998	8	1	1	1	0	1292	14	0	550	410
random	6	0	2	747071	5	3	3	1	0	1073	14	0	900	411
random	6	0	3	748166	6	0	0	1	0	1094	14	0	750	412
random	6	0	4	749363	9	2	2	1	0	1197	14	0	600	413
random	6	0	5	750861	4	0	0	1	0	1497	14	0	300	414
random	6	0	6	751870	7	1	1	1	0	1009	14	0	400	415
random	6	0	7	753381	4	2	2	1	0	1511	14	0	1000	416
random	6	0	8	754972	8	3	3	1	0	1591	14	0	500	417
random	6	0	9	756532	7	2	2	1	0	1559	14	0	800	418
random	6	1	0	758651	8	3	3	1	0	1616	14	0	650	419
random	6	1	1	759961	9	2	2	1	0	1310	14	0	600	420
random	6	1	2	761435	6	1	1	1	0	1474	14	0	300	421
random	6	1	3	762640	5	2	2	1	0	1204	14	0	1000	422
random	6	1	4	763898	9	1	1	1	0	1258	14	0	900	423
random	6	1	5	764908	4	0	0	1	0	1009	14	0	800	424
random	6	1	6	766168	5	3	3	1	0	1260	14	0	750	425
random	6	1	7	767298	4	2	2	1	0	1129	14	0	400	426
random	6	1	8	768682	7	1	1	1	0	1384	14	0	1000	427
random	6	1	9	769834	6	0	0	1	0	1151	14	0	500	428
random	6	2	0	771728	4	1	1	1	0	1487	14	0	900	429
random	6	2	1	773127	8	0	0	1	0	1398	14	0	300	430
random	6	2	2	774234	9	3	2	1	0	1107	14	0	1000	430
random	6	2	3	775810	7	0	0	1	0	1576	14	0	550	431
random	6	2	4	777208	6	2	2	1	0	1398	14	0	1000	432
random	6	2	5	778535	5	1	1	1	0	1326	14	0	400	433
random	6	2	6	779811	6	3	3	1	0	1276	14	0	600	434
random	6	2	7	781125	8	2	2	1	0	1313	14	0	500	435
random	6	2	8	782566	4	3	3	1	0	1440	14	0	750	436
random	6	2	9	783907	9	2	2	1	0	1341	14	0	650	437
random	6	3	0	785882	4	0	0	1	0	1505	14	0	900	438
random	6	3	1	787196	8	2	2	1	0	1313	14	0	300	439
random	6	3	2	788436	9	1	1	1	0	1240	14	0	1000	440
random	6	3	3	790049	7	3	3	1	0	1613	14	0	550	441
random	6	3	4	791260	6	1	1	1	0	1210	14	0	1000	442
random	6	3	5	792473	5	0	0	1	0	1213	14	0	400	443
random	6	3	6	793975	6	3	3	1	0	1502	14	0	600	444
random	6	3	7	795340	8	2	2	1	0	1365	14	0	500	445
random	6	3	8	796551	4	1	1	1	0	1210	14	0	750	446
random	6	3	9	797641	9	2	2	1	0	1090	14	0	650	447
random	6	4	0	799198	5	3	3	1	0	1095	14	0	500	448
random	6	4	1	800361	9	2	2	1	0	1162	14	0	600	449
random	6	4	2	801426	6	1	1	1	0	1065	14	0	900	450
random	6	4	3	801426	9	0	0	1	0	823	14	0	1000	451
random	6	4	4	803454	8	3	3	1	0	1003	14	0	650	452
random	6	4	5	804772	4	1	1	1	0	1318	14	0	550	453
random	6	4	6	806179	7	3	3	1	0	1406	14	0	800	454
random	6	4	7	807155	6	0	0	1	0	975	14	0	700	455
random	6	4	8	807155	8	2	2	1	0	882	14	0	1000	456
random	6	4	9	809599	5	1	1	1	0	1403	14	0	300	457
random	6	5	0	812147	6	0	0	1	0	2107	14	0	1000	458
random	6	5	1	813402	8	2	2	1	0	1255	14	0	400	459
random	6	5	2	814415	4	3	3	1	0	1012	14	0	750	460
random	6	5	3	815726	8	1	1	1	0	1310	14	0	900	461
random	6	5	4	816986	5	2	3	1	0	1260	14	0	300	461
random	6	5	5	817803	4	3	2	1	0	817	14	0	650	461
random	6	5	6	820035	7	0	0	1	0	2232	14	0	550	462
random	6	5	7	821680	9	2	2	1	0	1644	14	0	800	463
random	6	5	8	822943	7	1	1	1	0	1263	14	0	500	464
random	6	5	9	824065	6	0	0	1	0	1122	14	0	1000	465
random	6	6	0	824065	9	0	0	1	0	965	14	0	1000	466
random	6	6	1	826773	6	2	2	1	0	1198	14	0	650	467
random	6	6	2	827809	9	1	1	1	0	1036	14	0	900	468
random	6	6	3	828824	8	2	2	1	0	1015	14	0	600	469
random	6	6	4	829868	6	0	0	1	0	1044	14	0	400	470
random	6	6	5	831060	8	3	3	1	0	1191	14	0	300	471
random	6	6	6	832185	5	1	1	1	0	1125	14	0	700	472
random	6	6	7	833347	4	3	3	1	0	1162	14	0	750	473
random	6	6	8	835018	7	1	1	1	0	1670	14	0	500	474
random	6	6	9	836330	5	2	2	1	0	1312	14	0	1000	475
fixed	7	0	0	837883	3	2	2	1	0	1023	14	0	1000	476
fixed	7	0	1	839201	6	1	1	1	0	1317	14	0	500	477
fixed	7	0	2	840117	5	0	0	1	0	915	14	0	650	478
fixed	7	0	3	841501	8	2	2	1	0	1384	14	0	900	479
fixed	7	0	4	841501	4	3	3	1	0	685	14	0	1000	480
fixed	7	0	5	843379	6	1	1	1	0	827	14	0	400	481
fixed	7	0	6	844796	7	2	2	1	0	1416	14	0	550	482
fixed	7	0	7	845853	5	0	0	1	0	1056	14	0	800	483
fixed	7	0	8	847175	4	3	3	1	0	1322	14	0	600	484
fixed	7	0	9	848336	3	1	1	1	0	1161	14	0	750	485
fixed	7	1	0	850351	3	2	2	1	0	1636	14	0	1000	486
fixed	7	1	1	851466	6	1	1	1	0	1114	14	0	500	487
fixed	7	1	2	851466	5	0	0	1	0	675	14	0	650	488
fixed	7	1	3	853468	8	2	2	1	0	1326	14	0	900	489
fixed	7	1	4	853468	4	3	3	1	0	599	14	0	1000	490
fixed	7	1	5	855184	6	1	1	1	0	696	14	0	400	491
fixed	7	1	6	857155	7	2	2	1	0	1971	14	0	550	492
fixed	7	1	7	857155	5	0	0	1	0	723	14	0	800	493
fixed	7	1	8	859075	4	3	3	1	0	1118	14	0	600	494
fixed	7	1	9	860186	3	1	1	1	0	1110	14	0	750	495
fixed	7	2	0	862278	3	2	2	1	0	1663	14	0	1000	496
fixed	7	2	1	862996	6	1	1	1	0	717	14	0	500	497
fixed	7	2	2	863858	5	0	0	1	0	862	14	0	650	498
fixed	7	2	3	863858	8	2	2	1	0	804	14	0	900	499
fixed	7	2	4	863858	4	3	3	1	0	804	14	0	1000	500
fixed	7	2	5	866565	6	1	1	1	0	730	14	0	400	501
fixed	7	2	6	867687	7	2	2	1	0	1121	14	0	550	502
fixed	7	2	7	868589	5	0	0	1	0	902	14	0	800	503
fixed	7	2	8	870453	4	3	2	1	0	1863	14	0	600	503
fixed	7	2	9	871898	3	1	1	1	0	1445	14	0	750	504
fixed	7	3	0	873976	3	2	2	1	0	1575	14	0	1000	505
fixed	7	3	1	874650	6	1	1	1	0	674	14	0	500	506
fixed	7	3	2	875410	5	0	0	1	0	759	14	0	650	507
fixed	7	3	3	876716	8	2	2	1	0	1306	14	0	900	508
fixed	7	3	4	876716	4	3	3	1	0	751	14	0	1000	509
fixed	7	3	5	878869	6	1	1	1	0	1125	14	0	400	510
fixed	7	3	6	880509	7	2	2	1	0	1640	14	0	550	511
fixed	7	3	7	881644	5	0	0	1	0	1135	14	0	800	512
fixed	7	3	8	882772	4	3	3	1	0	1127	14	0	600	513
fixed	7	3	9	883897	3	1	1	1	0	1125	14	0	750	514
fixed	7	4	0	885507	3	2	2	1	0	1183	14	0	1000	515
fixed	7	4	1	886237	6	1	1	1	0	730	14	0	500	516
fixed	7	4	2	887146	5	0	0	1	0	908	14	0	650	517
fixed	7	4	3	887146	8	2	3	1	0	717	14	0	900	517
fixed	7	4	4	889126	4	3	3	1	0	1061	14	0	1000	518
fixed	7	4	5	890504	6	1	1	1	0	1378	14	0	400	519
fixed	7	4	6	891503	7	2	2	1	0	998	14	0	550	520
fixed	7	4	7	892661	5	0	0	1	0	1158	14	0	800	521
fixed	7	4	8	894178	4	3	3	1	0	1517	14	0	600	522
fixed	7	4	9	895335	3	1	1	1	0	1157	14	0	750	523
fixed	7	5	0	897395	3	2	2	1	0	1553	14	0	1000	524
fixed	7	5	1	898075	6	1	1	1	0	680	14	0	500	525
fixed	7	5	2	898075	5	0	0	1	0	605	14	0	650	526
fixed	7	5	3	898075	8	2	2	1	0	699	14	0	900	527
fixed	7	5	4	898075	4	3	3	1	0	724	14	0	1000	528
fixed	7	5	5	901875	6	1	1	1	0	1182	14	0	400	529
fixed	7	5	6	903185	7	2	2	1	0	1310	14	0	550	530
fixed	7	5	7	904162	5	0	0	1	0	976	14	0	800	531
fixed	7	5	8	905599	4	3	3	1	0	1437	14	0	600	532
fixed	7	5	9	906743	3	1	1	1	0	1144	14	0	750	533
fixed	7	6	0	908397	3	2	2	1	0	1169	14	0	1000	534
fixed	7	6	1	909060	6	1	1	1	0	662	14	0	500	535
fixed	7	6	2	909060	5	0	0	1	0	601	14	0	650	536
fixed	7	6	3	910925	8	2	2	1	0	1186	14	0	900	537
fixed	7	6	4	910925	4	3	3	1	0	720	14	0	1000	538
fixed	7	6	5	913017	6	1	1	1	0	1088	14	0	400	539
fixed	7	6	6	914430	7	2	2	1	0	1413	14	0	550	540
fixed	7	6	7	915576	5	0	0	1	0	1146	14	0	800	541
fixed	7	6	8	916820	4	3	3	1	0	1243	14	0	600	542
fixed	7	6	9	918025	3	1	1	1	0	1206	14	0	750	543
