type	block	sequ.	trial	time	Pos.	Color	Button	NumRsp	Resp_1	RT_1	R_Code	Resp_2	RT_2	Trigg.	n_hit	n_inc	n_miss	score_%
random	0	0	0	338167	11	3	3	1	0	2278	14	0	1000	1
random	0	0	1	340127	14	1	1	1	0	1958	14	0	550	2
random	0	0	2	341599	11	3	3	1	0	1472	14	0	900	3
random	0	0	3	342903	12	0	0	1	0	1304	14	0	750	4
random	0	0	4	344040	15	2	2	1	0	1136	14	0	600	5
random	0	0	5	345291	10	0	0	1	0	1250	14	0	300	6
random	0	0	6	346379	13	1	1	1	0	1088	14	0	400	7
random	0	0	7	347985	10	2	2	1	0	1606	14	0	1000	8
random	0	0	8	348934	14	3	3	1	0	949	14	0	500	9
random	0	0	9	350826	13	2	2	1	0	1892	14	0	800	10
random	0	1	0	353360	14	3	3	1	0	1986	14	0	650	11
random	0	1	1	354504	15	2	2	1	0	1144	14	0	600	12
random	0	1	2	356358	12	1	1	1	0	1854	14	0	300	13
random	0	1	3	357823	11	2	2	1	0	1466	14	0	1000	14
random	0	1	4	359776	15	1	1	1	0	1952	14	0	900	15
random	0	1	5	360822	10	0	0	1	0	1046	14	0	800	16
random	0	1	6	361784	11	3	3	1	0	962	14	0	750	17
random	0	1	7	362728	10	2	2	1	0	945	14	0	400	18
random	0	1	8	362728	13	1	1	1	0	1039	14	0	1000	19
random	0	1	9	364709	12	0	0	1	0	941	14	0	500	20
random	0	2	0	366924	10	1	1	1	0	1800	14	0	900	21
random	0	2	1	367911	14	0	0	1	0	986	14	0	300	22
random	0	2	2	367911	15	3	3	1	0	973	14	0	1000	23
random	0	2	3	369976	13	0	0	1	0	1035	14	0	550	24
random	0	2	4	371091	12	2	2	1	0	1114	14	0	1000	25
random	0	2	5	372509	11	1	1	1	0	1417	14	0	400	26
random	0	2	6	373589	12	3	3	1	0	1079	14	0	600	27
random	0	2	7	374823	14	2	2	1	0	1234	14	0	500	28
random	0	2	8	375929	10	3	3	1	0	1105	14	0	750	29
random	0	2	9	377372	15	2	2	1	0	1443	14	0	650	30
random	0	3	0	379590	10	0	0	1	0	1666	14	0	900	31
random	0	3	1	380853	14	2	2	1	0	1263	14	0	300	32
random	0	3	2	380853	15	1	1	1	0	966	14	0	1000	33
random	0	3	3	382786	13	3	3	1	0	928	14	0	550	34
random	0	3	4	385321	12	1	-1	1	0	2500	14	0	1000	34
random	0	3	5	385321	11	0	1	1	0	238	14	0	400	34
random	0	3	6	385321	12	3	0	1	0	610	14	0	600	34
random	0	3	7	388090	14	2	2	1	0	1746	14	0	500	35
random	0	3	8	389538	10	1	1	1	0	1447	14	0	750	36
random	0	3	9	391274	15	2	2	1	0	1736	14	0	650	37
random	0	4	0	393698	11	3	3	1	0	1848	14	0	500	38
random	0	4	1	395111	15	2	2	1	0	1413	14	0	600	39
random	0	4	2	396124	12	1	1	1	0	1013	14	0	900	40
random	0	4	3	396124	15	0	0	1	0	849	14	0	1000	41
random	0	4	4	398643	14	3	3	1	0	1449	14	0	650	42
random	0	4	5	399787	10	1	1	1	0	1144	14	0	550	43
random	0	4	6	400853	13	3	3	1	0	1066	14	0	800	44
random	0	4	7	402373	12	0	0	1	0	1519	14	0	700	45
random	0	4	8	402373	14	2	2	1	0	921	14	0	1000	46
random	0	4	9	404628	11	1	1	1	0	1230	14	0	300	47
random	0	5	0	406436	12	0	0	1	0	1321	14	0	1000	48
random	0	5	1	407675	14	2	2	1	0	1238	14	0	400	49
random	0	5	2	408677	10	3	3	1	0	1002	14	0	750	50
random	0	5	3	408677	14	1	1	1	0	911	14	0	900	51
random	0	5	4	410758	11	2	2	1	0	1170	14	0	300	52
random	0	5	5	411961	10	3	3	1	0	1203	14	0	650	53
random	0	5	6	413108	13	0	0	1	0	1147	14	0	550	54
random	0	5	7	414142	15	2	2	1	0	1033	14	0	800	55
random	0	5	8	415125	13	1	1	1	0	982	14	0	500	56
random	0	5	9	415125	12	0	0	1	0	1099	14	0	1000	57
random	0	6	0	415125	15	0	0	1	0	994	14	0	1000	58
random	0	6	1	418884	12	2	2	1	0	1177	14	0	650	59
random	0	6	2	420000	15	1	1	1	0	1115	14	0	900	60
random	0	6	3	421108	14	2	2	1	0	1108	14	0	600	61
random	0	6	4	422177	12	0	0	1	0	1069	14	0	400	62
random	0	6	5	422990	14	3	3	1	0	813	14	0	300	63
random	0	6	6	424107	11	1	1	1	0	1117	14	0	700	64
random	0	6	7	425214	10	3	3	1	0	1107	14	0	750	65
random	0	6	8	426362	13	1	1	1	0	1147	14	0	500	66
random	0	6	9	426362	11	2	2	1	0	1018	14	0	1000	67
fixed	1	0	0	426362	9	2	2	1	0	1062	14	0	1000	68
fixed	1	0	1	430177	12	1	1	1	0	1203	14	0	500	69
fixed	1	0	2	431173	11	0	0	1	0	996	14	0	650	70
fixed	1	0	3	432224	14	2	2	1	0	1050	14	0	900	71
fixed	1	0	4	433441	10	3	3	1	0	1217	14	0	1000	72
fixed	1	0	5	434397	12	1	1	1	0	955	14	0	400	73
fixed	1	0	6	435379	13	2	2	1	0	982	14	0	550	74
fixed	1	0	7	436358	11	0	0	1	0	979	14	0	800	75
fixed	1	0	8	437609	10	3	3	1	0	1250	14	0	600	76
fixed	1	0	9	438771	9	1	1	1	0	1162	14	0	750	77
fixed	1	1	0	440600	9	2	2	1	0	1244	14	0	1000	78
fixed	1	1	1	441837	12	1	1	1	0	1237	14	0	500	79
fixed	1	1	2	443014	11	0	0	1	0	1176	14	0	650	80
fixed	1	1	3	444254	14	2	2	1	0	1241	14	0	900	81
fixed	1	1	4	445660	10	3	3	1	0	1405	14	0	1000	82
fixed	1	1	5	446866	12	1	1	1	0	1206	14	0	400	83
fixed	1	1	6	448613	13	2	2	1	0	1747	14	0	550	84
fixed	1	1	7	449691	11	0	0	1	0	1078	14	0	800	85
fixed	1	1	8	450867	10	3	3	1	0	1176	14	0	600	86
fixed	1	1	9	451959	9	1	1	1	0	1091	14	0	750	87
fixed	1	2	0	454093	9	2	2	1	0	1584	14	0	1000	88
fixed	1	2	1	455614	12	1	1	1	0	1521	14	0	500	89
fixed	1	2	2	456790	11	0	0	1	0	1176	14	0	650	90
fixed	1	2	3	458203	14	2	2	1	0	1413	14	0	900	91
fixed	1	2	4	458203	10	3	3	1	0	969	14	0	1000	92
fixed	1	2	5	460385	12	1	1	1	0	1174	14	0	400	93
fixed	1	2	6	461254	13	2	2	1	0	869	14	0	550	94
fixed	1	2	7	462176	11	0	0	1	0	922	14	0	800	95
fixed	1	2	8	463260	10	3	3	1	0	1084	14	0	600	96
fixed	1	2	9	464811	9	1	1	1	0	1551	14	0	750	97
fixed	1	3	0	466502	9	2	2	1	0	1171	14	0	1000	98
fixed	1	3	1	467807	12	1	1	1	0	1304	14	0	500	99
fixed	1	3	2	468892	11	0	0	1	0	1085	14	0	650	100
fixed	1	3	3	470756	14	2	2	1	0	1864	14	0	900	101
fixed	1	3	4	471940	10	3	3	1	0	1184	14	0	1000	102
fixed	1	3	5	473191	12	1	1	1	0	1250	14	0	400	103
fixed	1	3	6	474176	13	2	2	1	0	985	14	0	550	104
fixed	1	3	7	475322	11	0	0	1	0	1146	14	0	800	105
fixed	1	3	8	476897	10	3	3	1	0	1574	14	0	600	106
fixed	1	3	9	477828	9	1	1	1	0	931	14	0	750	107
fixed	1	4	0	479388	9	2	2	1	0	1134	14	0	1000	108
fixed	1	4	1	480745	12	1	1	1	0	1356	14	0	500	109
fixed	1	4	2	481843	11	0	0	1	0	1098	14	0	650	110
fixed	1	4	3	483962	14	2	2	1	0	2119	14	0	900	111
fixed	1	4	4	483962	10	3	3	1	0	911	14	0	1000	112
fixed	1	4	5	486168	12	1	1	1	0	1168	14	0	400	113
fixed	1	4	6	487493	13	2	2	1	0	1325	14	0	550	114
fixed	1	4	7	488495	11	0	0	1	0	1001	14	0	800	115
fixed	1	4	8	489949	10	3	3	1	0	1454	14	0	600	116
fixed	1	4	9	491008	9	1	1	1	0	1059	14	0	750	117
fixed	1	5	0	491008	9	2	2	1	0	983	14	0	1000	118
fixed	1	5	1	493473	12	1	1	1	0	994	14	0	500	119
fixed	1	5	2	494371	11	0	0	1	0	898	14	0	650	120
fixed	1	5	3	495467	14	2	2	1	0	1096	14	0	900	121
fixed	1	5	4	496677	10	3	3	1	0	1210	14	0	1000	122
fixed	1	5	5	497742	12	1	1	1	0	1064	14	0	400	123
fixed	1	5	6	498873	13	2	2	1	0	1131	14	0	550	124
fixed	1	5	7	499883	11	0	0	1	0	1010	14	0	800	125
fixed	1	5	8	501059	10	3	3	1	0	1175	14	0	600	126
fixed	1	5	9	502690	9	1	1	1	0	1631	14	0	750	127
fixed	1	6	0	504310	9	2	2	1	0	1160	14	0	1000	128
fixed	1	6	1	505251	12	1	1	1	0	941	14	0	500	129
fixed	1	6	2	506178	11	0	0	1	0	927	14	0	650	130
fixed	1	6	3	506178	14	2	2	1	0	931	14	0	900	131
fixed	1	6	4	506178	10	3	3	1	0	1035	14	0	1000	132
fixed	1	6	5	509208	12	1	1	1	0	1062	14	0	400	133
fixed	1	6	6	510701	13	2	2	1	0	1493	14	0	550	134
fixed	1	6	7	511807	11	0	0	1	0	1106	14	0	800	135
fixed	1	6	8	512809	10	3	2	1	0	1002	14	0	600	135
fixed	1	6	9	515141	9	1	1	1	0	2332	14	0	750	136
fixed	2	0	0	516729	8	2	2	1	0	1128	14	0	1000	137
fixed	2	0	1	518525	11	1	1	1	0	1796	14	0	500	138
fixed	2	0	2	519492	10	0	0	1	0	964	14	0	650	139
fixed	2	0	3	520682	13	2	2	1	0	1189	14	0	900	140
fixed	2	0	4	520682	9	3	3	1	0	1027	14	0	1000	141
fixed	2	0	5	522942	11	1	1	1	0	1233	14	0	400	142
fixed	2	0	6	524059	12	2	2	1	0	1117	14	0	550	143
fixed	2	0	7	524962	10	0	0	1	0	902	14	0	800	144
fixed	2	0	8	526272	9	3	3	1	0	1310	14	0	600	145
fixed	2	0	9	527675	8	1	1	1	0	1403	14	0	750	146
fixed	2	1	0	529462	8	2	2	1	0	1369	14	0	1000	147
fixed	2	1	1	530444	11	1	1	1	0	982	14	0	500	148
fixed	2	1	2	531320	10	0	0	1	0	876	14	0	650	149
fixed	2	1	3	532360	13	2	2	1	0	1039	14	0	900	150
fixed	2	1	4	532360	9	3	3	1	0	1040	14	0	1000	151
fixed	2	1	5	534568	11	1	1	1	0	1168	14	0	400	152
fixed	2	1	6	535509	12	2	2	1	0	940	14	0	550	153
fixed	2	1	7	536616	10	0	0	1	0	1107	14	0	800	154
fixed	2	1	8	537813	9	3	3	1	0	1196	14	0	600	155
fixed	2	1	9	539192	8	1	1	1	0	1379	14	0	750	156
fixed	2	2	0	539192	8	2	2	1	0	1259	14	0	1000	157
fixed	2	2	1	541809	11	1	1	1	0	899	14	0	500	158
fixed	2	2	2	542652	10	0	0	1	0	842	14	0	650	159
fixed	2	2	3	543692	13	2	2	1	0	1040	14	0	900	160
fixed	2	2	4	543692	9	3	3	1	0	885	14	0	1000	161
fixed	2	2	5	545905	11	1	1	1	0	1210	14	0	400	162
fixed	2	2	6	546911	12	2	2	1	0	1005	14	0	550	163
fixed	2	2	7	547827	10	0	0	1	0	916	14	0	800	164
fixed	2	2	8	548977	9	3	3	1	0	1149	14	0	600	165
fixed	2	2	9	550264	8	1	1	1	0	1287	14	0	750	166
fixed	2	3	0	551965	8	2	2	1	0	1126	14	0	1000	167
fixed	2	3	1	552770	11	1	1	1	0	805	14	0	500	168
fixed	2	3	2	553671	10	0	0	1	0	901	14	0	650	169
fixed	2	3	3	554744	13	2	2	1	0	1072	14	0	900	170
fixed	2	3	4	554744	9	3	3	1	0	803	14	0	1000	171
fixed	2	3	5	557049	11	1	1	1	0	1279	14	0	400	172
fixed	2	3	6	557929	12	2	2	1	0	880	14	0	550	173
fixed	2	3	7	558830	10	0	0	1	0	901	14	0	800	174
fixed	2	3	8	559876	9	3	3	1	0	1046	14	0	600	175
fixed	2	3	9	561029	8	1	1	1	0	1152	14	0	750	176
fixed	2	4	0	562661	8	2	2	1	0	1142	14	0	1000	177
fixed	2	4	1	563976	11	1	1	1	0	1314	14	0	500	178
fixed	2	4	2	565110	10	0	0	1	0	1134	14	0	650	179
fixed	2	4	3	566293	13	2	2	1	0	1182	14	0	900	180
fixed	2	4	4	567809	9	3	3	1	0	1516	14	0	1000	181
fixed	2	4	5	568675	11	1	1	1	0	866	14	0	400	182
fixed	2	4	6	569767	12	2	2	1	0	1092	14	0	550	183
fixed	2	4	7	570670	10	0	0	1	0	902	14	0	800	184
fixed	2	4	8	571860	9	3	3	1	0	1190	14	0	600	185
fixed	2	4	9	573258	8	1	1	1	0	1398	14	0	750	186
fixed	2	5	0	573258	8	2	2	1	0	916	14	0	1000	187
fixed	2	5	1	575894	11	1	1	1	0	1034	14	0	500	188
fixed	2	5	2	576926	10	0	0	1	0	1032	14	0	650	189
fixed	2	5	3	576926	13	2	2	1	0	937	14	0	900	190
fixed	2	5	4	576926	9	3	3	1	0	936	14	0	1000	191
fixed	2	5	5	580044	11	1	1	1	0	1151	14	0	400	192
fixed	2	5	6	581034	12	2	2	1	0	990	14	0	550	193
fixed	2	5	7	581927	10	0	0	1	0	893	14	0	800	194
fixed	2	5	8	582908	9	3	3	1	0	980	14	0	600	195
fixed	2	5	9	584143	8	1	1	1	0	1234	14	0	750	196
fixed	2	6	0	584143	8	2	2	1	0	1009	14	0	1000	197
fixed	2	6	1	587144	11	1	1	1	0	1465	14	0	500	198
fixed	2	6	2	588163	10	0	0	1	0	1019	14	0	650	199
fixed	2	6	3	588163	13	2	2	1	0	748	14	0	900	200
fixed	2	6	4	588163	9	3	3	1	0	689	14	0	1000	201
fixed	2	6	5	591265	11	1	1	1	0	1143	14	0	400	202
fixed	2	6	6	592282	12	2	2	1	0	1016	14	0	550	203
fixed	2	6	7	592282	10	0	0	1	0	844	14	0	800	204
fixed	2	6	8	594149	9	3	3	1	0	1023	14	0	600	205
fixed	2	6	9	595141	8	1	2	1	0	991	14	0	750	205
fixed	3	0	0	596904	7	2	2	1	0	1164	14	0	1000	206
fixed	3	0	1	598343	10	1	1	1	0	1438	14	0	500	207
fixed	3	0	2	599893	9	0	0	1	0	1550	14	0	650	208
fixed	3	0	3	601630	12	2	2	1	0	1737	14	0	900	209
fixed	3	0	4	601630	8	3	3	1	0	1049	14	0	1000	210
fixed	3	0	5	603803	10	1	1	1	0	1123	14	0	400	211
fixed	3	0	6	604997	11	2	2	1	0	1193	14	0	550	212
fixed	3	0	7	606272	9	0	0	1	0	1275	14	0	800	213
fixed	3	0	8	607030	8	3	3	1	0	758	14	0	600	214
fixed	3	0	9	608255	7	1	1	1	0	1226	14	0	750	215
fixed	3	1	0	608255	7	2	2	1	0	1003	14	0	1000	216
fixed	3	1	1	610857	10	1	1	1	0	1144	14	0	500	217
fixed	3	1	2	612260	9	0	0	1	0	1402	14	0	650	218
fixed	3	1	3	613271	12	2	2	1	0	1011	14	0	900	219
fixed	3	1	4	613271	8	3	3	1	0	820	14	0	1000	220
fixed	3	1	5	615314	10	1	1	1	0	1022	14	0	400	221
fixed	3	1	6	616483	11	2	2	1	0	1169	14	0	550	222
fixed	3	1	7	617568	9	0	0	1	0	1085	14	0	800	223
fixed	3	1	8	618627	8	3	3	1	0	1059	14	0	600	224
fixed	3	1	9	620259	7	1	1	1	0	1632	14	0	750	225
fixed	3	2	0	620259	7	2	2	1	0	988	14	0	1000	226
fixed	3	2	1	622562	10	1	1	1	0	737	14	0	500	227
fixed	3	2	2	623390	9	0	0	1	0	828	14	0	650	228
fixed	3	2	3	623390	12	2	2	1	0	817	14	0	900	229
fixed	3	2	4	623390	8	3	3	1	0	746	14	0	1000	230
fixed	3	2	5	627058	10	1	1	1	0	1689	14	0	400	231
fixed	3	2	6	627852	11	2	2	1	0	793	14	0	550	232
fixed	3	2	7	629110	9	0	0	1	0	1258	14	0	800	233
fixed	3	2	8	629826	8	3	3	1	0	716	14	0	600	234
fixed	3	2	9	631065	7	1	1	1	0	1238	14	0	750	235
fixed	3	3	0	631065	7	2	2	1	0	973	14	0	1000	236
fixed	3	3	1	633388	10	1	1	1	0	779	14	0	500	237
fixed	3	3	2	634258	9	0	0	1	0	869	14	0	650	238
fixed	3	3	3	634258	12	2	2	1	0	833	14	0	900	239
fixed	3	3	4	634258	8	3	3	1	0	1021	14	0	1000	240
fixed	3	3	5	637272	10	1	1	1	0	1060	14	0	400	241
fixed	3	3	6	638313	11	2	2	1	0	1040	14	0	550	242
fixed	3	3	7	639324	9	0	0	1	0	1011	14	0	800	243
fixed	3	3	8	639324	8	3	3	1	0	635	14	0	600	244
fixed	3	3	9	640919	7	1	1	1	0	958	14	0	750	245
fixed	3	4	0	640919	7	2	2	1	0	906	14	0	1000	246
fixed	3	4	1	643195	10	1	1	1	0	735	14	0	500	247
fixed	3	4	2	644179	9	0	0	1	0	983	14	0	650	248
fixed	3	4	3	645373	12	2	2	1	0	1193	14	0	900	249
fixed	3	4	4	645373	8	3	3	1	0	671	14	0	1000	250
fixed	3	4	5	647764	10	1	1	1	0	1299	14	0	400	251
fixed	3	4	6	648992	11	2	2	1	0	1228	14	0	550	252
fixed	3	4	7	650049	9	0	0	1	0	1056	14	0	800	253
fixed	3	4	8	650994	8	3	3	1	0	945	14	0	600	254
fixed	3	4	9	651936	7	1	1	1	0	942	14	0	750	255
fixed	3	5	0	651936	7	2	2	1	0	959	14	0	1000	256
fixed	3	5	1	654207	10	1	1	1	0	764	14	0	500	257
fixed	3	5	2	654207	9	0	0	1	0	623	14	0	650	258
fixed	3	5	3	656002	12	2	2	1	0	1130	14	0	900	259
fixed	3	5	4	656002	8	3	3	1	0	777	14	0	1000	260
fixed	3	5	5	657823	10	1	1	1	0	763	14	0	400	261
fixed	3	5	6	658882	11	2	2	1	0	1059	14	0	550	262
fixed	3	5	7	658882	9	0	0	1	0	691	14	0	800	263
fixed	3	5	8	660461	8	3	3	1	0	732	14	0	600	264
fixed	3	5	9	660461	7	1	1	1	0	817	14	0	750	265
fixed	3	6	0	662910	7	2	2	1	0	1143	14	0	1000	266
fixed	3	6	1	663795	10	1	1	1	0	884	14	0	500	267
fixed	3	6	2	664994	9	0	0	1	0	1199	14	0	650	268
fixed	3	6	3	666859	12	2	2	1	0	1865	14	0	900	269
fixed	3	6	4	666859	8	3	3	1	0	1019	14	0	1000	270
fixed	3	6	5	668981	10	1	1	1	0	1102	14	0	400	271
fixed	3	6	6	670065	11	2	2	1	0	1084	14	0	550	272
fixed	3	6	7	670065	9	0	0	1	0	841	14	0	800	273
fixed	3	6	8	671622	8	3	3	1	0	715	14	0	600	274
fixed	3	6	9	671622	7	1	1	1	0	786	14	0	750	275
fixed	4	0	0	675381	6	2	-1	1	0	2500	14	0	1000	275
fixed	4	0	1	675381	9	1	2	1	0	449	14	0	500	275
fixed	4	0	2	675381	8	0	1	1	0	606	14	0	650	275
fixed	4	0	3	678628	11	2	2	1	0	2015	14	0	900	276
fixed	4	0	4	679911	7	3	3	1	0	1283	14	0	1000	277
fixed	4	0	5	681250	9	1	1	1	0	1338	14	0	400	278
fixed	4	0	6	682439	10	2	2	1	0	1190	14	0	550	279
fixed	4	0	7	683346	8	0	0	1	0	906	14	0	800	280
fixed	4	0	8	684289	7	3	3	1	0	943	14	0	600	281
fixed	4	0	9	685859	6	1	1	1	0	1570	14	0	750	282
fixed	4	1	0	688364	6	2	2	1	0	2000	14	0	1000	283
fixed	4	1	1	689309	9	1	1	1	0	944	14	0	500	284
fixed	4	1	2	690696	8	0	0	1	0	1386	14	0	650	285
fixed	4	1	3	690696	11	2	2	1	0	795	14	0	900	286
fixed	4	1	4	690696	7	3	3	1	0	439	14	0	1000	287
fixed	4	1	5	693796	9	1	1	1	0	1127	14	0	400	288
fixed	4	1	6	694983	10	2	2	1	0	1186	14	0	550	289
fixed	4	1	7	694983	8	0	0	1	0	923	14	0	800	290
fixed	4	1	8	696629	7	3	3	1	0	723	14	0	600	291
fixed	4	1	9	696629	6	1	1	1	0	771	14	0	750	292
fixed	4	2	0	699193	6	2	2	1	0	1325	14	0	1000	293
fixed	4	2	1	699992	9	1	1	1	0	799	14	0	500	294
fixed	4	2	2	700862	8	0	0	1	0	870	14	0	650	295
fixed	4	2	3	702194	11	2	2	1	0	1331	14	0	900	296
fixed	4	2	4	702194	7	3	3	1	0	884	14	0	1000	297
fixed	4	2	5	704138	9	1	1	1	0	928	14	0	400	298
fixed	4	2	6	705274	10	2	2	1	0	1136	14	0	550	299
fixed	4	2	7	706191	8	0	0	1	0	916	14	0	800	300
fixed	4	2	8	707678	7	3	3	1	0	1487	14	0	600	301
fixed	4	2	9	707678	6	1	1	1	0	785	14	0	750	302
fixed	4	3	0	710328	6	2	2	1	0	1350	14	0	1000	303
fixed	4	3	1	711372	9	1	1	1	0	1044	14	0	500	304
fixed	4	3	2	711372	8	0	0	1	0	250	14	0	650	305
fixed	4	3	3	713468	11	2	2	1	0	1373	14	0	900	306
fixed	4	3	4	713468	7	3	3	1	0	1003	14	0	1000	307
fixed	4	3	5	715827	9	1	1	1	0	1355	14	0	400	308
fixed	4	3	6	717097	10	2	2	1	0	1269	14	0	550	309
fixed	4	3	7	718849	8	0	0	1	0	1752	14	0	800	310
fixed	4	3	8	720295	7	3	3	1	0	1446	14	0	600	311
fixed	4	3	9	720295	6	1	1	1	0	537	14	0	750	312
fixed	4	4	0	722919	6	2	2	1	0	1284	14	0	1000	313
fixed	4	4	1	723727	9	1	1	1	0	807	14	0	500	314
fixed	4	4	2	724547	8	0	0	1	0	819	14	0	650	315
fixed	4	4	3	725829	11	2	2	1	0	1282	14	0	900	316
fixed	4	4	4	725829	7	3	3	1	0	1065	14	0	1000	317
fixed	4	4	5	728189	9	1	1	1	0	1294	14	0	400	318
fixed	4	4	6	729246	10	2	2	1	0	1057	14	0	550	319
fixed	4	4	7	730153	8	0	0	1	0	906	14	0	800	320
fixed	4	4	8	730153	7	3	3	1	0	735	14	0	600	321
fixed	4	4	9	730153	6	1	1	1	0	575	14	0	750	322
fixed	4	5	0	733678	6	2	2	1	0	1591	14	0	1000	323
fixed	4	5	1	734300	9	1	1	1	0	621	14	0	500	324
fixed	4	5	2	734300	8	0	0	1	0	561	14	0	650	325
fixed	4	5	3	734300	11	2	3	1	0	906	14	0	900	325
fixed	4	5	4	734300	7	3	3	1	0	1020	14	0	1000	326
fixed	4	5	5	738270	9	1	1	1	0	1312	14	0	400	327
fixed	4	5	6	739426	10	2	2	1	0	1156	14	0	550	328
fixed	4	5	7	740844	8	0	0	1	0	1418	14	0	800	329
fixed	4	5	8	741843	7	3	3	1	0	999	14	0	600	330
fixed	4	5	9	741843	6	1	1	1	0	734	14	0	750	331
fixed	4	6	0	744360	6	2	2	1	0	1286	14	0	1000	332
fixed	4	6	1	745209	9	1	1	1	0	848	14	0	500	333
fixed	4	6	2	746012	8	0	0	1	0	803	14	0	650	334
fixed	4	6	3	746012	11	2	2	1	0	882	14	0	900	335
fixed	4	6	4	746012	7	3	3	1	0	1006	14	0	1000	336
fixed	4	6	5	749368	9	1	1	1	0	1400	14	0	400	337
fixed	4	6	6	750309	10	2	2	1	0	941	14	0	550	338
fixed	4	6	7	751477	8	0	0	1	0	1168	14	0	800	339
fixed	4	6	8	752259	7	3	3	1	0	782	14	0	600	340
fixed	4	6	9	752259	6	1	1	1	0	773	14	0	750	341
fixed	5	0	0	754726	5	2	2	1	0	1153	14	0	1000	342
fixed	5	0	1	755516	8	1	1	1	0	790	14	0	500	343
fixed	5	0	2	756310	7	0	0	1	0	794	14	0	650	344
fixed	5	0	3	757554	10	2	2	1	0	1243	14	0	900	345
fixed	5	0	4	757554	6	3	3	1	0	806	14	0	1000	346
fixed	5	0	5	759716	8	1	1	1	0	1089	14	0	400	347
fixed	5	0	6	760871	9	2	2	1	0	1155	14	0	550	348
fixed	5	0	7	760871	7	0	0	1	0	815	14	0	800	349
fixed	5	0	8	762650	6	3	3	1	0	963	14	0	600	350
fixed	5	0	9	762650	5	1	1	1	0	755	14	0	750	351
fixed	5	1	0	762650	5	2	2	1	0	1012	14	0	1000	352
fixed	5	1	1	765678	8	1	1	1	0	798	14	0	500	353
fixed	5	1	2	766969	7	0	0	1	0	1291	14	0	650	354
fixed	5	1	3	768076	10	2	2	1	0	1107	14	0	900	355
fixed	5	1	4	768076	6	3	3	1	0	722	14	0	1000	356
fixed	5	1	5	770180	8	1	1	1	0	1084	14	0	400	357
fixed	5	1	6	771256	9	2	2	1	0	1076	14	0	550	358
fixed	5	1	7	772518	7	0	0	1	0	1262	14	0	800	359
fixed	5	1	8	773828	6	3	3	1	0	1310	14	0	600	360
fixed	5	1	9	774794	5	1	1	1	0	965	14	0	750	361
fixed	5	2	0	774794	5	2	2	1	0	980	14	0	1000	362
fixed	5	2	1	777364	8	1	1	1	0	1050	14	0	500	363
fixed	5	2	2	778148	7	0	0	1	0	784	14	0	650	364
fixed	5	2	3	778148	10	2	2	1	0	731	14	0	900	365
fixed	5	2	4	778148	6	3	3	1	0	592	14	0	1000	366
fixed	5	2	5	780907	8	1	1	1	0	830	14	0	400	367
fixed	5	2	6	782174	9	2	2	1	0	1266	14	0	550	368
fixed	5	2	7	782174	7	0	0	1	0	766	14	0	800	369
fixed	5	2	8	783846	6	3	3	1	0	862	14	0	600	370
fixed	5	2	9	784882	5	1	1	1	0	1036	14	0	750	371
fixed	5	3	0	784882	5	2	2	1	0	1111	14	0	1000	372
fixed	5	3	1	787794	8	1	1	1	0	1289	14	0	500	373
fixed	5	3	2	788874	7	0	0	1	0	1080	14	0	650	374
fixed	5	3	3	790131	10	2	2	1	0	1257	14	0	900	375
fixed	5	3	4	790131	6	3	3	1	0	853	14	0	1000	376
fixed	5	3	5	792427	8	1	1	1	0	1218	14	0	400	377
fixed	5	3	6	793792	9	2	2	1	0	1365	14	0	550	378
fixed	5	3	7	794800	7	0	0	1	0	1007	14	0	800	379
fixed	5	3	8	795949	6	3	3	1	0	1149	14	0	600	380
fixed	5	3	9	797054	5	1	1	1	0	1105	14	0	750	381
fixed	5	4	0	799029	5	2	2	1	0	1470	14	0	1000	382
fixed	5	4	1	799781	8	1	1	1	0	751	14	0	500	383
fixed	5	4	2	800469	7	0	0	1	0	688	14	0	650	384
fixed	5	4	3	800469	10	2	2	1	0	916	14	0	900	385
fixed	5	4	4	800469	6	3	3	1	0	642	14	0	1000	386
fixed	5	4	5	803282	8	1	1	1	0	859	14	0	400	387
fixed	5	4	6	804061	9	2	2	1	0	779	14	0	550	388
fixed	5	4	7	804061	7	0	0	1	0	833	14	0	800	389
fixed	5	4	8	805602	6	3	3	1	0	708	14	0	600	390
fixed	5	4	9	805602	5	1	1	1	0	525	14	0	750	391
fixed	5	5	0	808279	5	2	2	1	0	1281	14	0	1000	392
fixed	5	5	1	809054	8	1	1	1	0	775	14	0	500	393
fixed	5	5	2	809054	7	0	0	1	0	654	14	0	650	394
fixed	5	5	3	810663	10	2	2	1	0	954	14	0	900	395
fixed	5	5	4	810663	6	3	3	1	0	927	14	0	1000	396
fixed	5	5	5	812649	8	1	1	1	0	941	14	0	400	397
fixed	5	5	6	813524	9	2	2	1	0	875	14	0	550	398
fixed	5	5	7	813524	7	0	0	1	0	656	14	0	800	399
fixed	5	5	8	813524	6	3	3	1	0	531	14	0	600	400
fixed	5	5	9	816328	5	1	1	1	0	1370	14	0	750	401
fixed	5	6	0	817991	5	2	2	1	0	1220	14	0	1000	402
fixed	5	6	1	818555	8	1	1	1	0	563	14	0	500	403
fixed	5	6	2	819310	7	0	0	1	0	755	14	0	650	404
fixed	5	6	3	820551	10	2	2	1	0	1240	14	0	900	405
fixed	5	6	4	820551	6	3	3	1	0	843	14	0	1000	406
fixed	5	6	5	822964	8	1	1	1	0	1337	14	0	400	407
fixed	5	6	6	823698	9	2	2	1	0	734	14	0	550	408
fixed	5	6	7	823698	7	0	0	1	0	564	14	0	800	409
fixed	5	6	8	825442	6	3	3	1	0	926	14	0	600	410
fixed	5	6	9	825442	5	1	1	1	0	577	14	0	750	411
random	6	0	0	828411	5	3	3	1	0	1765	14	0	1000	412
random	6	0	1	829619	8	1	1	1	0	1208	14	0	550	413
random	6	0	2	831048	5	3	3	1	0	1429	14	0	900	414
random	6	0	3	832299	6	0	0	1	0	1250	14	0	750	415
random	6	0	4	833657	9	2	2	1	0	1359	14	0	600	416
random	6	0	5	835076	4	0	0	1	0	1418	14	0	300	417
random	6	0	6	836257	7	1	1	1	0	1181	14	0	400	418
random	6	0	7	837426	4	2	2	1	0	1168	14	0	1000	419
random	6	0	8	838562	8	3	3	1	0	1136	14	0	500	420
random	6	0	9	839951	7	2	1	1	0	1389	14	0	800	420
random	6	1	0	842442	8	3	3	1	0	1702	14	0	650	421
random	6	1	1	844023	9	2	2	1	0	1581	14	0	600	422
random	6	1	2	845462	6	1	1	1	0	1439	14	0	300	423
random	6	1	3	846792	5	2	2	1	0	1329	14	0	1000	424
random	6	1	4	848198	9	1	1	1	0	1406	14	0	900	425
random	6	1	5	849496	4	0	0	1	0	1298	14	0	800	426
random	6	1	6	850712	5	3	3	1	0	1216	14	0	750	427
random	6	1	7	852013	4	2	2	1	0	1300	14	0	400	428
random	6	1	8	853475	7	1	1	1	0	1461	14	0	1000	429
random	6	1	9	854545	6	0	0	1	0	1069	14	0	500	430
random	6	2	0	856810	4	1	1	1	0	1818	14	0	900	431
random	6	2	1	858219	8	0	0	1	0	1407	14	0	300	432
random	6	2	2	859794	9	3	3	1	0	1575	14	0	1000	433
random	6	2	3	860983	7	0	0	1	0	1188	14	0	550	434
random	6	2	4	862258	6	2	2	1	0	1275	14	0	1000	435
random	6	2	5	863394	5	1	1	1	0	1136	14	0	400	436
random	6	2	6	864513	6	3	3	1	0	1118	14	0	600	437
random	6	2	7	865860	8	2	2	1	0	1346	14	0	500	438
random	6	2	8	867087	4	3	3	1	0	1226	14	0	750	439
random	6	2	9	868320	9	2	2	1	0	1233	14	0	650	440
random	6	3	0	870536	4	0	0	1	0	1709	14	0	900	441
random	6	3	1	871690	8	2	2	1	0	1154	14	0	300	442
random	6	3	2	872794	9	1	1	1	0	1104	14	0	1000	443
random	6	3	3	873678	7	3	3	1	0	884	14	0	550	444
random	6	3	4	874897	6	1	1	1	0	1218	14	0	1000	445
random	6	3	5	875855	5	0	0	1	0	958	14	0	400	446
random	6	3	6	876985	6	3	3	1	0	1129	14	0	600	447
random	6	3	7	878263	8	2	2	1	0	1278	14	0	500	448
random	6	3	8	879391	4	1	1	1	0	1127	14	0	750	449
random	6	3	9	880379	9	2	2	1	0	988	14	0	650	450
random	6	4	0	882440	5	3	3	1	0	1546	14	0	500	451
random	6	4	1	883790	9	2	2	1	0	1350	14	0	600	452
random	6	4	2	883790	6	1	1	1	0	872	14	0	900	453
random	6	4	3	883790	9	0	0	1	0	826	14	0	1000	454
random	6	4	4	886638	8	3	3	1	0	813	14	0	650	455
random	6	4	5	887935	4	1	1	1	0	1297	14	0	550	456
random	6	4	6	889041	7	3	3	1	0	1106	14	0	800	457
random	6	4	7	889932	6	0	0	1	0	891	14	0	700	458
random	6	4	8	889932	8	2	2	1	0	947	14	0	1000	459
random	6	4	9	892255	5	1	1	1	0	1289	14	0	300	460
random	6	5	0	894292	6	0	0	1	0	1531	14	0	1000	461
random	6	5	1	895361	8	2	2	1	0	1068	14	0	400	462
random	6	5	2	896345	4	3	3	1	0	984	14	0	750	463
random	6	5	3	897822	8	1	1	1	0	1476	14	0	900	464
random	6	5	4	899047	5	2	2	1	0	1225	14	0	300	465
random	6	5	5	900144	4	3	3	1	0	1097	14	0	650	466
random	6	5	6	901305	7	0	0	1	0	1161	14	0	550	467
random	6	5	7	902818	9	2	2	1	0	1513	14	0	800	468
random	6	5	8	904377	7	1	1	1	0	1559	14	0	500	469
random	6	5	9	905615	6	0	0	1	0	1238	14	0	1000	470
random	6	6	0	907248	9	0	0	1	0	1091	14	0	1000	471
random	6	6	1	908987	6	2	2	1	0	1739	14	0	650	472
random	6	6	2	909996	9	1	1	1	0	1008	14	0	900	473
random	6	6	3	911113	8	2	2	1	0	1117	14	0	600	474
random	6	6	4	912211	6	0	0	1	0	1097	14	0	400	475
random	6	6	5	912991	8	3	3	1	0	780	14	0	300	476
random	6	6	6	914131	5	1	1	1	0	1140	14	0	700	477
random	6	6	7	915226	4	3	3	1	0	1095	14	0	750	478
random	6	6	8	916256	7	1	1	1	0	1029	14	0	500	479
random	6	6	9	917382	5	2	2	1	0	1125	14	0	1000	480
fixed	7	0	0	918982	3	2	2	1	0	1133	14	0	1000	481
fixed	7	0	1	919995	6	1	1	1	0	1012	14	0	500	482
fixed	7	0	2	920854	5	0	0	1	0	859	14	0	650	483
fixed	7	0	3	922391	8	2	2	1	0	1536	14	0	900	484
fixed	7	0	4	922391	4	3	3	1	0	902	14	0	1000	485
fixed	7	0	5	924263	6	1	1	1	0	830	14	0	400	486
fixed	7	0	6	925060	7	2	2	1	0	797	14	0	550	487
fixed	7	0	7	925060	5	0	0	1	0	727	14	0	800	488
fixed	7	0	8	926576	4	3	3	1	0	684	14	0	600	489
fixed	7	0	9	926576	3	1	1	1	0	805	14	0	750	490
fixed	7	1	0	928877	3	2	1	1	0	1066	14	0	1000	490
fixed	7	1	1	930129	6	1	1	1	0	1252	14	0	500	491
fixed	7	1	2	931271	5	0	0	1	0	1142	14	0	650	492
fixed	7	1	3	932360	8	2	2	1	0	1088	14	0	900	493
fixed	7	1	4	932360	4	3	3	1	0	804	14	0	1000	494
fixed	7	1	5	934121	6	1	1	1	0	757	14	0	400	495
fixed	7	1	6	935073	7	2	2	1	0	952	14	0	550	496
fixed	7	1	7	935073	5	0	0	1	0	756	14	0	800	497
fixed	7	1	8	937391	4	3	1	1	0	1448	14	0	600	497
fixed	7	1	9	939038	3	1	1	1	0	1646	14	0	750	498
fixed	7	2	0	941076	3	2	2	1	0	1564	14	0	1000	499
fixed	7	2	1	942407	6	1	1	1	0	1330	14	0	500	500
fixed	7	2	2	943542	5	0	0	1	0	1135	14	0	650	501
fixed	7	2	3	944570	8	2	2	1	0	1027	14	0	900	502
fixed	7	2	4	944570	4	3	3	1	0	842	14	0	1000	503
fixed	7	2	5	946409	6	1	1	1	0	801	14	0	400	504
fixed	7	2	6	947469	7	2	2	1	0	1059	14	0	550	505
fixed	7	2	7	947469	5	0	0	1	0	798	14	0	800	506
fixed	7	2	8	949087	4	3	3	1	0	745	14	0	600	507
fixed	7	2	9	949981	3	1	1	1	0	893	14	0	750	508
fixed	7	3	0	951795	3	2	2	1	0	1356	14	0	1000	509
fixed	7	3	1	952579	6	1	1	1	0	784	14	0	500	510
fixed	7	3	2	953410	5	0	0	1	0	831	14	0	650	511
fixed	7	3	3	953410	8	2	2	1	0	800	14	0	900	512
fixed	7	3	4	955472	4	3	3	1	0	1140	14	0	1000	513
fixed	7	3	5	956649	6	1	1	1	0	1177	14	0	400	514
fixed	7	3	6	957664	7	2	2	1	0	1015	14	0	550	515
fixed	7	3	7	959014	5	0	0	1	0	1349	14	0	800	516
fixed	7	3	8	959963	4	3	3	1	0	949	14	0	600	517
fixed	7	3	9	959963	3	1	1	1	0	818	14	0	750	518
fixed	7	4	0	962279	3	2	2	1	0	1070	14	0	1000	519
fixed	7	4	1	963060	6	1	1	1	0	780	14	0	500	520
fixed	7	4	2	963911	5	0	0	1	0	851	14	0	650	521
fixed	7	4	3	963911	8	2	2	1	0	917	14	0	900	522
fixed	7	4	4	963911	4	3	3	1	0	828	14	0	1000	523
fixed	7	4	5	966420	6	1	1	1	0	582	14	0	400	524
fixed	7	4	6	967690	7	2	2	1	0	1270	14	0	550	525
fixed	7	4	7	967690	5	0	0	1	0	878	14	0	800	526
fixed	7	4	8	969479	4	3	3	1	0	909	14	0	600	527
fixed	7	4	9	969479	3	1	1	1	0	721	14	0	750	528
fixed	7	5	0	972493	3	2	2	1	0	1755	14	0	1000	529
fixed	7	5	1	973256	6	1	1	1	0	762	14	0	500	530
fixed	7	5	2	973256	5	0	0	1	0	671	14	0	650	531
fixed	7	5	3	974922	8	2	1	1	0	995	14	0	900	531
fixed	7	5	4	976031	4	3	3	1	0	1109	14	0	1000	532
fixed	7	5	5	977249	6	1	1	1	0	1217	14	0	400	533
fixed	7	5	6	978578	7	2	2	1	0	1329	14	0	550	534
fixed	7	5	7	980061	5	0	0	1	0	1483	14	0	800	535
fixed	7	5	8	980751	4	3	3	1	0	689	14	0	600	536
fixed	7	5	9	981695	3	1	1	1	0	944	14	0	750	537
fixed	7	6	0	983653	3	2	2	1	0	1439	14	0	1000	538
fixed	7	6	1	984647	6	1	1	1	0	993	14	0	500	539
fixed	7	6	2	985791	5	0	0	1	0	1144	14	0	650	540
fixed	7	6	3	985791	8	2	2	1	0	794	14	0	900	541
fixed	7	6	4	985791	4	3	3	1	0	767	14	0	1000	542
fixed	7	6	5	988779	6	1	1	1	0	1042	14	0	400	543
fixed	7	6	6	989882	7	2	2	1	0	1103	14	0	550	544
fixed	7	6	7	989882	5	0	0	1	0	729	14	0	800	545
fixed	7	6	8	989882	4	3	3	1	0	579	14	0	600	546
fixed	7	6	9	989882	3	1	1	1	0	720	14	0	750	547
