type	block	sequ.	trial	time	Pos.	Color	Button	NumRsp	Resp_1	RT_1	R_Code	Resp_2	RT_2	Trigg.	n_hit	n_inc	n_miss	score_%
random	0	0	0	172312	12	3	3	1	0	1948	14	0	1000	1
random	0	0	1	173636	15	1	1	1	0	1322	14	0	550	2
random	0	0	2	174818	12	3	3	1	0	1182	14	0	900	3
random	0	0	3	176087	13	0	0	1	0	1268	14	0	750	4
random	0	0	4	177147	16	2	2	1	0	1059	14	0	600	5
random	0	0	5	178384	11	0	0	1	0	1236	14	0	300	6
random	0	0	6	179569	14	1	1	1	0	1185	14	0	400	7
random	0	0	7	180782	11	2	2	1	0	1212	14	0	1000	8
random	0	0	8	182006	15	3	3	1	0	1224	14	0	500	9
random	0	0	9	183297	14	2	2	1	0	1291	14	0	800	10
random	0	1	0	185326	15	3	3	1	0	1598	14	0	650	11
random	0	1	1	186385	16	2	2	1	0	1059	14	0	600	12
random	0	1	2	187620	13	1	1	1	0	1234	14	0	300	13
random	0	1	3	188663	12	2	2	1	0	1043	14	0	1000	14
random	0	1	4	189921	16	1	1	1	0	1258	14	0	900	15
random	0	1	5	191235	11	0	0	1	0	1313	14	0	800	16
random	0	1	6	192563	12	3	3	1	0	1328	14	0	750	17
random	0	1	7	193870	11	2	2	1	0	1306	14	0	400	18
random	0	1	8	195265	14	1	1	1	0	1394	14	0	1000	19
random	0	1	9	196515	13	0	0	1	0	1250	14	0	500	20
random	0	2	0	198471	11	1	1	1	0	1512	14	0	900	21
random	0	2	1	199877	15	0	0	1	0	1406	14	0	300	22
random	0	2	2	201019	16	3	3	1	0	1142	14	0	1000	23
random	0	2	3	202134	14	0	0	1	0	1114	14	0	550	24
random	0	2	4	203282	13	2	2	1	0	1148	14	0	1000	25
random	0	2	5	204190	12	1	1	1	0	908	14	0	400	26
random	0	2	6	205524	13	3	3	1	0	1333	14	0	600	27
random	0	2	7	206625	15	2	2	1	0	1100	14	0	500	28
random	0	2	8	207853	11	3	3	1	0	1229	14	0	750	29
random	0	2	9	209269	16	2	2	1	0	1415	14	0	650	30
random	0	3	0	211044	11	0	0	1	0	1390	14	0	900	31
random	0	3	1	212029	15	2	2	1	0	984	14	0	300	32
random	0	3	2	213125	16	1	1	1	0	1095	14	0	1000	33
random	0	3	3	213954	14	3	3	1	0	829	14	0	550	34
random	0	3	4	215065	13	1	1	1	0	1111	14	0	1000	35
random	0	3	5	216040	12	0	0	1	0	975	14	0	400	36
random	0	3	6	217022	13	3	3	1	0	982	14	0	600	37
random	0	3	7	218189	15	2	2	1	0	1167	14	0	500	38
random	0	3	8	219376	11	1	1	1	0	1186	14	0	750	39
random	0	3	9	220606	16	2	2	1	0	1229	14	0	650	40
random	0	4	0	222232	12	3	3	1	0	1188	14	0	500	41
random	0	4	1	223533	16	2	2	1	0	1300	14	0	600	42
random	0	4	2	224688	13	1	1	1	0	1155	14	0	900	43
random	0	4	3	225801	16	0	0	1	0	1112	14	0	1000	44
random	0	4	4	226856	15	3	3	1	0	1055	14	0	650	45
random	0	4	5	228039	11	1	1	1	0	1182	14	0	550	46
random	0	4	6	228984	14	3	3	1	0	945	14	0	800	47
random	0	4	7	230051	13	0	0	1	0	1067	14	0	700	48
random	0	4	8	230051	15	2	2	1	0	985	14	0	1000	49
random	0	4	9	232170	12	1	1	1	0	1093	14	0	300	50
random	0	5	0	234085	13	0	0	1	0	1474	14	0	1000	51
random	0	5	1	235135	15	2	2	1	0	1050	14	0	400	52
random	0	5	2	236171	11	3	3	1	0	1035	14	0	750	53
random	0	5	3	237174	15	1	1	1	0	1003	14	0	900	54
random	0	5	4	238058	12	2	2	1	0	883	14	0	300	55
random	0	5	5	239081	11	3	3	1	0	1022	14	0	650	56
random	0	5	6	240133	14	0	0	1	0	1052	14	0	550	57
random	0	5	7	241539	16	2	2	1	0	1405	14	0	800	58
random	0	5	8	242547	14	1	1	1	0	1008	14	0	500	59
random	0	5	9	243704	13	0	0	1	0	1157	14	0	1000	60
random	0	6	0	245487	16	0	0	1	0	1288	14	0	1000	61
random	0	6	1	246537	13	2	2	1	0	1049	14	0	650	62
random	0	6	2	247597	16	1	1	1	0	1060	14	0	900	63
random	0	6	3	248587	15	2	2	1	0	990	14	0	600	64
random	0	6	4	249784	13	0	0	1	0	1196	14	0	400	65
random	0	6	5	250669	15	3	3	1	0	886	14	0	300	66
random	0	6	6	251911	12	1	1	1	0	1241	14	0	700	67
random	0	6	7	252813	11	3	3	1	0	902	14	0	750	68
random	0	6	8	253901	14	1	1	1	0	1087	14	0	500	69
random	0	6	9	253901	12	2	2	1	0	994	14	0	1000	70
fixed	1	0	0	256830	10	2	2	1	0	1471	14	0	1000	71
fixed	1	0	1	258208	13	1	1	1	0	1377	14	0	500	72
fixed	1	0	2	259554	12	0	0	1	0	1346	14	0	650	73
fixed	1	0	3	259554	15	2	2	1	0	851	14	0	900	74
fixed	1	0	4	259554	11	3	3	1	0	816	14	0	1000	75
fixed	1	0	5	262624	13	1	1	1	0	1156	14	0	400	76
fixed	1	0	6	263607	14	2	2	1	0	983	14	0	550	77
fixed	1	0	7	264799	12	0	0	1	0	1191	14	0	800	78
fixed	1	0	8	265921	11	3	3	1	0	1121	14	0	600	79
fixed	1	0	9	266788	10	1	2	1	0	867	14	0	750	79
fixed	1	1	0	269726	10	2	-1	1	0	2500	14	0	1000	79
fixed	1	1	1	269726	13	1	2	1	0	28	14	0	500	79
fixed	1	1	2	269726	12	0	1	1	0	483	14	0	650	79
fixed	1	1	3	272178	15	2	2	1	0	1224	14	0	900	80
fixed	1	1	4	273279	11	3	3	1	0	1100	14	0	1000	81
fixed	1	1	5	274324	13	1	1	1	0	1045	14	0	400	82
fixed	1	1	6	275347	14	2	2	1	0	1023	14	0	550	83
fixed	1	1	7	276321	12	0	0	1	0	974	14	0	800	84
fixed	1	1	8	277148	11	3	3	1	0	827	14	0	600	85
fixed	1	1	9	278139	10	1	1	1	0	990	14	0	750	86
fixed	1	2	0	280251	10	2	2	1	0	1659	14	0	1000	87
fixed	1	2	1	281256	13	1	1	1	0	1004	14	0	500	88
fixed	1	2	2	282456	12	0	0	1	0	1200	14	0	650	89
fixed	1	2	3	283413	15	2	2	1	0	957	14	0	900	90
fixed	1	2	4	283413	11	3	3	1	0	953	14	0	1000	91
fixed	1	2	5	285468	13	1	1	1	0	1027	14	0	400	92
fixed	1	2	6	286315	14	2	2	1	0	847	14	0	550	93
fixed	1	2	7	287519	12	0	0	1	0	1203	14	0	800	94
fixed	1	2	8	288266	11	3	3	1	0	747	14	0	600	95
fixed	1	2	9	289199	10	1	1	1	0	933	14	0	750	96
fixed	1	3	0	292172	10	2	-1	1	0	2500	14	0	1000	96
fixed	1	3	1	293153	13	1	1	1	0	980	14	0	500	97
fixed	1	3	2	294384	12	0	0	1	0	1231	14	0	650	98
fixed	1	3	3	295449	15	2	2	1	0	1065	14	0	900	99
fixed	1	3	4	296551	11	3	3	1	0	1101	14	0	1000	100
fixed	1	3	5	297671	13	1	1	1	0	1120	14	0	400	101
fixed	1	3	6	298628	14	2	2	1	0	957	14	0	550	102
fixed	1	3	7	298628	12	0	0	1	0	816	14	0	800	103
fixed	1	3	8	300382	11	3	3	1	0	938	14	0	600	104
fixed	1	3	9	300382	10	1	1	1	0	690	14	0	750	105
fixed	1	4	0	302853	10	2	2	1	0	1317	14	0	1000	106
fixed	1	4	1	303663	13	1	1	1	0	809	14	0	500	107
fixed	1	4	2	304464	12	0	0	1	0	801	14	0	650	108
fixed	1	4	3	304464	15	2	2	1	0	683	14	0	900	109
fixed	1	4	4	304464	11	3	3	1	0	717	14	0	1000	110
fixed	1	4	5	307696	13	1	1	1	0	1280	14	0	400	111
fixed	1	4	6	308721	14	2	2	1	0	1025	14	0	550	112
fixed	1	4	7	309745	12	0	0	1	0	1024	14	0	800	113
fixed	1	4	8	310694	11	3	3	1	0	949	14	0	600	114
fixed	1	4	9	312021	10	1	1	1	0	1326	14	0	750	115
fixed	1	5	0	313920	10	2	2	1	0	1400	14	0	1000	116
fixed	1	5	1	314788	13	1	1	1	0	867	14	0	500	117
fixed	1	5	2	315799	12	0	0	1	0	1011	14	0	650	118
fixed	1	5	3	315799	15	2	2	1	0	814	14	0	900	119
fixed	1	5	4	315799	11	3	3	1	0	667	14	0	1000	120
fixed	1	5	5	318995	13	1	1	1	0	1211	14	0	400	121
fixed	1	5	6	319767	14	2	2	1	0	773	14	0	550	122
fixed	1	5	7	319767	12	0	0	1	0	801	14	0	800	123
fixed	1	5	8	321677	11	3	3	1	0	1109	14	0	600	124
fixed	1	5	9	322851	10	1	1	1	0	1173	14	0	750	125
fixed	1	6	0	324574	10	2	2	1	0	1280	14	0	1000	126
fixed	1	6	1	325815	13	1	1	1	0	1240	14	0	500	127
fixed	1	6	2	326955	12	0	0	1	0	1140	14	0	650	128
fixed	1	6	3	328080	15	2	2	1	0	1125	14	0	900	129
fixed	1	6	4	329145	11	3	3	1	0	1065	14	0	1000	130
fixed	1	6	5	330206	13	1	1	1	0	1061	14	0	400	131
fixed	1	6	6	331152	14	2	2	1	0	945	14	0	550	132
fixed	1	6	7	332103	12	0	0	1	0	951	14	0	800	133
fixed	1	6	8	332820	11	3	3	1	0	717	14	0	600	134
fixed	1	6	9	332820	10	1	1	1	0	478	14	0	750	135
fixed	2	0	0	335097	9	2	2	1	0	1083	14	0	1000	136
fixed	2	0	1	335839	12	1	1	1	0	742	14	0	500	137
fixed	2	0	2	336901	11	0	0	1	0	1061	14	0	650	138
fixed	2	0	3	336901	14	2	2	1	0	711	14	0	900	139
fixed	2	0	4	336901	10	3	3	1	0	613	14	0	1000	140
fixed	2	0	5	339678	12	1	2	1	0	777	14	0	400	140
fixed	2	0	6	339678	13	2	2	1	0	104	14	0	550	141
fixed	2	0	7	339678	11	0	2	1	0	529	14	0	800	141
fixed	2	0	8	343527	10	3	3	1	0	2436	14	0	600	142
fixed	2	0	9	344756	9	1	1	1	0	1228	14	0	750	143
fixed	2	1	0	344756	9	2	2	1	0	1015	14	0	1000	144
fixed	2	1	1	347629	12	1	1	1	0	1244	14	0	500	145
fixed	2	1	2	348758	11	0	0	1	0	1129	14	0	650	146
fixed	2	1	3	349961	14	2	2	1	0	1203	14	0	900	147
fixed	2	1	4	351081	10	3	3	1	0	1120	14	0	1000	148
fixed	2	1	5	352229	12	1	1	1	0	1148	14	0	400	149
fixed	2	1	6	353370	13	2	2	1	0	1141	14	0	550	150
fixed	2	1	7	354413	11	0	0	1	0	1042	14	0	800	151
fixed	2	1	8	355702	10	3	3	1	0	1289	14	0	600	152
fixed	2	1	9	356952	9	1	1	1	0	1249	14	0	750	153
fixed	2	2	0	358469	9	2	2	1	0	1147	14	0	1000	154
fixed	2	2	1	359741	12	1	1	1	0	1271	14	0	500	155
fixed	2	2	2	361062	11	0	0	1	0	1321	14	0	650	156
fixed	2	2	3	362026	14	2	2	1	0	963	14	0	900	157
fixed	2	2	4	362026	10	3	3	1	0	911	14	0	1000	158
fixed	2	2	5	364260	12	1	1	1	0	1181	14	0	400	159
fixed	2	2	6	365138	13	2	2	1	0	878	14	0	550	160
fixed	2	2	7	365138	11	0	0	1	0	799	14	0	800	161
fixed	2	2	8	366821	10	3	3	1	0	883	14	0	600	162
fixed	2	2	9	368207	9	1	1	1	0	1386	14	0	750	163
fixed	2	3	0	369994	9	2	2	1	0	1210	14	0	1000	164
fixed	2	3	1	371003	12	1	1	1	0	1008	14	0	500	165
fixed	2	3	2	371812	11	0	0	1	0	809	14	0	650	166
fixed	2	3	3	371812	14	2	2	1	0	922	14	0	900	167
fixed	2	3	4	371812	10	3	3	1	0	741	14	0	1000	168
fixed	2	3	5	374498	12	1	1	1	0	743	14	0	400	169
fixed	2	3	6	375473	13	2	2	1	0	976	14	0	550	170
fixed	2	3	7	376387	11	0	0	1	0	914	14	0	800	171
fixed	2	3	8	377136	10	3	3	1	0	749	14	0	600	172
fixed	2	3	9	377136	9	1	1	1	0	654	14	0	750	173
fixed	2	4	0	379973	9	2	2	1	0	1544	14	0	1000	174
fixed	2	4	1	381069	12	1	1	1	0	1096	14	0	500	175
fixed	2	4	2	382151	11	0	0	1	0	1082	14	0	650	176
fixed	2	4	3	383209	14	2	2	1	0	1058	14	0	900	177
fixed	2	4	4	384318	10	3	3	1	0	1109	14	0	1000	178
fixed	2	4	5	385872	12	1	1	1	0	1554	14	0	400	179
fixed	2	4	6	386905	13	2	2	1	0	1032	14	0	550	180
fixed	2	4	7	387955	11	0	0	1	0	1050	14	0	800	181
fixed	2	4	8	388687	10	3	3	1	0	731	14	0	600	182
fixed	2	4	9	388687	9	1	1	1	0	508	14	0	750	183
fixed	2	5	0	388687	9	2	2	1	0	1005	14	0	1000	184
fixed	2	5	1	391715	12	1	1	1	0	721	14	0	500	185
fixed	2	5	2	392476	11	0	0	1	0	760	14	0	650	186
fixed	2	5	3	392476	14	2	2	1	0	649	14	0	900	187
fixed	2	5	4	392476	10	3	3	1	0	369	14	0	1000	188
fixed	2	5	5	395706	12	1	1	1	0	1265	14	0	400	189
fixed	2	5	6	396761	13	2	2	1	0	1055	14	0	550	190
fixed	2	5	7	396761	11	0	0	1	0	825	14	0	800	191
fixed	2	5	8	398438	10	3	3	1	0	850	14	0	600	192
fixed	2	5	9	398438	9	1	1	1	0	699	14	0	750	193
fixed	2	6	0	401379	9	2	2	1	0	1659	14	0	1000	194
fixed	2	6	1	402203	12	1	1	1	0	824	14	0	500	195
fixed	2	6	2	403043	11	0	0	1	0	840	14	0	650	196
fixed	2	6	3	404021	14	2	2	1	0	978	14	0	900	197
fixed	2	6	4	404021	10	3	3	1	0	772	14	0	1000	198
fixed	2	6	5	405933	12	1	1	1	0	872	14	0	400	199
fixed	2	6	6	406706	13	2	2	1	0	772	14	0	550	200
fixed	2	6	7	407589	11	0	0	1	0	883	14	0	800	201
fixed	2	6	8	408439	10	3	3	1	0	849	14	0	600	202
fixed	2	6	9	408439	9	1	1	1	0	757	14	0	750	203
fixed	3	0	0	408439	8	2	2	1	0	1047	14	0	1000	204
fixed	3	0	1	411627	11	1	1	1	0	945	14	0	500	205
fixed	3	0	2	412488	10	0	0	1	0	861	14	0	650	206
fixed	3	0	3	413508	13	2	2	1	0	1019	14	0	900	207
fixed	3	0	4	413508	9	3	3	1	0	960	14	0	1000	208
fixed	3	0	5	415337	11	1	1	1	0	815	14	0	400	209
fixed	3	0	6	416335	12	2	2	1	0	997	14	0	550	210
fixed	3	0	7	417168	10	0	0	1	0	833	14	0	800	211
fixed	3	0	8	417905	9	3	3	1	0	736	14	0	600	212
fixed	3	0	9	417905	8	1	1	1	0	696	14	0	750	213
fixed	3	1	0	420451	8	2	2	1	0	1316	14	0	1000	214
fixed	3	1	1	421225	11	1	1	1	0	774	14	0	500	215
fixed	3	1	2	422019	10	0	0	1	0	793	14	0	650	216
fixed	3	1	3	422019	13	2	2	1	0	778	14	0	900	217
fixed	3	1	4	422019	9	3	3	1	0	639	14	0	1000	218
fixed	3	1	5	424456	11	1	1	1	0	450	14	0	400	219
fixed	3	1	6	425195	12	2	2	1	0	739	14	0	550	220
fixed	3	1	7	425195	10	0	0	1	0	735	14	0	800	221
fixed	3	1	8	426810	9	3	3	1	0	789	14	0	600	222
fixed	3	1	9	426810	8	1	1	1	0	725	14	0	750	223
fixed	3	2	0	429256	8	2	2	1	0	1266	14	0	1000	224
fixed	3	2	1	430001	11	1	1	1	0	745	14	0	500	225
fixed	3	2	2	430720	10	0	0	1	0	719	14	0	650	226
fixed	3	2	3	431826	13	2	2	1	0	1104	14	0	900	227
fixed	3	2	4	431826	9	3	3	1	0	924	14	0	1000	228
fixed	3	2	5	433789	11	1	1	1	0	901	14	0	400	229
fixed	3	2	6	434618	12	2	2	1	0	829	14	0	550	230
fixed	3	2	7	434618	10	0	0	1	0	703	14	0	800	231
fixed	3	2	8	436304	9	3	3	1	0	835	14	0	600	232
fixed	3	2	9	436304	8	1	1	1	0	666	14	0	750	233
fixed	3	3	0	438908	8	2	2	1	0	1319	14	0	1000	234
fixed	3	3	1	439669	11	1	1	1	0	761	14	0	500	235
fixed	3	3	2	440673	10	0	0	1	0	1004	14	0	650	236
fixed	3	3	3	440673	13	2	2	1	0	629	14	0	900	237
fixed	3	3	4	440673	9	3	3	1	0	301	14	0	1000	238
fixed	3	3	5	443498	11	1	1	1	0	831	14	0	400	239
fixed	3	3	6	444451	12	2	2	1	0	952	14	0	550	240
fixed	3	3	7	444451	10	0	0	1	0	818	14	0	800	241
fixed	3	3	8	446405	9	3	3	1	0	1135	14	0	600	242
fixed	3	3	9	447703	8	1	1	1	0	1297	14	0	750	243
fixed	3	4	0	447703	8	2	2	1	0	1048	14	0	1000	244
fixed	3	4	1	450214	11	1	1	1	0	1032	14	0	500	245
fixed	3	4	2	450962	10	0	0	1	0	748	14	0	650	246
fixed	3	4	3	450962	13	2	2	1	0	666	14	0	900	247
fixed	3	4	4	450962	9	3	3	1	0	674	14	0	1000	248
fixed	3	4	5	453486	11	1	1	1	0	588	14	0	400	249
fixed	3	4	6	454240	12	2	2	1	0	753	14	0	550	250
fixed	3	4	7	454240	10	0	0	1	0	682	14	0	800	251
fixed	3	4	8	454240	9	3	3	1	0	607	14	0	600	252
fixed	3	4	9	454240	8	1	1	1	0	759	14	0	750	253
fixed	3	5	0	457945	8	2	2	1	0	1069	14	0	1000	254
fixed	3	5	1	458986	11	1	1	1	0	1041	14	0	500	255
fixed	3	5	2	460136	10	0	0	1	0	1149	14	0	650	256
fixed	3	5	3	461220	13	2	2	1	0	1084	14	0	900	257
fixed	3	5	4	461220	9	3	3	1	0	746	14	0	1000	258
fixed	3	5	5	462882	11	1	1	1	0	641	14	0	400	259
fixed	3	5	6	463586	12	2	2	1	0	704	14	0	550	260
fixed	3	5	7	463586	10	0	0	1	0	696	14	0	800	261
fixed	3	5	8	465432	9	3	3	1	0	1011	14	0	600	262
fixed	3	5	9	465432	8	1	1	1	0	649	14	0	750	263
fixed	3	6	0	469155	8	2	-1	1	0	2500	14	0	1000	263
fixed	3	6	1	469155	11	1	2	1	0	98	14	0	500	263
fixed	3	6	2	469155	10	0	1	1	0	274	14	0	650	263
fixed	3	6	3	471619	13	2	2	1	0	1250	14	0	900	264
fixed	3	6	4	471619	9	3	3	1	0	1003	14	0	1000	265
fixed	3	6	5	473750	11	1	1	1	0	1127	14	0	400	266
fixed	3	6	6	474563	12	2	2	1	0	813	14	0	550	267
fixed	3	6	7	476006	10	0	0	1	0	1443	14	0	800	268
fixed	3	6	8	476967	9	3	3	1	0	960	14	0	600	269
fixed	3	6	9	478061	8	1	1	1	0	1094	14	0	750	270
fixed	4	0	0	478061	7	2	2	1	0	807	14	0	1000	271
fixed	4	0	1	480469	10	1	1	1	0	906	14	0	500	272
fixed	4	0	2	481271	9	0	0	1	0	801	14	0	650	273
fixed	4	0	3	481271	12	2	2	1	0	677	14	0	900	274
fixed	4	0	4	481271	8	3	3	1	0	651	14	0	1000	275
fixed	4	0	5	481271	10	1	1	1	0	420	14	0	400	276
fixed	4	0	6	484549	11	2	2	1	0	932	14	0	550	277
fixed	4	0	7	485890	9	0	0	1	0	1341	14	0	800	278
fixed	4	0	8	486652	8	3	3	1	0	762	14	0	600	279
fixed	4	0	9	487989	7	1	1	1	0	1337	14	0	750	280
fixed	4	1	0	487989	7	2	2	1	0	949	14	0	1000	281
fixed	4	1	1	490330	10	1	1	1	0	801	14	0	500	282
fixed	4	1	2	491213	9	0	0	1	0	883	14	0	650	283
fixed	4	1	3	491213	12	2	2	1	0	842	14	0	900	284
fixed	4	1	4	491213	8	3	3	1	0	730	14	0	1000	285
fixed	4	1	5	493810	10	1	1	1	0	679	14	0	400	286
fixed	4	1	6	494968	11	2	2	1	0	1158	14	0	550	287
fixed	4	1	7	494968	9	0	0	1	0	779	14	0	800	288
fixed	4	1	8	496637	8	3	3	1	0	854	14	0	600	289
fixed	4	1	9	496637	7	1	1	1	0	744	14	0	750	290
fixed	4	2	0	499104	7	2	2	1	0	1102	14	0	1000	291
fixed	4	2	1	499931	10	1	1	1	0	826	14	0	500	292
fixed	4	2	2	500780	9	0	0	1	0	849	14	0	650	293
fixed	4	2	3	500780	12	2	2	1	0	761	14	0	900	294
fixed	4	2	4	500780	8	3	3	1	0	534	14	0	1000	295
fixed	4	2	5	500780	10	1	1	1	0	348	14	0	400	296
fixed	4	2	6	504083	11	2	2	1	0	861	14	0	550	297
fixed	4	2	7	504083	9	0	0	1	0	720	14	0	800	298
fixed	4	2	8	505716	8	3	3	1	0	830	14	0	600	299
fixed	4	2	9	505716	7	1	1	1	0	686	14	0	750	300
fixed	4	3	0	505716	7	2	2	1	0	974	14	0	1000	301
fixed	4	3	1	508899	10	1	1	1	0	902	14	0	500	302
fixed	4	3	2	510006	9	0	0	1	0	1107	14	0	650	303
fixed	4	3	3	510964	12	2	2	1	0	957	14	0	900	304
fixed	4	3	4	510964	8	3	3	1	0	737	14	0	1000	305
fixed	4	3	5	512667	10	1	1	1	0	669	14	0	400	306
fixed	4	3	6	513344	11	2	2	1	0	676	14	0	550	307
fixed	4	3	7	513344	9	0	0	1	0	778	14	0	800	308
fixed	4	3	8	514952	8	3	3	1	0	732	14	0	600	309
fixed	4	3	9	514952	7	1	1	1	0	668	14	0	750	310
fixed	4	4	0	514952	7	2	2	1	0	1002	14	0	1000	311
fixed	4	4	1	517865	10	1	1	1	0	716	14	0	500	312
fixed	4	4	2	518706	9	0	0	1	0	841	14	0	650	313
fixed	4	4	3	518706	12	2	2	1	0	613	14	0	900	314
fixed	4	4	4	518706	8	3	3	1	0	714	14	0	1000	315
fixed	4	4	5	521141	10	1	1	1	0	492	14	0	400	316
fixed	4	4	6	522138	11	2	2	1	0	996	14	0	550	317
fixed	4	4	7	522138	9	0	0	1	0	750	14	0	800	318
fixed	4	4	8	523709	8	3	3	1	0	743	14	0	600	319
fixed	4	4	9	523709	7	1	1	1	0	725	14	0	750	320
fixed	4	5	0	523709	7	2	2	1	0	895	14	0	1000	321
fixed	4	5	1	526741	10	1	1	1	0	737	14	0	500	322
fixed	4	5	2	527520	9	0	0	1	0	779	14	0	650	323
fixed	4	5	3	527520	12	2	2	1	0	659	14	0	900	324
fixed	4	5	4	527520	8	3	3	1	0	710	14	0	1000	325
fixed	4	5	5	530244	10	1	1	1	0	784	14	0	400	326
fixed	4	5	6	531123	11	2	2	1	0	879	14	0	550	327
fixed	4	5	7	531123	9	0	0	1	0	614	14	0	800	328
fixed	4	5	8	532702	8	3	3	1	0	751	14	0	600	329
fixed	4	5	9	533568	7	1	1	1	0	866	14	0	750	330
fixed	4	6	0	535135	7	2	2	1	0	1153	14	0	1000	331
fixed	4	6	1	536549	10	1	1	1	0	1414	14	0	500	332
fixed	4	6	2	537368	9	0	0	1	0	819	14	0	650	333
fixed	4	6	3	537368	12	2	2	1	0	667	14	0	900	334
fixed	4	6	4	537368	8	3	3	1	0	819	14	0	1000	335
fixed	4	6	5	539942	10	1	1	1	0	628	14	0	400	336
fixed	4	6	6	540647	11	2	2	1	0	704	14	0	550	337
fixed	4	6	7	541556	9	0	0	1	0	909	14	0	800	338
fixed	4	6	8	542551	8	3	3	1	0	994	14	0	600	339
fixed	4	6	9	542551	7	1	1	1	0	663	14	0	750	340
fixed	5	0	0	542551	6	2	2	1	0	888	14	0	1000	341
fixed	5	0	1	545736	9	1	1	1	0	932	14	0	500	342
fixed	5	0	2	546613	8	0	0	1	0	877	14	0	650	343
fixed	5	0	3	546613	11	2	2	1	0	781	14	0	900	344
fixed	5	0	4	546613	7	3	3	1	0	540	14	0	1000	345
fixed	5	0	5	549883	9	1	1	1	0	1273	14	0	400	346
fixed	5	0	6	550860	10	2	2	1	0	976	14	0	550	347
fixed	5	0	7	551874	8	0	0	1	0	1014	14	0	800	348
fixed	5	0	8	552640	7	3	3	1	0	766	14	0	600	349
fixed	5	0	9	553437	6	1	1	1	0	796	14	0	750	350
fixed	5	1	0	554958	6	2	2	1	0	1105	14	0	1000	351
fixed	5	1	1	555703	9	1	1	1	0	745	14	0	500	352
fixed	5	1	2	556538	8	0	0	1	0	835	14	0	650	353
fixed	5	1	3	556538	11	2	2	1	0	661	14	0	900	354
fixed	5	1	4	556538	7	3	3	1	0	576	14	0	1000	355
fixed	5	1	5	559299	9	1	1	1	0	829	14	0	400	356
fixed	5	1	6	560137	10	2	2	1	0	839	14	0	550	357
fixed	5	1	7	560137	8	0	0	1	0	663	14	0	800	358
fixed	5	1	8	560137	7	3	3	1	0	572	14	0	600	359
fixed	5	1	9	562400	6	1	1	1	0	813	14	0	750	360
fixed	5	2	0	564012	6	2	2	1	0	1190	14	0	1000	361
fixed	5	2	1	564726	9	1	1	1	0	714	14	0	500	362
fixed	5	2	2	565621	8	0	0	1	0	894	14	0	650	363
fixed	5	2	3	565621	11	2	2	1	0	694	14	0	900	364
fixed	5	2	4	565621	7	3	3	1	0	945	14	0	1000	365
fixed	5	2	5	568713	9	1	1	1	0	1150	14	0	400	366
fixed	5	2	6	570039	10	2	2	1	0	1326	14	0	550	367
fixed	5	2	7	570884	8	0	0	1	0	844	14	0	800	368
fixed	5	2	8	571630	7	3	3	1	0	746	14	0	600	369
fixed	5	2	9	571630	6	1	1	1	0	702	14	0	750	370
fixed	5	3	0	571630	6	2	2	1	0	1028	14	0	1000	371
fixed	5	3	1	574733	9	1	1	1	0	755	14	0	500	372
fixed	5	3	2	575579	8	0	0	1	0	845	14	0	650	373
fixed	5	3	3	575579	11	2	2	1	0	638	14	0	900	374
fixed	5	3	4	575579	7	3	3	1	0	403	14	0	1000	375
fixed	5	3	5	575579	9	1	1	1	0	243	14	0	400	376
fixed	5	3	6	578914	10	2	2	1	0	969	14	0	550	377
fixed	5	3	7	578914	8	0	0	1	0	854	14	0	800	378
fixed	5	3	8	580539	7	3	3	1	0	771	14	0	600	379
fixed	5	3	9	581402	6	1	1	1	0	861	14	0	750	380
fixed	5	4	0	582927	6	2	2	1	0	1060	14	0	1000	381
fixed	5	4	1	583613	9	1	1	1	0	686	14	0	500	382
fixed	5	4	2	584922	8	0	0	1	0	1309	14	0	650	383
fixed	5	4	3	584922	11	2	2	1	0	812	14	0	900	384
fixed	5	4	4	584922	7	3	3	1	0	764	14	0	1000	385
fixed	5	4	5	587662	9	1	1	1	0	783	14	0	400	386
fixed	5	4	6	588432	10	2	2	1	0	769	14	0	550	387
fixed	5	4	7	588432	8	0	0	1	0	690	14	0	800	388
fixed	5	4	8	589937	7	3	3	1	0	673	14	0	600	389
fixed	5	4	9	589937	6	1	1	1	0	701	14	0	750	390
fixed	5	5	0	592357	6	2	2	1	0	1229	14	0	1000	391
fixed	5	5	1	593686	9	1	1	1	0	1329	14	0	500	392
fixed	5	5	2	594601	8	0	0	1	0	914	14	0	650	393
fixed	5	5	3	594601	11	2	2	1	0	952	14	0	900	394
fixed	5	5	4	594601	7	3	3	1	0	797	14	0	1000	395
fixed	5	5	5	597436	9	1	1	1	0	869	14	0	400	396
fixed	5	5	6	597436	10	2	2	1	0	696	14	0	550	397
fixed	5	5	7	597436	8	0	0	1	0	811	14	0	800	398
fixed	5	5	8	597436	7	3	3	1	0	603	14	0	600	399
fixed	5	5	9	600729	6	1	1	1	0	1094	14	0	750	400
fixed	5	6	0	602318	6	2	2	1	0	1131	14	0	1000	401
fixed	5	6	1	603751	9	1	1	1	0	1432	14	0	500	402
fixed	5	6	2	605188	8	0	0	1	0	1437	14	0	650	403
fixed	5	6	3	605188	11	2	2	1	0	899	14	0	900	404
fixed	5	6	4	605188	7	3	3	1	0	1001	14	0	1000	405
fixed	5	6	5	607881	9	1	1	1	0	758	14	0	400	406
fixed	5	6	6	608740	10	2	2	1	0	859	14	0	550	407
fixed	5	6	7	608740	8	0	0	1	0	730	14	0	800	408
fixed	5	6	8	608740	7	3	3	1	0	555	14	0	600	409
fixed	5	6	9	608740	6	1	1	1	0	613	14	0	750	410
random	6	0	0	612774	6	3	3	1	0	1344	14	0	1000	411
random	6	0	1	614078	9	1	1	1	0	1303	14	0	550	412
random	6	0	2	615240	6	3	3	1	0	1162	14	0	900	413
random	6	0	3	616405	7	0	0	1	0	1163	14	0	750	414
random	6	0	4	617343	10	2	2	1	0	938	14	0	600	415
random	6	0	5	618613	5	0	0	1	0	1269	14	0	300	416
random	6	0	6	619754	8	1	1	1	0	1141	14	0	400	417
random	6	0	7	620941	5	2	2	1	0	1187	14	0	1000	418
random	6	0	8	622124	9	3	3	1	0	1183	14	0	500	419
random	6	0	9	623540	8	2	2	1	0	1415	14	0	800	420
random	6	1	0	625638	9	3	3	1	0	1483	14	0	650	421
random	6	1	1	626852	10	2	2	1	0	1214	14	0	600	422
random	6	1	2	628051	7	1	1	1	0	1198	14	0	300	423
random	6	1	3	628051	6	2	2	1	0	1092	14	0	1000	424
random	6	1	4	630189	10	1	1	1	0	1046	14	0	900	425
random	6	1	5	631276	5	0	0	1	0	1086	14	0	800	426
random	6	1	6	632283	6	3	3	1	0	1007	14	0	750	427
random	6	1	7	634788	5	2	2	1	0	2504	14	0	400	428
random	6	1	8	635956	8	1	1	1	0	1169	14	0	1000	429
random	6	1	9	637053	7	0	0	1	0	1096	14	0	500	430
random	6	2	0	639413	5	1	1	1	0	1832	14	0	900	431
random	6	2	1	640564	9	0	0	1	0	1151	14	0	300	432
random	6	2	2	641709	10	3	3	1	0	1145	14	0	1000	433
random	6	2	3	643019	8	0	0	1	0	1310	14	0	550	434
random	6	2	4	644246	7	2	2	1	0	1227	14	0	1000	435
random	6	2	5	645085	6	1	1	1	0	839	14	0	400	436
random	6	2	6	646256	7	3	3	1	0	1171	14	0	600	437
random	6	2	7	647471	9	2	2	1	0	1215	14	0	500	438
random	6	2	8	648771	5	3	3	1	0	1300	14	0	750	439
random	6	2	9	650412	10	2	2	1	0	1641	14	0	650	440
random	6	3	0	652562	5	0	0	1	0	1621	14	0	900	441
random	6	3	1	653621	9	2	2	1	0	1059	14	0	300	442
random	6	3	2	653621	10	1	1	1	0	1001	14	0	1000	443
random	6	3	3	655389	8	3	3	1	0	766	14	0	550	444
random	6	3	4	656597	7	1	1	1	0	1208	14	0	1000	445
random	6	3	5	657670	6	0	0	1	0	1072	14	0	400	446
random	6	3	6	658753	7	3	3	1	0	1082	14	0	600	447
random	6	3	7	659632	9	2	2	1	0	879	14	0	500	448
random	6	3	8	660818	5	1	1	1	0	1186	14	0	750	449
random	6	3	9	661897	10	2	2	1	0	1078	14	0	650	450
random	6	4	0	663576	6	3	3	1	0	1226	14	0	500	451
random	6	4	1	664839	10	2	2	1	0	1263	14	0	600	452
random	6	4	2	666088	7	1	1	1	0	1246	14	0	900	453
random	6	4	3	666088	10	0	0	1	0	1034	14	0	1000	454
random	6	4	4	668363	9	3	3	1	0	1241	14	0	650	455
random	6	4	5	669691	5	1	1	1	0	1327	14	0	550	456
random	6	4	6	670712	8	3	3	1	0	1021	14	0	800	457
random	6	4	7	671689	7	0	0	1	0	977	14	0	700	458
random	6	4	8	671689	9	2	2	1	0	923	14	0	1000	459
random	6	4	9	674005	6	1	1	1	0	1295	14	0	300	460
random	6	5	0	675721	7	0	0	1	0	1250	14	0	1000	461
random	6	5	1	676741	9	2	2	1	0	1020	14	0	400	462
random	6	5	2	677901	5	3	3	1	0	1159	14	0	750	463
random	6	5	3	679259	9	1	1	1	0	1358	14	0	900	464
random	6	5	4	680338	6	2	2	1	0	1079	14	0	300	465
random	6	5	5	681339	5	3	3	1	0	1001	14	0	650	466
random	6	5	6	682690	8	0	0	1	0	1351	14	0	550	467
random	6	5	7	683848	10	2	2	1	0	1158	14	0	800	468
random	6	5	8	684753	8	1	1	1	0	904	14	0	500	469
random	6	5	9	685872	7	0	0	1	0	1119	14	0	1000	470
random	6	6	0	687527	10	0	0	1	0	1076	14	0	1000	471
random	6	6	1	688637	7	2	2	1	0	1110	14	0	650	472
random	6	6	2	688637	10	1	1	1	0	938	14	0	900	473
random	6	6	3	690558	9	2	2	1	0	983	14	0	600	474
random	6	6	4	691491	7	0	0	1	0	933	14	0	400	475
random	6	6	5	692490	9	3	3	1	0	998	14	0	300	476
random	6	6	6	693917	6	1	1	1	0	1426	14	0	700	477
random	6	6	7	695006	5	3	2	1	0	1089	14	0	750	477
random	6	6	8	696272	8	1	1	1	0	1266	14	0	500	478
random	6	6	9	697390	6	2	2	1	0	1118	14	0	1000	479
fixed	7	0	0	697390	4	2	2	1	0	1061	14	0	1000	480
fixed	7	0	1	699809	7	1	1	1	0	846	14	0	500	481
fixed	7	0	2	700710	6	0	0	1	0	901	14	0	650	482
fixed	7	0	3	700710	9	2	2	1	0	812	14	0	900	483
fixed	7	0	4	700710	5	3	3	1	0	805	14	0	1000	484
fixed	7	0	5	703409	7	1	1	1	0	730	14	0	400	485
fixed	7	0	6	704171	8	2	2	1	0	762	14	0	550	486
fixed	7	0	7	704171	6	0	0	1	0	660	14	0	800	487
fixed	7	0	8	705786	5	3	2	1	0	764	14	0	600	487
fixed	7	0	9	707095	4	1	1	1	0	1309	14	0	750	488
fixed	7	1	0	708708	4	2	2	1	0	1173	14	0	1000	489
fixed	7	1	1	709637	7	1	1	1	0	928	14	0	500	490
fixed	7	1	2	710772	6	0	0	1	0	1135	14	0	650	491
fixed	7	1	3	710772	9	2	2	1	0	827	14	0	900	492
fixed	7	1	4	710772	5	3	3	1	0	784	14	0	1000	493
fixed	7	1	5	713558	7	1	1	1	0	831	14	0	400	494
fixed	7	1	6	714544	8	2	2	1	0	985	14	0	550	495
fixed	7	1	7	714544	6	0	0	1	0	762	14	0	800	496
fixed	7	1	8	716632	5	3	3	1	0	1207	14	0	600	497
fixed	7	1	9	716632	4	1	1	1	0	804	14	0	750	498
fixed	7	2	0	719117	4	2	2	1	0	1229	14	0	1000	499
fixed	7	2	1	720055	7	1	1	1	0	938	14	0	500	500
fixed	7	2	2	721070	6	0	0	1	0	1015	14	0	650	501
fixed	7	2	3	721070	9	2	2	1	0	809	14	0	900	502
fixed	7	2	4	721070	5	3	3	1	0	779	14	0	1000	503
fixed	7	2	5	723608	7	1	1	1	0	621	14	0	400	504
fixed	7	2	6	724300	8	2	2	1	0	692	14	0	550	505
fixed	7	2	7	724300	6	0	0	1	0	662	14	0	800	506
fixed	7	2	8	725933	5	3	3	1	0	833	14	0	600	507
fixed	7	2	9	725933	4	1	1	1	0	623	14	0	750	508
fixed	7	3	0	725933	4	2	2	1	0	1050	14	0	1000	509
fixed	7	3	1	729200	7	1	1	1	0	1061	14	0	500	510
fixed	7	3	2	729969	6	0	0	1	0	769	14	0	650	511
fixed	7	3	3	729969	9	2	2	1	0	604	14	0	900	512
fixed	7	3	4	729969	5	3	3	1	0	625	14	0	1000	513
fixed	7	3	5	729969	7	1	1	1	0	400	14	0	400	514
fixed	7	3	6	733398	8	2	2	1	0	1035	14	0	550	515
fixed	7	3	7	733398	6	0	0	1	0	798	14	0	800	516
fixed	7	3	8	734917	5	3	3	1	0	678	14	0	600	517
fixed	7	3	9	734917	4	1	1	1	0	637	14	0	750	518
fixed	7	4	0	737486	4	2	2	1	0	1359	14	0	1000	519
fixed	7	4	1	738257	7	1	1	1	0	771	14	0	500	520
fixed	7	4	2	739107	6	0	0	1	0	850	14	0	650	521
fixed	7	4	3	739107	9	2	2	1	0	661	14	0	900	522
fixed	7	4	4	739107	5	3	3	1	0	534	14	0	1000	523
fixed	7	4	5	739107	7	1	1	1	0	310	14	0	400	524
fixed	7	4	6	742186	8	2	2	1	0	696	14	0	550	525
fixed	7	4	7	742186	6	0	0	1	0	697	14	0	800	526
fixed	7	4	8	743937	5	3	3	1	0	923	14	0	600	527
fixed	7	4	9	743937	4	1	1	1	0	636	14	0	750	528
fixed	7	5	0	746714	4	2	2	1	0	1528	14	0	1000	529
fixed	7	5	1	747492	7	1	1	1	0	778	14	0	500	530
fixed	7	5	2	748332	6	0	0	1	0	839	14	0	650	531
fixed	7	5	3	748332	9	2	2	1	0	725	14	0	900	532
fixed	7	5	4	748332	5	3	3	1	0	616	14	0	1000	533
fixed	7	5	5	748332	7	1	1	1	0	351	14	0	400	534
fixed	7	5	6	751531	8	2	2	1	0	848	14	0	550	535
fixed	7	5	7	751531	6	0	0	1	0	709	14	0	800	536
fixed	7	5	8	753090	5	3	3	1	0	739	14	0	600	537
fixed	7	5	9	753090	4	1	1	1	0	599	14	0	750	538
fixed	7	6	0	753090	4	2	2	1	0	926	14	0	1000	539
fixed	7	6	1	756116	7	1	1	1	0	722	14	0	500	540
fixed	7	6	2	756983	6	0	0	1	0	866	14	0	650	541
fixed	7	6	3	756983	9	2	2	1	0	844	14	0	900	542
fixed	7	6	4	756983	5	3	3	1	0	719	14	0	1000	543
fixed	7	6	5	759488	7	1	1	1	0	539	14	0	400	544
fixed	7	6	6	760520	8	2	2	1	0	1032	14	0	550	545
fixed	7	6	7	760520	6	0	0	1	0	633	14	0	800	546
fixed	7	6	8	762023	5	3	3	1	0	659	14	0	600	547
fixed	7	6	9	762023	4	1	1	1	0	652	14	0	750	548
