type	block	sequ.	trial	time	Pos.	Color	Button	NumRsp	Resp_1	RT_1	R_Code	Resp_2	RT_2	Trigg.	n_hit	n_inc	n_miss	score_%
random	0	0	0	0	11	3	3	1	0	935	14	0	1000	1
random	0	0	1	112768	14	1	1	1	0	1149	14	0	550	2
random	0	0	2	112768	11	3	3	1	0	881	14	0	900	3
random	0	0	3	114588	12	0	0	1	0	919	14	0	750	4
random	0	0	4	115302	15	2	2	1	0	713	14	0	600	5
random	0	0	5	116500	10	0	0	1	0	1198	14	0	300	6
random	0	0	6	117901	13	1	1	1	0	1401	14	0	400	7
random	0	0	7	117901	10	2	2	1	0	967	14	0	1000	8
random	0	0	8	120165	14	3	3	1	0	1250	14	0	500	9
random	0	0	9	121435	13	2	2	1	0	1269	14	0	800	10
random	0	1	0	123100	14	3	3	1	0	1290	14	0	650	11
random	0	1	1	124160	15	2	2	1	0	1059	14	0	600	12
random	0	1	2	124982	12	1	1	1	0	822	14	0	300	13
random	0	1	3	126283	11	2	2	1	0	1300	14	0	1000	14
random	0	1	4	127794	15	1	1	1	0	1510	14	0	900	15
random	0	1	5	128717	10	0	0	1	0	923	14	0	800	16
random	0	1	6	129649	11	3	3	1	0	932	14	0	750	17
random	0	1	7	130445	10	2	2	1	0	795	14	0	400	18
random	0	1	8	131583	13	1	1	1	0	1138	14	0	1000	19
random	0	1	9	132517	12	0	0	1	0	934	14	0	500	20
random	0	2	0	134305	10	1	1	1	0	1424	14	0	900	21
random	0	2	1	135384	14	0	0	1	0	1079	14	0	300	22
random	0	2	2	136501	15	3	3	1	0	1116	14	0	1000	23
random	0	2	3	137719	13	0	0	1	0	1218	14	0	550	24
random	0	2	4	139069	12	2	2	1	0	1349	14	0	1000	25
random	0	2	5	140921	11	1	1	1	0	1852	14	0	400	26
random	0	2	6	141885	12	3	3	1	0	963	14	0	600	27
random	0	2	7	142885	14	2	2	1	0	999	14	0	500	28
random	0	2	8	144300	10	3	3	1	0	1415	14	0	750	29
random	0	2	9	145450	15	2	2	1	0	1149	14	0	650	30
random	0	3	0	146954	10	0	0	1	0	1120	14	0	900	31
random	0	3	1	148254	14	2	2	1	0	1299	14	0	300	32
random	0	3	2	149389	15	1	1	1	0	1135	14	0	1000	33
random	0	3	3	150300	13	3	3	1	0	911	14	0	550	34
random	0	3	4	151520	12	1	1	1	0	1219	14	0	1000	35
random	0	3	5	152471	11	0	0	1	0	950	14	0	400	36
random	0	3	6	153417	12	3	3	1	0	946	14	0	600	37
random	0	3	7	154176	14	2	2	1	0	759	14	0	500	38
random	0	3	8	155300	10	1	1	1	0	1123	14	0	750	39
random	0	3	9	156434	15	2	2	1	0	1134	14	0	650	40
random	0	4	0	157884	11	3	3	1	0	1066	14	0	500	41
random	0	4	1	158794	15	2	2	1	0	910	14	0	600	42
random	0	4	2	159801	12	1	1	1	0	1007	14	0	900	43
random	0	4	3	159801	15	0	0	1	0	782	14	0	1000	44
random	0	4	4	161755	14	3	3	1	0	935	14	0	650	45
random	0	4	5	162917	10	1	1	1	0	1162	14	0	550	46
random	0	4	6	164500	13	3	3	1	0	1583	14	0	800	47
random	0	4	7	165451	12	0	0	1	0	950	14	0	700	48
random	0	4	8	166484	14	2	2	1	0	1034	14	0	1000	49
random	0	4	9	167584	11	1	1	1	0	1099	14	0	300	50
random	0	5	0	169118	12	0	0	1	0	1181	14	0	1000	51
random	0	5	1	170049	14	2	2	1	0	930	14	0	400	52
random	0	5	2	170887	10	3	3	1	0	838	14	0	750	53
random	0	5	3	171984	14	1	1	1	0	1097	14	0	900	54
random	0	5	4	173055	11	2	2	1	0	1070	14	0	300	55
random	0	5	5	174300	10	3	3	1	0	1245	14	0	650	56
random	0	5	6	175450	13	0	0	1	0	1150	14	0	550	57
random	0	5	7	176645	15	2	2	1	0	1195	14	0	800	58
random	0	5	8	177752	13	1	1	1	0	1106	14	0	500	59
random	0	5	9	179086	12	0	0	1	0	1334	14	0	1000	60
random	0	6	0	179086	15	0	0	1	0	957	14	0	1000	61
random	0	6	1	181589	12	2	2	1	0	1082	14	0	650	62
random	0	6	2	181589	15	1	2	1	0	163	14	0	900	62
random	0	6	3	181589	14	2	1	1	0	136	14	0	600	62
random	0	6	4	183572	12	0	2	1	0	437	14	0	400	62
random	0	6	5	184874	14	3	3	1	0	1301	14	0	300	63
random	0	6	6	185973	11	1	1	1	0	1100	14	0	700	64
random	0	6	7	186941	10	3	3	1	0	967	14	0	750	65
random	0	6	8	188051	13	1	1	1	0	1110	14	0	500	66
random	0	6	9	189268	11	2	2	1	0	1216	14	0	1000	67
fixed	1	0	0	189268	9	2	2	1	0	908	14	0	1000	68
fixed	1	0	1	191869	12	1	1	1	0	1200	14	0	500	69
fixed	1	0	2	192881	11	0	0	1	0	1012	14	0	650	70
fixed	1	0	3	192881	14	2	2	1	0	670	14	0	900	71
fixed	1	0	4	192881	10	3	3	1	0	783	14	0	1000	72
fixed	1	0	5	195755	12	1	1	1	0	954	14	0	400	73
fixed	1	0	6	196403	13	2	2	1	0	648	14	0	550	74
fixed	1	0	7	197383	11	0	0	1	0	978	14	0	800	75
fixed	1	0	8	198050	10	3	3	1	0	666	14	0	600	76
fixed	1	0	9	198050	9	1	1	1	0	637	14	0	750	77
fixed	1	1	0	200301	9	2	2	1	0	1133	14	0	1000	78
fixed	1	1	1	201466	12	1	1	1	0	1165	14	0	500	79
fixed	1	1	2	202452	11	0	0	1	0	985	14	0	650	80
fixed	1	1	3	203949	14	2	2	1	0	1496	14	0	900	81
fixed	1	1	4	203949	10	3	3	1	0	783	14	0	1000	82
fixed	1	1	5	205666	12	1	1	1	0	701	14	0	400	83
fixed	1	1	6	206429	13	2	2	1	0	762	14	0	550	84
fixed	1	1	7	206429	11	0	0	1	0	620	14	0	800	85
fixed	1	1	8	206429	10	3	3	1	0	551	14	0	600	86
fixed	1	1	9	208735	9	1	1	1	0	870	14	0	750	87
fixed	1	2	0	210299	9	2	2	1	0	1198	14	0	1000	88
fixed	1	2	1	211614	12	1	1	1	0	1314	14	0	500	89
fixed	1	2	2	212532	11	0	0	1	0	918	14	0	650	90
fixed	1	2	3	213583	14	2	2	1	0	1050	14	0	900	91
fixed	1	2	4	213583	10	3	3	1	0	615	14	0	1000	92
fixed	1	2	5	215519	12	1	1	1	0	933	14	0	400	93
fixed	1	2	6	216501	13	2	2	1	0	982	14	0	550	94
fixed	1	2	7	217802	11	0	0	1	0	1300	14	0	800	95
fixed	1	2	8	219288	10	3	3	1	0	1486	14	0	600	96
fixed	1	2	9	220237	9	1	1	1	0	949	14	0	750	97
fixed	1	3	0	220237	9	2	2	1	0	816	14	0	1000	98
fixed	1	3	1	222618	12	1	1	1	0	1001	14	0	500	99
fixed	1	3	2	222618	11	0	0	1	0	650	14	0	650	100
fixed	1	3	3	222618	14	2	2	1	0	851	14	0	900	101
fixed	1	3	4	222618	10	3	3	1	0	685	14	0	1000	102
fixed	1	3	5	226414	12	1	1	1	0	1185	14	0	400	103
fixed	1	3	6	227170	13	2	2	1	0	756	14	0	550	104
fixed	1	3	7	228040	11	0	0	1	0	869	14	0	800	105
fixed	1	3	8	228040	10	3	3	1	0	581	14	0	600	106
fixed	1	3	9	228040	9	1	1	1	0	729	14	0	750	107
fixed	1	4	0	231052	9	2	2	1	0	1200	14	0	1000	108
fixed	1	4	1	232185	12	1	1	1	0	1133	14	0	500	109
fixed	1	4	2	233278	11	0	0	1	0	1093	14	0	650	110
fixed	1	4	3	234503	14	2	2	1	0	1224	14	0	900	111
fixed	1	4	4	235674	10	3	3	1	0	1171	14	0	1000	112
fixed	1	4	5	236785	12	1	1	1	0	1111	14	0	400	113
fixed	1	4	6	238169	13	2	2	1	0	1384	14	0	550	114
fixed	1	4	7	239402	11	0	0	1	0	1232	14	0	800	115
fixed	1	4	8	240567	10	3	3	1	0	1165	14	0	600	116
fixed	1	4	9	241654	9	1	1	1	0	1087	14	0	750	117
fixed	1	5	0	243384	9	2	2	1	0	1334	14	0	1000	118
fixed	1	5	1	244539	12	1	1	1	0	1154	14	0	500	119
fixed	1	5	2	245524	11	0	0	1	0	985	14	0	650	120
fixed	1	5	3	246538	14	2	2	1	0	1014	14	0	900	121
fixed	1	5	4	246538	10	3	3	1	0	862	14	0	1000	122
fixed	1	5	5	248568	12	1	1	1	0	1000	14	0	400	123
fixed	1	5	6	249284	13	2	2	1	0	716	14	0	550	124
fixed	1	5	7	249284	11	0	0	1	0	832	14	0	800	125
fixed	1	5	8	250818	10	3	3	1	0	701	14	0	600	126
fixed	1	5	9	252167	9	1	1	1	0	1349	14	0	750	127
fixed	1	6	0	253655	9	2	2	1	0	1105	14	0	1000	128
fixed	1	6	1	254882	12	1	1	1	0	1227	14	0	500	129
fixed	1	6	2	255899	11	0	0	1	0	1017	14	0	650	130
fixed	1	6	3	257086	14	2	2	1	0	1186	14	0	900	131
fixed	1	6	4	257086	10	3	3	1	0	866	14	0	1000	132
fixed	1	6	5	259336	12	1	1	1	0	1218	14	0	400	133
fixed	1	6	6	260024	13	2	2	1	0	688	14	0	550	134
fixed	1	6	7	260024	11	0	0	1	0	594	14	0	800	135
fixed	1	6	8	260024	10	3	3	1	0	338	14	0	600	136
fixed	1	6	9	260024	9	1	1	1	0	248	14	0	750	137
fixed	2	0	0	260024	8	2	2	1	0	988	14	0	1000	138
fixed	2	0	1	264819	11	1	1	1	0	1281	14	0	500	139
fixed	2	0	2	265783	10	0	0	1	0	964	14	0	650	140
fixed	2	0	3	266904	13	2	2	1	0	1121	14	0	900	141
fixed	2	0	4	266904	9	3	3	1	0	979	14	0	1000	142
fixed	2	0	5	268936	11	1	1	1	0	1015	14	0	400	143
fixed	2	0	6	269681	12	2	2	1	0	744	14	0	550	144
fixed	2	0	7	270575	10	0	0	1	0	894	14	0	800	145
fixed	2	0	8	271556	9	3	3	1	0	981	14	0	600	146
fixed	2	0	9	272485	8	1	1	1	0	928	14	0	750	147
fixed	2	1	0	274154	8	2	2	1	0	1264	14	0	1000	148
fixed	2	1	1	275298	11	1	1	1	0	1144	14	0	500	149
fixed	2	1	2	276369	10	0	0	1	0	1070	14	0	650	150
fixed	2	1	3	277371	13	2	2	1	0	1002	14	0	900	151
fixed	2	1	4	277371	9	3	3	1	0	826	14	0	1000	152
fixed	2	1	5	279299	11	1	1	1	0	918	14	0	400	153
fixed	2	1	6	280014	12	2	2	1	0	714	14	0	550	154
fixed	2	1	7	281404	10	0	0	1	0	1389	14	0	800	155
fixed	2	1	8	282422	9	3	3	1	0	1018	14	0	600	156
fixed	2	1	9	283703	8	1	1	1	0	1281	14	0	750	157
fixed	2	2	0	283703	8	2	2	1	0	835	14	0	1000	158
fixed	2	2	1	286200	11	1	1	1	0	1083	14	0	500	159
fixed	2	2	2	287284	10	0	0	1	0	1084	14	0	650	160
fixed	2	2	3	288652	13	2	2	1	0	1366	14	0	900	161
fixed	2	2	4	288652	9	3	3	1	0	748	14	0	1000	162
fixed	2	2	5	290401	11	1	1	1	0	748	14	0	400	163
fixed	2	2	6	291068	12	2	2	1	0	667	14	0	550	164
fixed	2	2	7	291068	10	0	0	1	0	814	14	0	800	165
fixed	2	2	8	292571	9	3	3	1	0	687	14	0	600	166
fixed	2	2	9	292571	8	1	1	1	0	630	14	0	750	167
fixed	2	3	0	295386	8	2	2	1	0	1621	14	0	1000	168
fixed	2	3	1	296686	11	1	1	1	0	1300	14	0	500	169
fixed	2	3	2	297652	10	0	0	1	0	966	14	0	650	170
fixed	2	3	3	298968	13	2	2	1	0	1315	14	0	900	171
fixed	2	3	4	298968	9	3	3	1	0	947	14	0	1000	172
fixed	2	3	5	301103	11	1	1	1	0	1121	14	0	400	173
fixed	2	3	6	302317	12	2	2	1	0	1213	14	0	550	174
fixed	2	3	7	303394	10	0	0	1	0	1077	14	0	800	175
fixed	2	3	8	304802	9	3	3	1	0	1408	14	0	600	176
fixed	2	3	9	305768	8	1	1	1	0	966	14	0	750	177
fixed	2	4	0	307870	8	2	2	1	0	1697	14	0	1000	178
fixed	2	4	1	309166	11	1	1	1	0	1296	14	0	500	179
fixed	2	4	2	309937	10	0	0	1	0	770	14	0	650	180
fixed	2	4	3	311055	13	2	2	1	0	1119	14	0	900	181
fixed	2	4	4	311055	9	3	3	1	0	607	14	0	1000	182
fixed	2	4	5	312752	11	1	1	1	0	667	14	0	400	183
fixed	2	4	6	313504	12	2	2	1	0	752	14	0	550	184
fixed	2	4	7	314470	10	0	0	1	0	966	14	0	800	185
fixed	2	4	8	315501	9	3	3	1	0	1031	14	0	600	186
fixed	2	4	9	316554	8	1	1	1	0	1052	14	0	750	187
fixed	2	5	0	318066	8	2	2	1	0	1094	14	0	1000	188
fixed	2	5	1	319317	11	1	1	1	0	1251	14	0	500	189
fixed	2	5	2	320268	10	0	0	1	0	951	14	0	650	190
fixed	2	5	3	321336	13	2	2	1	0	1067	14	0	900	191
fixed	2	5	4	321336	9	3	3	1	0	863	14	0	1000	192
fixed	2	5	5	323468	11	1	1	1	0	1118	14	0	400	193
fixed	2	5	6	324301	12	2	2	1	0	833	14	0	550	194
fixed	2	5	7	325302	10	0	0	1	0	1001	14	0	800	195
fixed	2	5	8	326650	9	3	3	1	0	1347	14	0	600	196
fixed	2	5	9	327622	8	1	1	1	0	972	14	0	750	197
fixed	2	6	0	329603	8	2	2	1	0	1635	14	0	1000	198
fixed	2	6	1	330717	11	1	1	1	0	1114	14	0	500	199
fixed	2	6	2	331404	10	0	0	1	0	686	14	0	650	200
fixed	2	6	3	332669	13	2	2	1	0	1265	14	0	900	201
fixed	2	6	4	332669	9	3	3	1	0	719	14	0	1000	202
fixed	2	6	5	334885	11	1	1	1	0	1198	14	0	400	203
fixed	2	6	6	336253	12	2	2	1	0	1367	14	0	550	204
fixed	2	6	7	337304	10	0	0	1	0	1050	14	0	800	205
fixed	2	6	8	338217	9	3	3	1	0	913	14	0	600	206
fixed	2	6	9	339170	8	1	1	1	0	952	14	0	750	207
fixed	3	0	0	340817	7	2	2	1	0	1287	14	0	1000	208
fixed	3	0	1	342001	10	1	1	1	0	1183	14	0	500	209
fixed	3	0	2	342903	9	0	0	1	0	902	14	0	650	210
fixed	3	0	3	344004	12	2	2	1	0	1101	14	0	900	211
fixed	3	0	4	344004	8	3	3	1	0	996	14	0	1000	212
fixed	3	0	5	346153	10	1	1	1	0	1104	14	0	400	213
fixed	3	0	6	347300	11	2	2	1	0	1146	14	0	550	214
fixed	3	0	7	348383	9	0	0	1	0	1082	14	0	800	215
fixed	3	0	8	349418	8	3	3	1	0	1034	14	0	600	216
fixed	3	0	9	350319	7	1	1	1	0	901	14	0	750	217
fixed	3	1	0	351997	7	2	2	1	0	1327	14	0	1000	218
fixed	3	1	1	353085	10	1	1	1	0	1088	14	0	500	219
fixed	3	1	2	354044	9	0	0	1	0	958	14	0	650	220
fixed	3	1	3	355162	12	2	2	1	0	1118	14	0	900	221
fixed	3	1	4	355162	8	3	3	1	0	1020	14	0	1000	222
fixed	3	1	5	357228	10	1	1	1	0	1045	14	0	400	223
fixed	3	1	6	358378	11	2	2	1	0	1150	14	0	550	224
fixed	3	1	7	359382	9	0	0	1	0	1004	14	0	800	225
fixed	3	1	8	360838	8	3	3	1	0	1455	14	0	600	226
fixed	3	1	9	361729	7	1	1	1	0	891	14	0	750	227
fixed	3	2	0	361729	7	2	2	1	0	854	14	0	1000	228
fixed	3	2	1	364299	10	1	1	1	0	1160	14	0	500	229
fixed	3	2	2	365406	9	0	0	1	0	1106	14	0	650	230
fixed	3	2	3	366669	12	2	2	1	0	1263	14	0	900	231
fixed	3	2	4	366669	8	3	3	1	0	1004	14	0	1000	232
fixed	3	2	5	368701	10	1	1	1	0	1027	14	0	400	233
fixed	3	2	6	369723	11	2	2	1	0	1022	14	0	550	234
fixed	3	2	7	370821	9	0	0	1	0	1097	14	0	800	235
fixed	3	2	8	372172	8	3	3	1	0	1351	14	0	600	236
fixed	3	2	9	372172	7	1	1	1	0	732	14	0	750	237
fixed	3	3	0	374390	7	2	2	1	0	1089	14	0	1000	238
fixed	3	3	1	375660	10	1	1	1	0	1269	14	0	500	239
fixed	3	3	2	376599	9	0	0	1	0	939	14	0	650	240
fixed	3	3	3	378009	12	2	2	1	0	1409	14	0	900	241
fixed	3	3	4	378009	8	3	3	1	0	998	14	0	1000	242
fixed	3	3	5	380017	10	1	1	1	0	982	14	0	400	243
fixed	3	3	6	380663	11	2	2	1	0	646	14	0	550	244
fixed	3	3	7	381481	9	0	0	1	0	817	14	0	800	245
fixed	3	3	8	382205	8	3	3	1	0	724	14	0	600	246
fixed	3	3	9	383171	7	1	1	1	0	965	14	0	750	247
fixed	3	4	0	384701	7	2	2	1	0	1144	14	0	1000	248
fixed	3	4	1	385833	10	1	1	1	0	1131	14	0	500	249
fixed	3	4	2	386768	9	0	0	1	0	934	14	0	650	250
fixed	3	4	3	386768	12	2	2	1	0	901	14	0	900	251
fixed	3	4	4	386768	8	3	3	1	0	1011	14	0	1000	252
fixed	3	4	5	389571	10	1	1	1	0	889	14	0	400	253
fixed	3	4	6	390189	11	2	2	1	0	618	14	0	550	254
fixed	3	4	7	390189	9	0	0	1	0	684	14	0	800	255
fixed	3	4	8	390189	8	3	3	1	0	424	14	0	600	256
fixed	3	4	9	390189	7	1	1	1	0	289	14	0	750	257
fixed	3	5	0	390189	7	2	2	1	0	812	14	0	1000	258
fixed	3	5	1	394870	10	1	1	1	0	1085	14	0	500	259
fixed	3	5	2	395924	9	0	0	1	0	1054	14	0	650	260
fixed	3	5	3	397092	12	2	2	1	0	1167	14	0	900	261
fixed	3	5	4	397092	8	3	3	1	0	940	14	0	1000	262
fixed	3	5	5	399417	10	1	1	1	0	1317	14	0	400	263
fixed	3	5	6	400107	11	2	2	1	0	689	14	0	550	264
fixed	3	5	7	401036	9	0	0	1	0	929	14	0	800	265
fixed	3	5	8	401036	8	3	3	1	0	632	14	0	600	266
fixed	3	5	9	401036	7	1	1	1	0	583	14	0	750	267
fixed	3	6	0	404407	7	2	2	1	0	1569	14	0	1000	268
fixed	3	6	1	405502	10	1	1	1	0	1095	14	0	500	269
fixed	3	6	2	406409	9	0	0	1	0	906	14	0	650	270
fixed	3	6	3	407587	12	2	2	1	0	1178	14	0	900	271
fixed	3	6	4	407587	8	3	3	1	0	891	14	0	1000	272
fixed	3	6	5	409557	10	1	1	1	0	945	14	0	400	273
fixed	3	6	6	410594	11	2	2	1	0	1037	14	0	550	274
fixed	3	6	7	411519	9	0	0	1	0	925	14	0	800	275
fixed	3	6	8	412372	8	3	3	1	0	852	14	0	600	276
fixed	3	6	9	413698	7	1	1	1	0	1326	14	0	750	277
fixed	4	0	0	415137	6	2	2	1	0	1042	14	0	1000	278
fixed	4	0	1	415921	9	1	1	1	0	784	14	0	500	279
fixed	4	0	2	415921	8	0	0	1	0	666	14	0	650	280
fixed	4	0	3	415921	11	2	2	1	0	818	14	0	900	281
fixed	4	0	4	415921	7	3	3	1	0	964	14	0	1000	282
fixed	4	0	5	419275	9	1	1	1	0	771	14	0	400	283
fixed	4	0	6	419949	10	2	2	1	0	674	14	0	550	284
fixed	4	0	7	419949	8	0	0	1	0	671	14	0	800	285
fixed	4	0	8	421903	7	3	3	1	0	1143	14	0	600	286
fixed	4	0	9	422979	6	1	1	1	0	1076	14	0	750	287
fixed	4	1	0	422979	6	2	2	1	0	957	14	0	1000	288
fixed	4	1	1	425367	9	1	1	1	0	969	14	0	500	289
fixed	4	1	2	426431	8	0	0	1	0	1064	14	0	650	290
fixed	4	1	3	426431	11	2	2	1	0	857	14	0	900	291
fixed	4	1	4	426431	7	3	3	1	0	910	14	0	1000	292
fixed	4	1	5	429377	9	1	1	1	0	1008	14	0	400	293
fixed	4	1	6	430489	10	2	2	1	0	1112	14	0	550	294
fixed	4	1	7	431419	8	0	0	1	0	930	14	0	800	295
fixed	4	1	8	432461	7	3	3	1	0	1041	14	0	600	296
fixed	4	1	9	433298	6	1	1	1	0	837	14	0	750	297
fixed	4	2	0	434897	6	2	2	1	0	1220	14	0	1000	298
fixed	4	2	1	435758	9	1	1	1	0	860	14	0	500	299
fixed	4	2	2	435758	8	0	0	1	0	629	14	0	650	300
fixed	4	2	3	435758	11	2	2	1	0	730	14	0	900	301
fixed	4	2	4	435758	7	3	3	1	0	968	14	0	1000	302
fixed	4	2	5	439407	9	1	1	1	0	1028	14	0	400	303
fixed	4	2	6	440121	10	2	2	1	0	714	14	0	550	304
fixed	4	2	7	440121	8	0	0	1	0	701	14	0	800	305
fixed	4	2	8	441930	7	3	3	1	0	1001	14	0	600	306
fixed	4	2	9	441930	6	1	1	1	0	658	14	0	750	307
fixed	4	3	0	441930	6	2	2	1	0	847	14	0	1000	308
fixed	4	3	1	444978	9	1	1	1	0	865	14	0	500	309
fixed	4	3	2	446090	8	0	0	1	0	1112	14	0	650	310
fixed	4	3	3	447699	11	2	2	1	0	1609	14	0	900	311
fixed	4	3	4	447699	7	3	3	1	0	872	14	0	1000	312
fixed	4	3	5	449605	9	1	1	1	0	902	14	0	400	313
fixed	4	3	6	450420	10	2	2	1	0	815	14	0	550	314
fixed	4	3	7	450420	8	0	0	1	0	602	14	0	800	315
fixed	4	3	8	450420	7	3	3	1	0	615	14	0	600	316
fixed	4	3	9	450420	6	1	1	1	0	728	14	0	750	317
fixed	4	4	0	454588	6	2	2	1	0	1589	14	0	1000	318
fixed	4	4	1	455727	9	1	1	1	0	1139	14	0	500	319
fixed	4	4	2	456668	8	0	0	1	0	940	14	0	650	320
fixed	4	4	3	457947	11	2	2	1	0	1278	14	0	900	321
fixed	4	4	4	459129	7	3	3	1	0	1181	14	0	1000	322
fixed	4	4	5	460206	9	1	1	1	0	1077	14	0	400	323
fixed	4	4	6	461370	10	2	2	1	0	1163	14	0	550	324
fixed	4	4	7	462467	8	0	0	1	0	1097	14	0	800	325
fixed	4	4	8	464251	7	3	3	1	0	1783	14	0	600	326
fixed	4	4	9	465188	6	1	1	1	0	937	14	0	750	327
fixed	4	5	0	466771	6	2	2	1	0	1199	14	0	1000	328
fixed	4	5	1	467927	9	1	1	1	0	1156	14	0	500	329
fixed	4	5	2	468903	8	0	0	1	0	975	14	0	650	330
fixed	4	5	3	469922	11	2	2	1	0	1019	14	0	900	331
fixed	4	5	4	469922	7	3	3	1	0	869	14	0	1000	332
fixed	4	5	5	472163	9	1	1	1	0	1238	14	0	400	333
fixed	4	5	6	473529	10	2	2	1	0	1366	14	0	550	334
fixed	4	5	7	474590	8	0	0	1	0	1060	14	0	800	335
fixed	4	5	8	475617	7	3	3	1	0	1027	14	0	600	336
fixed	4	5	9	476670	6	1	1	1	0	1053	14	0	750	337
fixed	4	6	0	478119	6	2	2	1	0	1066	14	0	1000	338
fixed	4	6	1	479436	9	1	1	1	0	1317	14	0	500	339
fixed	4	6	2	480470	8	0	0	1	0	1033	14	0	650	340
fixed	4	6	3	481610	11	2	2	1	0	1139	14	0	900	341
fixed	4	6	4	482693	7	3	3	1	0	1082	14	0	1000	342
fixed	4	6	5	483875	9	1	1	1	0	1182	14	0	400	343
fixed	4	6	6	485102	10	2	2	1	0	1226	14	0	550	344
fixed	4	6	7	486132	8	0	0	1	0	1030	14	0	800	345
fixed	4	6	8	487322	7	3	3	1	0	1190	14	0	600	346
fixed	4	6	9	487322	6	1	1	1	0	754	14	0	750	347
fixed	5	0	0	489602	5	2	2	1	0	1153	14	0	1000	348
fixed	5	0	1	490697	8	1	1	1	0	1094	14	0	500	349
fixed	5	0	2	491588	7	0	0	1	0	891	14	0	650	350
fixed	5	0	3	492685	10	2	2	1	0	1097	14	0	900	351
fixed	5	0	4	492685	6	3	3	1	0	867	14	0	1000	352
fixed	5	0	5	494769	8	1	1	1	0	1078	14	0	400	353
fixed	5	0	6	495813	9	2	2	1	0	1043	14	0	550	354
fixed	5	0	7	496863	7	0	0	1	0	1050	14	0	800	355
fixed	5	0	8	497970	6	3	3	1	0	1107	14	0	600	356
fixed	5	0	9	497970	5	1	1	1	0	716	14	0	750	357
fixed	5	1	0	497970	5	2	2	1	0	950	14	0	1000	358
fixed	5	1	1	500885	8	1	1	1	0	761	14	0	500	359
fixed	5	1	2	500885	7	0	0	1	0	650	14	0	650	360
fixed	5	1	3	500885	10	2	2	1	0	717	14	0	900	361
fixed	5	1	4	500885	6	3	3	1	0	769	14	0	1000	362
fixed	5	1	5	504202	8	1	1	1	0	735	14	0	400	363
fixed	5	1	6	505082	9	2	2	1	0	880	14	0	550	364
fixed	5	1	7	505082	7	0	0	1	0	753	14	0	800	365
fixed	5	1	8	506587	6	3	3	1	0	687	14	0	600	366
fixed	5	1	9	506587	5	1	1	1	0	732	14	0	750	367
fixed	5	2	0	509336	5	2	2	1	0	1584	14	0	1000	368
fixed	5	2	1	510167	8	1	1	1	0	831	14	0	500	369
fixed	5	2	2	511006	7	0	0	1	0	838	14	0	650	370
fixed	5	2	3	512117	10	2	2	1	0	1111	14	0	900	371
fixed	5	2	4	512117	6	3	3	1	0	685	14	0	1000	372
fixed	5	2	5	513804	8	1	1	1	0	683	14	0	400	373
fixed	5	2	6	514567	9	2	2	1	0	763	14	0	550	374
fixed	5	2	7	514567	7	0	0	1	0	604	14	0	800	375
fixed	5	2	8	514567	6	3	3	1	0	438	14	0	600	376
fixed	5	2	9	514567	5	1	1	1	0	583	14	0	750	377
fixed	5	3	0	518301	5	2	2	1	0	1166	14	0	1000	378
fixed	5	3	1	519418	8	1	1	1	0	1117	14	0	500	379
fixed	5	3	2	519418	7	0	0	1	0	652	14	0	650	380
fixed	5	3	3	521204	10	2	2	1	0	1132	14	0	900	381
fixed	5	3	4	521204	6	3	3	1	0	899	14	0	1000	382
fixed	5	3	5	523489	8	1	1	1	0	1270	14	0	400	383
fixed	5	3	6	524423	9	2	2	1	0	933	14	0	550	384
fixed	5	3	7	525336	7	0	0	1	0	913	14	0	800	385
fixed	5	3	8	526415	6	3	3	1	0	1079	14	0	600	386
fixed	5	3	9	526415	5	1	1	1	0	771	14	0	750	387
fixed	5	4	0	528771	5	2	2	1	0	1182	14	0	1000	388
fixed	5	4	1	529838	8	1	1	1	0	1067	14	0	500	389
fixed	5	4	2	530738	7	0	0	1	0	900	14	0	650	390
fixed	5	4	3	531769	10	2	2	1	0	1030	14	0	900	391
fixed	5	4	4	531769	6	3	3	1	0	949	14	0	1000	392
fixed	5	4	5	533904	8	1	1	1	0	1134	14	0	400	393
fixed	5	4	6	534870	9	2	2	1	0	966	14	0	550	394
fixed	5	4	7	535902	7	0	0	1	0	1032	14	0	800	395
fixed	5	4	8	536933	6	3	3	1	0	1031	14	0	600	396
fixed	5	4	9	536933	5	1	2	1	0	750	14	0	750	396
fixed	5	5	0	539188	5	2	2	1	0	1104	14	0	1000	397
fixed	5	5	1	540386	8	1	1	1	0	1198	14	0	500	398
fixed	5	5	2	540386	7	0	0	1	0	616	14	0	650	399
fixed	5	5	3	542223	10	2	2	1	0	1169	14	0	900	400
fixed	5	5	4	542223	6	3	3	1	0	983	14	0	1000	401
fixed	5	5	5	544686	8	1	1	1	0	1450	14	0	400	402
fixed	5	5	6	545922	9	2	2	1	0	1235	14	0	550	403
fixed	5	5	7	546896	7	0	0	1	0	974	14	0	800	404
fixed	5	5	8	548017	6	3	3	1	0	1121	14	0	600	405
fixed	5	5	9	548017	5	1	1	1	0	651	14	0	750	406
fixed	5	6	0	550237	5	2	2	1	0	1098	14	0	1000	407
fixed	5	6	1	551290	8	1	1	1	0	1053	14	0	500	408
fixed	5	6	2	552270	7	0	0	1	0	979	14	0	650	409
fixed	5	6	3	553357	10	2	2	1	0	1086	14	0	900	410
fixed	5	6	4	553357	6	3	3	1	0	871	14	0	1000	411
fixed	5	6	5	555306	8	1	1	1	0	919	14	0	400	412
fixed	5	6	6	555987	9	2	2	1	0	680	14	0	550	413
fixed	5	6	7	555987	7	0	0	1	0	689	14	0	800	414
fixed	5	6	8	558156	6	3	3	1	0	1351	14	0	600	415
fixed	5	6	9	559106	5	1	1	1	0	950	14	0	750	416
random	6	0	0	560718	5	3	3	1	0	1139	14	0	1000	417
random	6	0	1	561829	8	1	1	1	0	1111	14	0	550	418
random	6	0	2	562871	5	3	3	1	0	1042	14	0	900	419
random	6	0	3	563879	6	0	0	1	0	1008	14	0	750	420
random	6	0	4	564779	9	2	2	1	0	899	14	0	600	421
random	6	0	5	566157	4	0	0	1	0	1378	14	0	300	422
random	6	0	6	567603	7	1	1	1	0	1446	14	0	400	423
random	6	0	7	568967	4	2	2	1	0	1364	14	0	1000	424
random	6	0	8	569971	8	3	3	1	0	1003	14	0	500	425
random	6	0	9	571338	7	2	2	1	0	1367	14	0	800	426
random	6	1	0	572912	8	3	3	1	0	1194	14	0	650	427
random	6	1	1	573988	9	2	2	1	0	1076	14	0	600	428
random	6	1	2	574930	6	1	1	1	0	942	14	0	300	429
random	6	1	3	576033	5	2	2	1	0	1103	14	0	1000	430
random	6	1	4	577222	9	1	1	1	0	1188	14	0	900	431
random	6	1	5	578369	4	0	0	1	0	1147	14	0	800	432
random	6	1	6	579392	5	3	3	1	0	1024	14	0	750	433
random	6	1	7	580504	4	2	2	1	0	1111	14	0	400	434
random	6	1	8	580504	7	1	1	1	0	824	14	0	1000	435
random	6	1	9	582401	6	0	0	1	0	885	14	0	500	436
random	6	2	0	584184	4	1	1	1	0	1366	14	0	900	437
random	6	2	1	585257	8	0	0	1	0	1073	14	0	300	438
random	6	2	2	586305	9	3	3	1	0	1048	14	0	1000	439
random	6	2	3	587492	7	0	0	1	0	1186	14	0	550	440
random	6	2	4	588794	6	2	2	1	0	1302	14	0	1000	441
random	6	2	5	589787	5	1	1	1	0	992	14	0	400	442
random	6	2	6	590803	6	3	3	1	0	1016	14	0	600	443
random	6	2	7	592004	8	2	2	1	0	1201	14	0	500	444
random	6	2	8	593095	4	3	3	1	0	1090	14	0	750	445
random	6	2	9	594319	9	2	2	1	0	1224	14	0	650	446
random	6	3	0	595816	4	0	0	1	0	1130	14	0	900	447
random	6	3	1	596920	8	2	3	1	0	1103	14	0	300	447
random	6	3	2	598349	9	1	1	1	0	1428	14	0	1000	448
random	6	3	3	599492	7	3	3	1	0	1142	14	0	550	449
random	6	3	4	600688	6	1	1	1	0	1196	14	0	1000	450
random	6	3	5	601701	5	0	0	1	0	1012	14	0	400	451
random	6	3	6	602919	6	3	3	1	0	1217	14	0	600	452
random	6	3	7	603911	8	2	2	1	0	992	14	0	500	453
random	6	3	8	604902	4	1	1	1	0	990	14	0	750	454
random	6	3	9	605941	9	2	2	1	0	1038	14	0	650	455
random	6	4	0	607418	5	3	3	1	0	1074	14	0	500	456
random	6	4	1	608535	9	2	2	1	0	1117	14	0	600	457
random	6	4	2	609592	6	1	1	1	0	1057	14	0	900	458
random	6	4	3	609592	9	0	0	1	0	978	14	0	1000	459
random	6	4	4	611786	8	3	3	1	0	1169	14	0	650	460
random	6	4	5	612920	4	1	1	1	0	1133	14	0	550	461
random	6	4	6	614103	7	3	3	1	0	1182	14	0	800	462
random	6	4	7	615101	6	0	0	1	0	998	14	0	700	463
random	6	4	8	615101	8	2	2	1	0	1000	14	0	1000	464
random	6	4	9	617120	5	1	1	1	0	1019	14	0	300	465
random	6	5	0	617120	6	0	0	1	0	1003	14	0	1000	466
random	6	5	1	619685	8	2	2	1	0	1181	14	0	400	467
random	6	5	2	620789	4	3	3	1	0	1103	14	0	750	468
random	6	5	3	620789	8	1	1	1	0	849	14	0	900	469
random	6	5	4	622930	5	2	2	1	0	1210	14	0	300	470
random	6	5	5	623921	4	3	3	1	0	990	14	0	650	471
random	6	5	6	624989	7	0	0	1	0	1067	14	0	550	472
random	6	5	7	626002	9	2	2	1	0	1012	14	0	800	473
random	6	5	8	627079	7	1	1	1	0	1076	14	0	500	474
random	6	5	9	628286	6	0	0	1	0	1207	14	0	1000	475
random	6	6	0	629885	9	0	0	1	0	1206	14	0	1000	476
random	6	6	1	631121	6	2	2	1	0	1236	14	0	650	477
random	6	6	2	632370	9	1	1	1	0	1248	14	0	900	478
random	6	6	3	633672	8	2	2	1	0	1302	14	0	600	479
random	6	6	4	634925	6	0	0	1	0	1252	14	0	400	480
random	6	6	5	636042	8	3	3	1	0	1117	14	0	300	481
random	6	6	6	637221	5	1	1	1	0	1179	14	0	700	482
random	6	6	7	638324	4	3	3	1	0	1102	14	0	750	483
random	6	6	8	639381	7	1	1	1	0	1057	14	0	500	484
random	6	6	9	640520	5	2	2	1	0	1139	14	0	1000	485
fixed	7	0	0	640520	3	2	2	1	0	873	14	0	1000	486
fixed	7	0	1	642954	6	1	1	1	0	1013	14	0	500	487
fixed	7	0	2	643788	5	0	0	1	0	833	14	0	650	488
fixed	7	0	3	644992	8	2	2	1	0	1204	14	0	900	489
fixed	7	0	4	646073	4	3	3	1	0	1081	14	0	1000	490
fixed	7	0	5	647103	6	1	1	1	0	1029	14	0	400	491
fixed	7	0	6	648318	7	2	2	1	0	1215	14	0	550	492
fixed	7	0	7	649345	5	0	0	1	0	1027	14	0	800	493
fixed	7	0	8	650492	4	3	3	1	0	1147	14	0	600	494
fixed	7	0	9	651614	3	1	1	1	0	1121	14	0	750	495
fixed	7	1	0	651614	3	2	2	1	0	980	14	0	1000	496
fixed	7	1	1	653931	6	1	1	1	0	942	14	0	500	497
fixed	7	1	2	654890	5	0	0	1	0	958	14	0	650	498
fixed	7	1	3	655995	8	2	2	1	0	1105	14	0	900	499
fixed	7	1	4	657102	4	3	3	1	0	1107	14	0	1000	500
fixed	7	1	5	658224	6	1	1	1	0	1122	14	0	400	501
fixed	7	1	6	659704	7	2	2	1	0	1479	14	0	550	502
fixed	7	1	7	660636	5	0	0	1	0	932	14	0	800	503
fixed	7	1	8	661718	4	3	3	1	0	1082	14	0	600	504
fixed	7	1	9	662900	3	1	1	1	0	1181	14	0	750	505
fixed	7	2	0	662900	3	2	2	1	0	997	14	0	1000	506
fixed	7	2	1	665371	6	1	1	1	0	1050	14	0	500	507
fixed	7	2	2	666204	5	0	0	1	0	832	14	0	650	508
fixed	7	2	3	667173	8	2	2	1	0	968	14	0	900	509
fixed	7	2	4	667173	4	3	3	1	0	748	14	0	1000	510
fixed	7	2	5	669270	6	1	1	1	0	1075	14	0	400	511
fixed	7	2	6	670175	7	2	2	1	0	905	14	0	550	512
fixed	7	2	7	670175	5	0	0	1	0	829	14	0	800	513
fixed	7	2	8	672210	4	3	3	1	0	1205	14	0	600	514
fixed	7	2	9	673220	3	1	1	1	0	1010	14	0	750	515
fixed	7	3	0	673220	3	2	2	1	0	1001	14	0	1000	516
fixed	7	3	1	675689	6	1	1	1	0	1091	14	0	500	517
fixed	7	3	2	676651	5	0	0	1	0	962	14	0	650	518
fixed	7	3	3	676651	8	2	2	1	0	718	14	0	900	519
fixed	7	3	4	676651	4	3	3	1	0	733	14	0	1000	520
fixed	7	3	5	679472	6	1	1	1	0	884	14	0	400	521
fixed	7	3	6	680129	7	2	2	1	0	657	14	0	550	522
fixed	7	3	7	681098	5	0	0	1	0	969	14	0	800	523
fixed	7	3	8	682072	4	3	3	1	0	972	14	0	600	524
fixed	7	3	9	682072	3	1	1	1	0	716	14	0	750	525
fixed	7	4	0	682072	3	2	2	1	0	988	14	0	1000	526
fixed	7	4	1	685240	6	1	1	1	0	922	14	0	500	527
fixed	7	4	2	686078	5	0	0	1	0	837	14	0	650	528
fixed	7	4	3	687114	8	2	2	1	0	1036	14	0	900	529
fixed	7	4	4	687114	4	3	3	1	0	667	14	0	1000	530
fixed	7	4	5	688715	6	1	1	1	0	590	14	0	400	531
fixed	7	4	6	689390	7	2	2	1	0	675	14	0	550	532
fixed	7	4	7	690635	5	0	0	1	0	1244	14	0	800	533
fixed	7	4	8	691584	4	3	3	1	0	948	14	0	600	534
fixed	7	4	9	691584	3	1	1	1	0	659	14	0	750	535
fixed	7	5	0	693876	3	2	2	1	0	1077	14	0	1000	536
fixed	7	5	1	694770	6	1	1	1	0	894	14	0	500	537
fixed	7	5	2	694770	5	0	0	1	0	669	14	0	650	538
fixed	7	5	3	694770	8	2	2	1	0	772	14	0	900	539
fixed	7	5	4	694770	4	3	3	1	0	689	14	0	1000	540
fixed	7	5	5	698088	6	1	1	1	0	686	14	0	400	541
fixed	7	5	6	698700	7	2	2	1	0	612	14	0	550	542
fixed	7	5	7	699790	5	0	0	1	0	1089	14	0	800	543
fixed	7	5	8	700719	4	3	3	1	0	929	14	0	600	544
fixed	7	5	9	702702	3	1	1	1	0	1983	14	0	750	545
fixed	7	6	0	704124	3	2	2	1	0	1070	14	0	1000	546
fixed	7	6	1	705088	6	1	1	1	0	964	14	0	500	547
fixed	7	6	2	705769	5	0	0	1	0	680	14	0	650	548
fixed	7	6	3	706908	8	2	2	1	0	1140	14	0	900	549
fixed	7	6	4	706908	4	3	3	1	0	968	14	0	1000	550
fixed	7	6	5	709379	6	1	1	1	0	1464	14	0	400	551
fixed	7	6	6	710228	7	2	2	1	0	849	14	0	550	552
fixed	7	6	7	711136	5	0	0	1	0	907	14	0	800	553
fixed	7	6	8	712087	4	3	3	1	0	951	14	0	600	554
fixed	7	6	9	712087	3	1	1	1	0	705	14	0	750	555
