type	block	sequ.	trial	time	Pos.	Color	Button	NumRsp	Resp_1	RT_1	R_Code	Resp_2	RT_2	Trigg.	n_hit	n_inc	n_miss	score_%
random	0	0	0	92347	11	3	3	1	0	1130	14	0	1000	1
random	0	0	1	93246	14	1	1	1	0	899	14	0	550	2
random	0	0	2	93246	11	3	3	1	0	900	14	0	900	3
random	0	0	3	94947	12	0	0	1	0	784	14	0	750	4
random	0	0	4	95698	15	2	2	1	0	751	14	0	600	5
random	0	0	5	96495	10	0	0	1	0	797	14	0	300	6
random	0	0	6	97363	13	1	1	1	0	868	14	0	400	7
random	0	0	7	97363	10	2	2	1	0	867	14	0	1000	8
random	0	0	8	99547	14	3	3	1	0	1168	14	0	500	9
random	0	0	9	100513	13	2	2	1	0	966	14	0	800	10
random	0	1	0	102246	14	3	3	1	0	1384	14	0	650	11
random	0	1	1	103179	15	2	2	1	0	933	14	0	600	12
random	0	1	2	103977	12	1	1	1	0	798	14	0	300	13
random	0	1	3	103977	11	2	2	1	0	1017	14	0	1000	14
random	0	1	4	105943	15	1	0	1	0	949	14	0	900	14
random	0	1	5	105943	10	0	0	1	0	750	14	0	800	15
random	0	1	6	107544	11	3	3	1	0	799	14	0	750	16
random	0	1	7	108393	10	2	2	1	0	849	14	0	400	17
random	0	1	8	108393	13	1	1	1	0	750	14	0	1000	18
random	0	1	9	110008	12	0	0	1	0	599	14	0	500	19
random	0	2	0	111358	10	1	1	1	0	1015	14	0	900	20
random	0	2	1	112192	14	0	0	1	0	834	14	0	300	21
random	0	2	2	112192	15	3	3	1	0	849	14	0	1000	22
random	0	2	3	113926	13	0	0	1	0	732	14	0	550	23
random	0	2	4	113926	12	2	2	1	0	1018	14	0	1000	24
random	0	2	5	115843	11	1	1	1	0	900	14	0	400	25
random	0	2	6	116626	12	3	3	1	0	782	14	0	600	26
random	0	2	7	117291	14	2	2	1	0	666	14	0	500	27
random	0	2	8	118257	10	3	1	1	0	965	14	0	750	27
random	0	2	9	119393	15	2	3	1	0	1136	14	0	650	27
random	0	3	0	119393	10	0	0	1	0	863	14	0	900	28
random	0	3	1	121757	14	2	2	1	0	1101	14	0	300	29
random	0	3	2	121757	15	1	1	1	0	948	14	0	1000	30
random	0	3	3	121757	13	3	3	1	0	534	14	0	550	31
random	0	3	4	121757	12	1	1	1	0	863	14	0	1000	32
random	0	3	5	124889	11	0	0	1	0	549	14	0	400	33
random	0	3	6	126055	12	3	3	1	0	1166	14	0	600	34
random	0	3	7	126722	14	2	2	1	0	667	14	0	500	35
random	0	3	8	126722	10	1	1	1	0	666	14	0	750	36
random	0	3	9	126722	15	2	0	1	0	551	14	0	650	36
random	0	4	0	129537	11	3	3	1	0	1030	14	0	500	37
random	0	4	1	130438	15	2	2	1	0	901	14	0	600	38
random	0	4	2	131440	12	1	1	1	0	1002	14	0	900	39
random	0	4	3	131440	15	0	0	1	0	980	14	0	1000	40
random	0	4	4	133287	14	3	3	1	0	831	14	0	650	41
random	0	4	5	134086	10	1	1	1	0	799	14	0	550	42
random	0	4	6	134086	13	3	2	1	0	585	14	0	800	42
random	0	4	7	134086	12	0	0	1	0	632	14	0	700	43
random	0	4	8	134086	14	2	2	1	0	899	14	0	1000	44
random	0	4	9	137952	11	1	1	1	0	1349	14	0	300	45
random	0	5	0	137952	12	0	0	1	0	799	14	0	1000	46
random	0	5	1	140221	14	2	2	1	0	884	14	0	400	47
random	0	5	2	141171	10	3	3	1	0	950	14	0	750	48
random	0	5	3	141171	14	1	1	1	0	717	14	0	900	49
random	0	5	4	142802	11	2	2	1	0	715	14	0	300	50
random	0	5	5	143668	10	3	3	1	0	866	14	0	650	51
random	0	5	6	144403	13	0	0	1	0	735	14	0	550	52
random	0	5	7	145300	15	2	2	1	0	897	14	0	800	53
random	0	5	8	146019	13	1	0	1	0	719	14	0	500	53
random	0	5	9	146019	12	0	0	1	0	696	14	0	1000	54
random	0	6	0	146019	15	0	0	1	0	716	14	0	1000	55
random	0	6	1	149418	12	2	2	1	0	1002	14	0	650	56
random	0	6	2	149418	15	1	0	1	0	865	14	0	900	56
random	0	6	3	149418	14	2	1	1	0	85	14	0	600	56
random	0	6	4	151531	12	0	2	1	0	598	14	0	400	56
random	0	6	5	152816	14	3	3	1	0	1284	14	0	300	57
random	0	6	6	153683	11	1	1	1	0	867	14	0	700	58
random	0	6	7	153683	10	3	0	1	0	600	14	0	750	58
random	0	6	8	155433	13	1	2	1	0	985	14	0	500	58
random	0	6	9	155433	11	2	2	1	0	801	14	0	1000	59
fixed	1	0	0	155433	9	2	2	1	0	10	14	0	1000	60
fixed	1	0	1	155433	12	1	2	1	0	116	14	0	500	60
fixed	1	0	2	155433	11	0	1	1	0	431	14	0	650	60
fixed	1	0	3	165628	14	2	2	1	0	1483	14	0	900	61
fixed	1	0	4	166695	10	3	3	1	0	1067	14	0	1000	62
fixed	1	0	5	167447	12	1	1	1	0	752	14	0	400	63
fixed	1	0	6	168330	13	2	2	1	0	882	14	0	550	64
fixed	1	0	7	168330	11	0	0	1	0	518	14	0	800	65
fixed	1	0	8	170128	10	3	3	1	0	980	14	0	600	66
fixed	1	0	9	171011	9	1	1	1	0	883	14	0	750	67
fixed	1	1	0	171011	9	2	2	1	0	564	14	0	1000	68
fixed	1	1	1	173161	12	1	1	1	0	783	14	0	500	69
fixed	1	1	2	173927	11	0	0	1	0	766	14	0	650	70
fixed	1	1	3	173927	14	2	2	1	0	733	14	0	900	71
fixed	1	1	4	173927	10	3	3	1	0	532	14	0	1000	72
fixed	1	1	5	176711	12	1	1	1	0	851	14	0	400	73
fixed	1	1	6	177526	13	2	2	1	0	815	14	0	550	74
fixed	1	1	7	177526	11	0	0	1	0	569	14	0	800	75
fixed	1	1	8	179175	10	3	3	1	0	832	14	0	600	76
fixed	1	1	9	179175	9	1	1	1	0	769	14	0	750	77
fixed	1	2	0	179175	9	2	2	1	0	500	14	0	1000	78
fixed	1	2	1	182091	12	1	1	1	0	763	14	0	500	79
fixed	1	2	2	182944	11	0	0	1	0	853	14	0	650	80
fixed	1	2	3	182944	14	2	2	1	0	850	14	0	900	81
fixed	1	2	4	182944	10	3	1	1	0	618	14	0	1000	81
fixed	1	2	5	185761	12	1	1	1	0	902	14	0	400	82
fixed	1	2	6	186525	13	2	3	1	0	764	14	0	550	82
fixed	1	2	7	187426	11	0	1	1	0	901	14	0	800	82
fixed	1	2	8	187426	10	3	0	1	0	314	14	0	600	82
fixed	1	2	9	189224	9	1	1	1	0	1184	14	0	750	83
fixed	1	3	0	189224	9	2	2	1	0	865	14	0	1000	84
fixed	1	3	1	191138	12	1	1	1	0	580	14	0	500	85
fixed	1	3	2	191138	11	0	0	1	0	535	14	0	650	86
fixed	1	3	3	191138	14	2	3	1	0	583	14	0	900	86
fixed	1	3	4	191138	10	3	3	1	0	732	14	0	1000	87
fixed	1	3	5	194538	12	1	1	1	0	816	14	0	400	88
fixed	1	3	6	195405	13	2	2	1	0	867	14	0	550	89
fixed	1	3	7	195405	11	0	0	1	0	666	14	0	800	90
fixed	1	3	8	197090	10	3	3	1	0	868	14	0	600	91
fixed	1	3	9	197090	9	1	1	1	0	614	14	0	750	92
fixed	1	4	0	197090	9	2	2	1	0	581	14	0	1000	93
fixed	1	4	1	200103	12	1	1	1	0	880	14	0	500	94
fixed	1	4	2	200855	11	0	0	1	0	752	14	0	650	95
fixed	1	4	3	200855	14	2	2	1	0	866	14	0	900	96
fixed	1	4	4	200855	10	3	1	1	0	651	14	0	1000	96
fixed	1	4	5	203503	12	1	3	1	0	718	14	0	400	96
fixed	1	4	6	204436	13	2	2	1	0	933	14	0	550	97
fixed	1	4	7	205355	11	0	0	1	0	918	14	0	800	98
fixed	1	4	8	206002	10	3	2	1	0	648	14	0	600	98
fixed	1	4	9	206953	9	1	1	1	0	950	14	0	750	99
fixed	1	5	0	206953	9	2	2	1	0	985	14	0	1000	100
fixed	1	5	1	209118	12	1	1	1	0	782	14	0	500	101
fixed	1	5	2	209901	11	0	0	1	0	783	14	0	650	102
fixed	1	5	3	209901	14	2	2	1	0	769	14	0	900	103
fixed	1	5	4	209901	10	3	3	1	0	433	14	0	1000	104
fixed	1	5	5	212600	12	1	1	1	0	781	14	0	400	105
fixed	1	5	6	213419	13	2	2	1	0	819	14	0	550	106
fixed	1	5	7	213419	11	0	0	1	0	517	14	0	800	107
fixed	1	5	8	215033	10	3	3	1	0	799	14	0	600	108
fixed	1	5	9	215033	9	1	1	1	0	551	14	0	750	109
fixed	1	6	0	217383	9	2	2	1	0	1217	14	0	1000	110
fixed	1	6	1	217983	12	1	0	1	0	600	14	0	500	110
fixed	1	6	2	218783	11	0	0	1	0	800	14	0	650	111
fixed	1	6	3	218783	14	2	2	1	0	917	14	0	900	112
fixed	1	6	4	218783	10	3	3	1	0	919	14	0	1000	113
fixed	1	6	5	221482	12	1	1	1	0	764	14	0	400	114
fixed	1	6	6	221482	13	2	0	1	0	501	14	0	550	114
fixed	1	6	7	222948	11	0	0	1	0	897	14	0	800	115
fixed	1	6	8	223881	10	3	3	1	0	933	14	0	600	116
fixed	1	6	9	224833	9	1	2	1	0	952	14	0	750	116
fixed	2	0	0	231582	8	2	2	1	0	1104	14	0	1000	117
fixed	2	0	1	232131	11	1	1	1	0	548	14	0	500	118
fixed	2	0	2	232131	10	0	0	1	0	498	14	0	650	119
fixed	2	0	3	232131	13	2	3	1	0	782	14	0	900	119
fixed	2	0	4	232131	9	3	3	1	0	633	14	0	1000	120
fixed	2	0	5	235512	11	1	1	1	0	798	14	0	400	121
fixed	2	0	6	236096	12	2	2	1	0	584	14	0	550	122
fixed	2	0	7	236096	10	0	0	1	0	732	14	0	800	123
fixed	2	0	8	237761	9	3	3	1	0	850	14	0	600	124
fixed	2	0	9	237761	8	1	1	1	0	634	14	0	750	125
fixed	2	1	0	237761	8	2	2	1	0	817	14	0	1000	126
fixed	2	1	1	240693	11	1	1	1	0	815	14	0	500	127
fixed	2	1	2	240693	10	0	0	1	0	584	14	0	650	128
fixed	2	1	3	240693	13	2	2	1	0	749	14	0	900	129
fixed	2	1	4	240693	9	3	3	1	0	618	14	0	1000	130
fixed	2	1	5	244009	11	1	1	1	0	734	14	0	400	131
fixed	2	1	6	244893	12	2	3	1	0	884	14	0	550	131
fixed	2	1	7	245827	10	0	0	1	0	933	14	0	800	132
fixed	2	1	8	246643	9	3	2	1	0	816	14	0	600	132
fixed	2	1	9	246643	8	1	3	1	0	282	14	0	750	132
fixed	2	2	0	246643	8	2	2	1	0	899	14	0	1000	133
fixed	2	2	1	249327	11	1	1	1	0	565	14	0	500	134
fixed	2	2	2	249327	10	0	0	1	0	599	14	0	650	135
fixed	2	2	3	249327	13	2	2	1	0	782	14	0	900	136
fixed	2	2	4	249327	9	3	3	1	0	897	14	0	1000	137
fixed	2	2	5	252692	11	1	1	1	0	784	14	0	400	138
fixed	2	2	6	253724	12	2	2	1	0	1032	14	0	550	139
fixed	2	2	7	255042	10	0	0	1	0	1318	14	0	800	140
fixed	2	2	8	255824	9	3	3	1	0	782	14	0	600	141
fixed	2	2	9	256640	8	1	1	1	0	816	14	0	750	142
fixed	2	3	0	256640	8	2	2	1	0	532	14	0	1000	143
fixed	2	3	1	258805	11	1	1	1	0	782	14	0	500	144
fixed	2	3	2	259622	10	0	0	1	0	817	14	0	650	145
fixed	2	3	3	259622	13	2	2	1	0	819	14	0	900	146
fixed	2	3	4	259622	9	3	3	1	0	549	14	0	1000	147
fixed	2	3	5	262223	11	1	1	1	0	699	14	0	400	148
fixed	2	3	6	263005	12	2	2	1	0	782	14	0	550	149
fixed	2	3	7	263005	10	0	3	1	0	632	14	0	800	149
fixed	2	3	8	264571	9	3	3	1	0	750	14	0	600	150
fixed	2	3	9	265507	8	1	1	1	0	936	14	0	750	151
fixed	2	4	0	267254	8	2	2	1	0	1366	14	0	1000	152
fixed	2	4	1	268223	11	1	1	1	0	969	14	0	500	153
fixed	2	4	2	268223	10	0	0	1	0	581	14	0	650	154
fixed	2	4	3	268223	13	2	2	1	0	649	14	0	900	155
fixed	2	4	4	268223	9	3	3	1	0	400	14	0	1000	156
fixed	2	4	5	271538	11	1	1	1	0	733	14	0	400	157
fixed	2	4	6	272386	12	2	2	1	0	848	14	0	550	158
fixed	2	4	7	272386	10	0	0	1	0	650	14	0	800	159
fixed	2	4	8	274003	9	3	3	1	0	798	14	0	600	160
fixed	2	4	9	274003	8	1	1	1	0	716	14	0	750	161
fixed	2	5	0	274003	8	2	2	1	0	551	14	0	1000	162
fixed	2	5	1	276900	11	1	1	1	0	748	14	0	500	163
fixed	2	5	2	277605	10	0	0	1	0	705	14	0	650	164
fixed	2	5	3	277605	13	2	2	1	0	729	14	0	900	165
fixed	2	5	4	277605	9	3	3	1	0	600	14	0	1000	166
fixed	2	5	5	280184	11	1	1	1	0	664	14	0	400	167
fixed	2	5	6	280184	12	2	2	1	0	533	14	0	550	168
fixed	2	5	7	280184	10	0	0	1	0	350	14	0	800	169
fixed	2	5	8	282400	9	3	3	1	0	850	14	0	600	170
fixed	2	5	9	283300	8	1	2	1	0	899	14	0	750	170
fixed	2	6	0	283300	8	2	2	1	0	784	14	0	1000	171
fixed	2	6	1	285350	11	1	1	1	0	698	14	0	500	172
fixed	2	6	2	285350	10	0	2	1	0	501	14	0	650	172
fixed	2	6	3	285350	13	2	2	1	0	897	14	0	900	173
fixed	2	6	4	285350	9	3	3	1	0	831	14	0	1000	174
fixed	2	6	5	288832	11	1	1	1	0	883	14	0	400	175
fixed	2	6	6	289648	12	2	2	1	0	817	14	0	550	176
fixed	2	6	7	289648	10	0	0	1	0	536	14	0	800	177
fixed	2	6	8	291250	9	3	3	1	0	799	14	0	600	178
fixed	2	6	9	291250	8	1	1	1	0	750	14	0	750	179
fixed	3	0	0	291250	7	2	2	1	0	825	14	0	1000	180
fixed	3	0	1	294580	10	1	1	1	0	832	14	0	500	181
fixed	3	0	2	294580	9	0	0	1	0	633	14	0	650	182
fixed	3	0	3	296249	12	2	3	1	0	1000	14	0	900	182
fixed	3	0	4	296249	8	3	3	1	0	648	14	0	1000	183
fixed	3	0	5	298165	10	1	1	1	0	901	14	0	400	184
fixed	3	0	6	298763	11	2	2	1	0	598	14	0	550	185
fixed	3	0	7	298763	9	0	0	1	0	451	14	0	800	186
fixed	3	0	8	300280	8	3	3	1	0	700	14	0	600	187
fixed	3	0	9	301080	7	1	1	1	0	800	14	0	750	188
fixed	3	1	0	301080	7	2	2	1	0	500	14	0	1000	189
fixed	3	1	1	303162	10	1	1	1	0	700	14	0	500	190
fixed	3	1	2	303845	9	0	0	1	0	683	14	0	650	191
fixed	3	1	3	303845	12	2	2	1	0	802	14	0	900	192
fixed	3	1	4	303845	8	3	0	1	0	866	14	0	1000	192
fixed	3	1	5	306444	10	1	3	1	0	666	14	0	400	192
fixed	3	1	6	307529	11	2	2	1	0	1085	14	0	550	193
fixed	3	1	7	308397	9	0	0	1	0	868	14	0	800	194
fixed	3	1	8	309229	8	3	2	1	0	832	14	0	600	194
fixed	3	1	9	310196	7	1	1	1	0	966	14	0	750	195
fixed	3	2	0	310196	7	2	2	1	0	668	14	0	1000	196
fixed	3	2	1	312627	10	1	1	1	0	1049	14	0	500	197
fixed	3	2	2	313409	9	0	0	1	0	781	14	0	650	198
fixed	3	2	3	313409	12	2	2	1	0	884	14	0	900	199
fixed	3	2	4	315361	8	3	3	1	0	1051	14	0	1000	200
fixed	3	2	5	316142	10	1	1	1	0	781	14	0	400	201
fixed	3	2	6	317175	11	2	2	1	0	1033	14	0	550	202
fixed	3	2	7	317175	9	0	0	1	0	802	14	0	800	203
fixed	3	2	8	318676	8	3	2	1	0	700	14	0	600	203
fixed	3	2	9	319693	7	1	1	1	0	1017	14	0	750	204
fixed	3	3	0	319693	7	2	2	1	0	867	14	0	1000	205
fixed	3	3	1	322090	10	1	3	1	0	1015	14	0	500	205
fixed	3	3	2	323390	9	0	1	1	0	1300	14	0	650	205
fixed	3	3	3	324490	12	2	2	1	0	1100	14	0	900	206
fixed	3	3	4	324490	8	3	3	1	0	919	14	0	1000	207
fixed	3	3	5	326256	10	1	1	1	0	765	14	0	400	208
fixed	3	3	6	327173	11	2	2	1	0	917	14	0	550	209
fixed	3	3	7	327173	9	0	0	1	0	600	14	0	800	210
fixed	3	3	8	328806	8	3	3	1	0	831	14	0	600	211
fixed	3	3	9	330089	7	1	1	1	0	1282	14	0	750	212
fixed	3	4	0	331805	7	2	2	1	0	1350	14	0	1000	213
fixed	3	4	1	332471	10	1	1	1	0	666	14	0	500	214
fixed	3	4	2	332471	9	0	0	1	0	469	14	0	650	215
fixed	3	4	3	332471	12	2	2	1	0	833	14	0	900	216
fixed	3	4	4	332471	8	3	3	1	0	701	14	0	1000	217
fixed	3	4	5	335620	10	1	1	1	0	565	14	0	400	218
fixed	3	4	6	336520	11	2	2	1	0	900	14	0	550	219
fixed	3	4	7	336520	9	0	0	1	0	668	14	0	800	220
fixed	3	4	8	338072	8	3	2	1	0	749	14	0	600	220
fixed	3	4	9	338856	7	1	1	1	0	783	14	0	750	221
fixed	3	5	0	338856	7	2	2	1	0	884	14	0	1000	222
fixed	3	5	1	341138	10	1	1	1	0	898	14	0	500	223
fixed	3	5	2	342085	9	0	0	1	0	947	14	0	650	224
fixed	3	5	3	342085	12	2	2	1	0	770	14	0	900	225
fixed	3	5	4	342085	8	3	3	1	0	813	14	0	1000	226
fixed	3	5	5	344719	10	1	1	1	0	718	14	0	400	227
fixed	3	5	6	344719	11	2	0	1	0	499	14	0	550	227
fixed	3	5	7	346102	9	0	0	1	0	831	14	0	800	228
fixed	3	5	8	347569	8	3	3	1	0	1467	14	0	600	229
fixed	3	5	9	348618	7	1	1	1	0	1049	14	0	750	230
fixed	3	6	0	348618	7	2	2	1	0	930	14	0	1000	231
fixed	3	6	1	351269	10	1	1	1	0	1269	14	0	500	232
fixed	3	6	2	352134	9	0	1	1	0	865	14	0	650	232
fixed	3	6	3	352134	12	2	2	1	0	800	14	0	900	233
fixed	3	6	4	352134	8	3	3	1	0	883	14	0	1000	234
fixed	3	6	5	355132	10	1	1	1	0	1082	14	0	400	235
fixed	3	6	6	356115	11	2	2	1	0	983	14	0	550	236
fixed	3	6	7	356115	9	0	0	1	0	718	14	0	800	237
fixed	3	6	8	357599	8	3	2	1	0	666	14	0	600	237
fixed	3	6	9	358917	7	1	1	1	0	1317	14	0	750	238
fixed	4	0	0	358917	6	2	2	1	0	895	14	0	1000	239
fixed	4	0	1	366213	9	1	1	1	0	714	14	0	500	240
fixed	4	0	2	366980	8	0	0	1	0	766	14	0	650	241
fixed	4	0	3	367946	11	2	2	1	0	966	14	0	900	242
fixed	4	0	4	367946	7	3	3	1	0	767	14	0	1000	243
fixed	4	0	5	369612	9	1	1	1	0	665	14	0	400	244
fixed	4	0	6	370364	10	2	2	1	0	752	14	0	550	245
fixed	4	0	7	370364	8	0	0	1	0	666	14	0	800	246
fixed	4	0	8	371945	7	3	3	1	0	766	14	0	600	247
fixed	4	0	9	371945	6	1	1	1	0	602	14	0	750	248
fixed	4	1	0	371945	6	2	2	1	0	702	14	0	1000	249
fixed	4	1	1	374880	9	1	1	1	0	784	14	0	500	250
fixed	4	1	2	375579	8	0	0	1	0	700	14	0	650	251
fixed	4	1	3	375579	11	2	2	1	0	868	14	0	900	252
fixed	4	1	4	375579	7	3	3	1	0	749	14	0	1000	253
fixed	4	1	5	378346	9	1	1	1	0	833	14	0	400	254
fixed	4	1	6	378961	10	2	2	1	0	615	14	0	550	255
fixed	4	1	7	378961	8	0	1	1	0	665	14	0	800	255
fixed	4	1	8	378961	7	3	2	1	0	564	14	0	600	255
fixed	4	1	9	378961	6	1	3	1	0	335	14	0	750	255
fixed	4	2	0	378961	6	2	2	1	0	900	14	0	1000	256
fixed	4	2	1	383245	9	1	1	1	0	701	14	0	500	257
fixed	4	2	2	383245	8	0	0	1	0	530	14	0	650	258
fixed	4	2	3	383245	11	2	2	1	0	783	14	0	900	259
fixed	4	2	4	383245	7	3	3	1	0	635	14	0	1000	260
fixed	4	2	5	386691	9	1	0	1	0	867	14	0	400	260
fixed	4	2	6	387910	10	2	2	1	0	1219	14	0	550	261
fixed	4	2	7	387910	8	0	0	1	0	798	14	0	800	262
fixed	4	2	8	389406	7	3	2	1	0	683	14	0	600	262
fixed	4	2	9	390242	6	1	1	1	0	835	14	0	750	263
fixed	4	3	0	390242	6	2	2	1	0	797	14	0	1000	264
fixed	4	3	1	392256	9	1	1	1	0	649	14	0	500	265
fixed	4	3	2	393139	8	0	0	1	0	883	14	0	650	266
fixed	4	3	3	393139	11	2	2	1	0	902	14	0	900	267
fixed	4	3	4	393139	7	3	3	1	0	800	14	0	1000	268
fixed	4	3	5	395706	9	1	1	1	0	651	14	0	400	269
fixed	4	3	6	395706	10	2	0	1	0	517	14	0	550	269
fixed	4	3	7	395706	8	0	0	1	0	732	14	0	800	270
fixed	4	3	8	398308	7	3	2	1	0	1236	14	0	600	270
fixed	4	3	9	399238	6	1	1	1	0	930	14	0	750	271
fixed	4	4	0	399238	6	2	2	1	0	885	14	0	1000	272
fixed	4	4	1	401955	9	1	1	1	0	1334	14	0	500	273
fixed	4	4	2	401955	8	0	0	1	0	666	14	0	650	274
fixed	4	4	3	401955	11	2	2	1	0	649	14	0	900	275
fixed	4	4	4	401955	7	3	3	1	0	883	14	0	1000	276
fixed	4	4	5	405370	9	1	0	1	0	834	14	0	400	276
fixed	4	4	6	405370	10	2	1	1	0	249	14	0	550	276
fixed	4	4	7	405370	8	0	0	1	0	800	14	0	800	277
fixed	4	4	8	407738	7	3	3	1	0	1001	14	0	600	278
fixed	4	4	9	409503	6	1	1	1	0	1765	14	0	750	279
fixed	4	5	0	409503	6	2	2	1	0	799	14	0	1000	280
fixed	4	5	1	411854	9	1	1	1	0	1002	14	0	500	281
fixed	4	5	2	412587	8	0	0	1	0	733	14	0	650	282
fixed	4	5	3	412587	11	2	2	1	0	766	14	0	900	283
fixed	4	5	4	412587	7	3	3	1	0	751	14	0	1000	284
fixed	4	5	5	415268	9	1	1	1	0	748	14	0	400	285
fixed	4	5	6	415853	10	2	0	1	0	585	14	0	550	285
fixed	4	5	7	415853	8	0	0	1	0	715	14	0	800	286
fixed	4	5	8	417603	7	3	3	1	0	934	14	0	600	287
fixed	4	5	9	418485	6	1	0	1	0	882	14	0	750	287
fixed	4	6	0	418485	6	2	2	1	0	815	14	0	1000	288
fixed	4	6	1	420736	9	1	1	1	0	851	14	0	500	289
fixed	4	6	2	421616	8	0	0	1	0	879	14	0	650	290
fixed	4	6	3	421616	11	2	2	1	0	734	14	0	900	291
fixed	4	6	4	421616	7	3	3	1	0	599	14	0	1000	292
fixed	4	6	5	424301	9	1	1	1	0	768	14	0	400	293
fixed	4	6	6	425134	10	2	2	1	0	833	14	0	550	294
fixed	4	6	7	425134	8	0	0	1	0	698	14	0	800	295
fixed	4	6	8	426732	7	3	3	1	0	784	14	0	600	296
fixed	4	6	9	427548	6	1	1	1	0	816	14	0	750	297
fixed	5	0	0	427548	5	2	2	1	0	545	14	0	1000	298
fixed	5	0	1	431667	8	1	1	1	0	767	14	0	500	299
fixed	5	0	2	431667	7	0	0	1	0	582	14	0	650	300
fixed	5	0	3	433300	10	2	2	1	0	967	14	0	900	301
fixed	5	0	4	433300	6	3	3	1	0	780	14	0	1000	302
fixed	5	0	5	434996	8	1	1	1	0	683	14	0	400	303
fixed	5	0	6	435730	9	2	2	1	0	734	14	0	550	304
fixed	5	0	7	435730	7	0	0	1	0	668	14	0	800	305
fixed	5	0	8	437680	6	3	2	1	0	1135	14	0	600	305
fixed	5	0	9	438562	5	1	1	1	0	883	14	0	750	306
fixed	5	1	0	439978	5	2	2	1	0	1048	14	0	1000	307
fixed	5	1	1	440829	8	1	1	1	0	851	14	0	500	308
fixed	5	1	2	441713	7	0	0	1	0	884	14	0	650	309
fixed	5	1	3	442747	10	2	2	1	0	1034	14	0	900	310
fixed	5	1	4	442747	6	3	3	1	0	867	14	0	1000	311
fixed	5	1	5	444330	8	1	1	1	0	583	14	0	400	312
fixed	5	1	6	444947	9	2	0	1	0	617	14	0	550	312
fixed	5	1	7	444947	7	0	0	1	0	746	14	0	800	313
fixed	5	1	8	446494	6	3	2	1	0	731	14	0	600	313
fixed	5	1	9	447363	5	1	1	1	0	869	14	0	750	314
fixed	5	2	0	447363	5	2	2	1	0	935	14	0	1000	315
fixed	5	2	1	449494	8	1	1	1	0	734	14	0	500	316
fixed	5	2	2	449494	7	0	0	1	0	648	14	0	650	317
fixed	5	2	3	451211	10	2	2	1	0	1051	14	0	900	318
fixed	5	2	4	451211	6	3	3	1	0	581	14	0	1000	319
fixed	5	2	5	453058	8	1	1	1	0	833	14	0	400	320
fixed	5	2	6	453808	9	2	2	1	0	750	14	0	550	321
fixed	5	2	7	453808	7	0	0	1	0	800	14	0	800	322
fixed	5	2	8	455408	6	3	2	1	0	782	14	0	600	322
fixed	5	2	9	455408	5	1	3	1	0	233	14	0	750	322
fixed	5	3	0	455408	5	2	2	1	0	933	14	0	1000	323
fixed	5	3	1	458340	8	1	1	1	0	780	14	0	500	324
fixed	5	3	2	459273	7	0	0	1	0	933	14	0	650	325
fixed	5	3	3	459273	10	2	2	1	0	767	14	0	900	326
fixed	5	3	4	459273	6	3	3	1	0	748	14	0	1000	327
fixed	5	3	5	461924	8	1	1	1	0	734	14	0	400	328
fixed	5	3	6	462509	9	2	0	1	0	585	14	0	550	328
fixed	5	3	7	463406	7	0	0	1	0	898	14	0	800	329
fixed	5	3	8	464224	6	3	2	1	0	818	14	0	600	329
fixed	5	3	9	464224	5	1	3	1	0	266	14	0	750	329
fixed	5	4	0	464224	5	2	2	1	0	834	14	0	1000	330
fixed	5	4	1	467205	8	1	1	1	0	834	14	0	500	331
fixed	5	4	2	467205	7	0	0	1	0	518	14	0	650	332
fixed	5	4	3	467205	10	2	2	1	0	767	14	0	900	333
fixed	5	4	4	467205	6	3	3	1	0	850	14	0	1000	334
fixed	5	4	5	470754	8	1	1	1	0	950	14	0	400	335
fixed	5	4	6	471656	9	2	2	1	0	902	14	0	550	336
fixed	5	4	7	471656	7	0	0	1	0	698	14	0	800	337
fixed	5	4	8	473273	6	3	3	1	0	817	14	0	600	338
fixed	5	4	9	474137	5	1	1	1	0	864	14	0	750	339
fixed	5	5	0	475571	5	2	2	1	0	1082	14	0	1000	340
fixed	5	5	1	475571	8	1	3	1	0	34	14	0	500	340
fixed	5	5	2	475571	7	0	1	1	0	233	14	0	650	340
fixed	5	5	3	475571	10	2	0	1	0	66	14	0	900	340
fixed	5	5	4	475571	6	3	3	1	0	902	14	0	1000	341
fixed	5	5	5	479588	8	1	1	1	0	900	14	0	400	342
fixed	5	5	6	480334	9	2	2	1	0	746	14	0	550	343
fixed	5	5	7	480334	7	0	1	1	0	801	14	0	800	343
fixed	5	5	8	482434	6	3	3	1	0	1299	14	0	600	344
fixed	5	5	9	483317	5	1	0	1	0	882	14	0	750	344
fixed	5	6	0	483317	5	2	2	1	0	867	14	0	1000	345
fixed	5	6	1	485387	8	1	1	1	0	704	14	0	500	346
fixed	5	6	2	485387	7	0	0	1	0	646	14	0	650	347
fixed	5	6	3	485387	10	2	2	1	0	750	14	0	900	348
fixed	5	6	4	485387	6	3	3	1	0	750	14	0	1000	349
fixed	5	6	5	488601	8	1	1	1	0	633	14	0	400	350
fixed	5	6	6	489453	9	2	2	1	0	852	14	0	550	351
fixed	5	6	7	489453	7	0	0	1	0	746	14	0	800	352
fixed	5	6	8	491134	6	3	3	1	0	867	14	0	600	353
fixed	5	6	9	491134	5	1	1	1	0	715	14	0	750	354
random	6	0	0	491134	5	3	3	1	0	851	14	0	1000	355
random	6	0	1	498433	8	1	1	1	0	700	14	0	550	356
random	6	0	2	498433	5	3	3	1	0	798	14	0	900	357
random	6	0	3	500630	6	0	0	1	0	1282	14	0	750	358
random	6	0	4	501479	9	2	2	1	0	849	14	0	600	359
random	6	0	5	502280	4	0	0	1	0	801	14	0	300	360
random	6	0	6	503030	7	1	1	1	0	750	14	0	400	361
random	6	0	7	503030	4	2	2	1	0	900	14	0	1000	362
random	6	0	8	504762	8	3	3	1	0	732	14	0	500	363
random	6	0	9	505745	7	2	1	1	0	983	14	0	800	363
random	6	1	0	507280	8	3	3	1	0	1181	14	0	650	364
random	6	1	1	508312	9	2	2	1	0	1032	14	0	600	365
random	6	1	2	509029	6	1	1	1	0	717	14	0	300	366
random	6	1	3	509029	5	2	3	1	0	851	14	0	1000	366
random	6	1	4	511128	9	1	1	1	0	1083	14	0	900	367
random	6	1	5	511128	4	0	0	1	0	750	14	0	800	368
random	6	1	6	512811	5	3	3	1	0	868	14	0	750	369
random	6	1	7	513960	4	2	1	1	0	1149	14	0	400	369
random	6	1	8	515628	7	1	1	1	0	1667	14	0	1000	370
random	6	1	9	516477	6	0	0	1	0	849	14	0	500	371
random	6	2	0	516477	4	1	1	1	0	916	14	0	900	372
random	6	2	1	518928	8	0	0	1	0	1167	14	0	300	373
random	6	2	2	518928	9	3	2	1	0	751	14	0	1000	373
random	6	2	3	518928	7	0	3	1	0	267	14	0	550	373
random	6	2	4	518928	6	2	1	1	0	334	14	0	1000	373
random	6	2	5	518928	5	1	2	1	0	184	14	0	400	373
random	6	2	6	523378	6	3	3	1	0	1453	14	0	600	374
random	6	2	7	524291	8	2	2	1	0	913	14	0	500	375
random	6	2	8	525407	4	3	3	1	0	1115	14	0	750	376
random	6	2	9	526409	9	2	2	1	0	1002	14	0	650	377
random	6	3	0	526409	4	0	0	1	0	834	14	0	900	378
random	6	3	1	528625	8	2	2	1	0	932	14	0	300	379
random	6	3	2	529690	9	1	1	1	0	1065	14	0	1000	380
random	6	3	3	530474	7	3	3	1	0	784	14	0	550	381
random	6	3	4	530474	6	1	1	1	0	868	14	0	1000	382
random	6	3	5	532422	5	0	2	1	0	932	14	0	400	382
random	6	3	6	533505	6	3	3	1	0	1083	14	0	600	383
random	6	3	7	534506	8	2	2	1	0	1001	14	0	500	384
random	6	3	8	535906	4	1	2	1	0	1399	14	0	750	384
random	6	3	9	537288	9	2	1	1	0	1383	14	0	650	384
random	6	4	0	538637	5	3	3	1	0	997	14	0	500	385
random	6	4	1	539554	9	2	1	1	0	917	14	0	600	385
random	6	4	2	540789	6	1	1	1	0	1235	14	0	900	386
random	6	4	3	540789	9	0	0	1	0	834	14	0	1000	387
random	6	4	4	542873	8	3	3	1	0	1069	14	0	650	388
random	6	4	5	543972	4	1	1	1	0	1099	14	0	550	389
random	6	4	6	543972	7	3	3	1	0	699	14	0	800	390
random	6	4	7	545585	6	0	0	1	0	799	14	0	700	391
random	6	4	8	545585	8	2	2	1	0	919	14	0	1000	392
random	6	4	9	548052	5	1	1	1	0	1464	14	0	300	393
random	6	5	0	548052	6	0	0	1	0	816	14	0	1000	394
random	6	5	1	550020	8	2	2	1	0	565	14	0	400	395
random	6	5	2	550884	4	3	3	1	0	864	14	0	750	396
random	6	5	3	550884	8	1	1	1	0	701	14	0	900	397
random	6	5	4	552734	5	2	2	1	0	948	14	0	300	398
random	6	5	5	553918	4	3	3	1	0	1185	14	0	650	399
random	6	5	6	555016	7	0	0	1	0	1098	14	0	550	400
random	6	5	7	555884	9	2	2	1	0	868	14	0	800	401
random	6	5	8	556650	7	1	1	1	0	765	14	0	500	402
random	6	5	9	556650	6	0	0	1	0	716	14	0	1000	403
random	6	6	0	556650	9	0	0	1	0	784	14	0	1000	404
random	6	6	1	559882	6	2	2	1	0	866	14	0	650	405
random	6	6	2	559882	9	1	1	1	0	601	14	0	900	406
random	6	6	3	559882	8	2	3	1	0	601	14	0	600	406
random	6	6	4	562615	6	0	0	1	0	1215	14	0	400	407
random	6	6	5	563415	8	3	3	1	0	800	14	0	300	408
random	6	6	6	564431	5	1	1	1	0	1016	14	0	700	409
random	6	6	7	565614	4	3	3	1	0	1183	14	0	750	410
random	6	6	8	566480	7	1	1	1	0	867	14	0	500	411
random	6	6	9	567517	5	2	2	1	0	1037	14	0	1000	412
fixed	7	0	0	567517	3	2	2	1	0	899	14	0	1000	413
fixed	7	0	1	574963	6	1	1	1	0	851	14	0	500	414
fixed	7	0	2	574963	5	0	0	1	0	635	14	0	650	415
fixed	7	0	3	574963	8	2	2	1	0	817	14	0	900	416
fixed	7	0	4	574963	4	3	3	1	0	780	14	0	1000	417
fixed	7	0	5	578227	6	1	1	1	0	679	14	0	400	418
fixed	7	0	6	579044	7	2	2	1	0	817	14	0	550	419
fixed	7	0	7	579044	5	0	0	1	0	569	14	0	800	420
fixed	7	0	8	580647	4	3	3	1	0	802	14	0	600	421
fixed	7	0	9	582029	3	1	1	1	0	1382	14	0	750	422
fixed	7	1	0	582029	3	2	2	1	0	551	14	0	1000	423
fixed	7	1	1	584160	6	1	1	1	0	766	14	0	500	424
fixed	7	1	2	584927	5	0	0	1	0	767	14	0	650	425
fixed	7	1	3	584927	8	2	2	1	0	817	14	0	900	426
fixed	7	1	4	584927	4	3	3	1	0	852	14	0	1000	427
fixed	7	1	5	587726	6	1	1	1	0	867	14	0	400	428
fixed	7	1	6	588542	7	2	2	1	0	817	14	0	550	429
fixed	7	1	7	589392	5	0	0	1	0	849	14	0	800	430
fixed	7	1	8	590109	4	3	2	1	0	717	14	0	600	430
fixed	7	1	9	590942	3	1	2	1	0	832	14	0	750	430
fixed	7	2	0	590942	3	2	2	1	0	866	14	0	1000	431
fixed	7	2	1	592924	6	1	1	1	0	646	14	0	500	432
fixed	7	2	2	593660	5	0	0	1	0	735	14	0	650	433
fixed	7	2	3	593660	8	2	2	1	0	798	14	0	900	434
fixed	7	2	4	595590	4	3	3	1	0	1030	14	0	1000	435
fixed	7	2	5	596390	6	1	1	1	0	800	14	0	400	436
fixed	7	2	6	597256	7	2	2	1	0	866	14	0	550	437
fixed	7	2	7	597256	5	0	1	1	0	634	14	0	800	437
fixed	7	2	8	598873	4	3	2	1	0	797	14	0	600	437
fixed	7	2	9	600257	3	1	1	1	0	1384	14	0	750	438
fixed	7	3	0	600257	3	2	2	1	0	819	14	0	1000	439
fixed	7	3	1	602339	6	1	1	1	0	713	14	0	500	440
fixed	7	3	2	603024	5	0	0	1	0	685	14	0	650	441
fixed	7	3	3	603024	8	2	2	1	0	898	14	0	900	442
fixed	7	3	4	605175	4	3	3	1	0	1234	14	0	1000	443
fixed	7	3	5	606307	6	1	1	1	0	1132	14	0	400	444
fixed	7	3	6	607270	7	2	2	1	0	964	14	0	550	445
fixed	7	3	7	608221	5	0	0	1	0	950	14	0	800	446
fixed	7	3	8	609337	4	3	3	1	0	1116	14	0	600	447
fixed	7	3	9	610573	3	1	1	1	0	1237	14	0	750	448
fixed	7	4	0	610573	3	2	2	1	0	967	14	0	1000	449
fixed	7	4	1	612936	6	1	3	1	0	982	14	0	500	449
fixed	7	4	2	614618	5	0	0	1	0	1683	14	0	650	450
fixed	7	4	3	614618	8	2	2	1	0	683	14	0	900	451
fixed	7	4	4	614618	4	3	3	1	0	900	14	0	1000	452
fixed	7	4	5	617388	6	1	1	1	0	852	14	0	400	453
fixed	7	4	6	618285	7	2	2	1	0	896	14	0	550	454
fixed	7	4	7	618285	5	0	0	1	0	668	14	0	800	455
fixed	7	4	8	619903	4	3	3	1	0	799	14	0	600	456
fixed	7	4	9	621018	3	1	1	1	0	1115	14	0	750	457
fixed	7	5	0	621018	3	2	2	1	0	880	14	0	1000	458
fixed	7	5	1	623121	6	1	1	1	0	737	14	0	500	459
fixed	7	5	2	624050	5	0	0	1	0	929	14	0	650	460
fixed	7	5	3	624050	8	2	2	1	0	768	14	0	900	461
fixed	7	5	4	624050	4	3	3	1	0	754	14	0	1000	462
fixed	7	5	5	627250	6	1	1	1	0	1267	14	0	400	463
fixed	7	5	6	628084	7	2	2	1	0	833	14	0	550	464
fixed	7	5	7	628084	5	0	0	1	0	565	14	0	800	465
fixed	7	5	8	628084	4	3	3	1	0	596	14	0	600	466
fixed	7	5	9	630468	3	1	1	1	0	968	14	0	750	467
fixed	7	6	0	630468	3	2	2	1	0	1012	14	0	1000	468
fixed	7	6	1	632731	6	1	3	1	0	884	14	0	500	468
fixed	7	6	2	633731	5	0	0	1	0	1000	14	0	650	469
fixed	7	6	3	633731	8	2	2	1	0	884	14	0	900	470
fixed	7	6	4	633731	4	3	3	1	0	981	14	0	1000	471
fixed	7	6	5	636283	6	1	1	1	0	635	14	0	400	472
fixed	7	6	6	637847	7	2	2	1	0	1563	14	0	550	473
fixed	7	6	7	637847	5	0	0	1	0	784	14	0	800	474
fixed	7	6	8	639696	4	3	3	1	0	1031	14	0	600	475
fixed	7	6	9	640798	3	1	2	1	0	1102	14	0	750	475
