type	block	sequ.	trial	time	Pos.	Color	Button	NumRsp	Resp_1	RT_1	R_Code	Resp_2	RT_2	Trigg.	n_hit	n_inc	n_miss	score_%
random	0	0	0	141620	12	3	3	1	0	1214	14	0	1000	1
random	0	0	1	142669	15	1	2	1	0	1049	14	0	550	1
random	0	0	2	143618	12	3	3	1	0	949	14	0	900	2
random	0	0	3	144551	13	0	0	1	0	933	14	0	750	3
random	0	0	4	145434	16	2	2	1	0	882	14	0	600	4
random	0	0	5	146400	11	0	0	1	0	966	14	0	300	5
random	0	0	6	147416	14	1	2	1	0	1017	14	0	400	5
random	0	0	7	149116	11	2	2	1	0	1700	14	0	1000	6
random	0	0	8	150033	15	3	3	1	0	917	14	0	500	7
random	0	0	9	151216	14	2	2	1	0	1182	14	0	800	8
random	0	1	0	153532	15	3	3	1	0	1966	14	0	650	9
random	0	1	1	154715	16	2	2	1	0	1183	14	0	600	10
random	0	1	2	155831	13	1	1	1	0	1116	14	0	300	11
random	0	1	3	155831	12	2	2	1	0	1016	14	0	1000	12
random	0	1	4	158062	16	1	1	1	0	1215	14	0	900	13
random	0	1	5	159030	11	0	0	1	0	967	14	0	800	14
random	0	1	6	160297	12	3	3	1	0	1267	14	0	750	15
random	0	1	7	161196	11	2	2	1	0	899	14	0	400	16
random	0	1	8	162595	14	1	1	1	0	1400	14	0	1000	17
random	0	1	9	163511	13	0	0	1	0	916	14	0	500	18
random	0	2	0	165295	11	1	1	1	0	1450	14	0	900	19
random	0	2	1	166377	15	0	0	1	0	1082	14	0	300	20
random	0	2	2	166377	16	3	2	1	0	817	14	0	1000	20
random	0	2	3	169010	14	0	0	1	0	1617	14	0	550	21
random	0	2	4	170125	13	2	2	1	0	1116	14	0	1000	22
random	0	2	5	171176	12	1	1	1	0	1051	14	0	400	23
random	0	2	6	172442	13	3	3	1	0	1266	14	0	600	24
random	0	2	7	173358	15	2	2	1	0	916	14	0	500	25
random	0	2	8	174741	11	3	3	1	0	1383	14	0	750	26
random	0	2	9	175807	16	2	2	1	0	1065	14	0	650	27
random	0	3	0	175807	11	0	0	1	0	881	14	0	900	28
random	0	3	1	178040	15	2	2	1	0	984	14	0	300	29
random	0	3	2	178040	16	1	1	1	0	933	14	0	1000	30
random	0	3	3	180022	14	3	3	1	0	966	14	0	550	31
random	0	3	4	180022	13	1	1	1	0	1017	14	0	1000	32
random	0	3	5	181938	12	0	0	1	0	899	14	0	400	33
random	0	3	6	182771	13	3	2	1	0	833	14	0	600	33
random	0	3	7	183688	15	2	2	1	0	917	14	0	500	34
random	0	3	8	184721	11	1	0	1	0	1033	14	0	750	34
random	0	3	9	186354	16	2	2	1	0	1632	14	0	650	35
random	0	4	0	187719	12	3	3	1	0	1015	14	0	500	36
random	0	4	1	188619	16	2	2	1	0	900	14	0	600	37
random	0	4	2	189836	13	1	1	1	0	1216	14	0	900	38
random	0	4	3	190886	16	0	0	1	0	1051	14	0	1000	39
random	0	4	4	191951	15	3	3	1	0	1065	14	0	650	40
random	0	4	5	192918	11	1	1	1	0	967	14	0	550	41
random	0	4	6	194250	14	3	3	1	0	1332	14	0	800	42
random	0	4	7	195283	13	0	0	1	0	1033	14	0	700	43
random	0	4	8	196451	15	2	2	1	0	1167	14	0	1000	44
random	0	4	9	197450	12	1	1	1	0	999	14	0	300	45
random	0	5	0	198882	13	0	0	1	0	1082	14	0	1000	46
random	0	5	1	199699	15	2	2	1	0	817	14	0	400	47
random	0	5	2	200549	11	3	3	1	0	850	14	0	750	48
random	0	5	3	200549	15	1	1	1	0	882	14	0	900	49
random	0	5	4	202298	12	2	2	1	0	833	14	0	300	50
random	0	5	5	203264	11	3	3	1	0	966	14	0	650	51
random	0	5	6	204163	14	0	0	1	0	899	14	0	550	52
random	0	5	7	205047	16	2	2	1	0	883	14	0	800	53
random	0	5	8	205796	14	1	1	1	0	749	14	0	500	54
random	0	5	9	207196	13	0	0	1	0	1399	14	0	1000	55
random	0	6	0	207196	16	0	0	1	0	1001	14	0	1000	56
random	0	6	1	209462	13	2	2	1	0	916	14	0	650	57
random	0	6	2	210945	16	1	1	1	0	1483	14	0	900	58
random	0	6	3	211829	15	2	2	1	0	884	14	0	600	59
random	0	6	4	212777	13	0	0	1	0	948	14	0	400	60
random	0	6	5	213628	15	3	3	1	0	850	14	0	300	61
random	0	6	6	214611	12	1	1	1	0	983	14	0	700	62
random	0	6	7	215626	11	3	3	1	0	1015	14	0	750	63
random	0	6	8	216560	14	1	1	1	0	933	14	0	500	64
random	0	6	9	216560	12	2	2	1	0	683	14	0	1000	65
fixed	1	0	0	219710	10	2	2	1	0	1740	14	0	1000	66
fixed	1	0	1	220726	13	1	1	1	0	1016	14	0	500	67
fixed	1	0	2	221726	12	0	0	1	0	999	14	0	650	68
fixed	1	0	3	222658	15	2	2	1	0	932	14	0	900	69
fixed	1	0	4	223773	11	3	3	1	0	1115	14	0	1000	70
fixed	1	0	5	225240	13	1	1	1	0	1467	14	0	400	71
fixed	1	0	6	226040	14	2	2	1	0	799	14	0	550	72
fixed	1	0	7	227123	12	0	0	1	0	1084	14	0	800	73
fixed	1	0	8	227891	11	3	2	1	0	767	14	0	600	73
fixed	1	0	9	228923	10	1	1	1	0	1033	14	0	750	74
fixed	1	1	0	228923	10	2	2	1	0	832	14	0	1000	75
fixed	1	1	1	231205	13	1	1	1	0	917	14	0	500	76
fixed	1	1	2	232655	12	0	0	1	0	1450	14	0	650	77
fixed	1	1	3	232655	15	2	2	1	0	798	14	0	900	78
fixed	1	1	4	236087	11	3	-1	1	0	2500	14	0	1000	78
fixed	1	1	5	237338	13	1	3	1	0	1250	14	0	400	78
fixed	1	1	6	238370	14	2	1	1	0	1033	14	0	550	78
fixed	1	1	7	239704	12	0	0	1	0	1333	14	0	800	79
fixed	1	1	8	240819	11	3	2	1	0	1116	14	0	600	79
fixed	1	1	9	241835	10	1	1	1	0	1016	14	0	750	80
fixed	1	2	0	243852	10	2	2	1	0	1648	14	0	1000	81
fixed	1	2	1	244668	13	1	3	1	0	816	14	0	500	81
fixed	1	2	2	245717	12	0	0	1	0	1049	14	0	650	82
fixed	1	2	3	245717	15	2	2	1	0	748	14	0	900	83
fixed	1	2	4	245717	11	3	3	1	0	966	14	0	1000	84
fixed	1	2	5	248915	13	1	1	1	0	1265	14	0	400	85
fixed	1	2	6	249750	14	2	2	1	0	834	14	0	550	86
fixed	1	2	7	250766	12	0	0	1	0	1016	14	0	800	87
fixed	1	2	8	251764	11	3	3	1	0	999	14	0	600	88
fixed	1	2	9	252665	10	1	2	1	0	901	14	0	750	88
fixed	1	3	0	254397	10	2	2	1	0	1365	14	0	1000	89
fixed	1	3	1	255129	13	1	3	1	0	733	14	0	500	89
fixed	1	3	2	256396	12	0	0	1	0	1266	14	0	650	90
fixed	1	3	3	256396	15	2	2	1	0	684	14	0	900	91
fixed	1	3	4	256396	11	3	3	1	0	901	14	0	1000	92
fixed	1	3	5	259228	13	1	1	1	0	916	14	0	400	93
fixed	1	3	6	260012	14	2	2	1	0	784	14	0	550	94
fixed	1	3	7	260012	12	0	0	1	0	799	14	0	800	95
fixed	1	3	8	261644	11	3	3	1	0	816	14	0	600	96
fixed	1	3	9	262793	10	1	1	1	0	1149	14	0	750	97
fixed	1	4	0	262793	10	2	2	1	0	949	14	0	1000	98
fixed	1	4	1	264993	13	1	1	1	0	849	14	0	500	99
fixed	1	4	2	265960	12	0	0	1	0	967	14	0	650	100
fixed	1	4	3	265960	15	2	2	1	0	782	14	0	900	101
fixed	1	4	4	265960	11	3	3	1	0	801	14	0	1000	102
fixed	1	4	5	269060	13	1	1	1	0	1184	14	0	400	103
fixed	1	4	6	269825	14	2	3	1	0	765	14	0	550	103
fixed	1	4	7	270909	12	0	0	1	0	1084	14	0	800	104
fixed	1	4	8	271692	11	3	2	1	0	783	14	0	600	104
fixed	1	4	9	272791	10	1	1	1	0	1098	14	0	750	105
fixed	1	5	0	272791	10	2	2	1	0	784	14	0	1000	106
fixed	1	5	1	275740	13	1	1	1	0	1584	14	0	500	107
fixed	1	5	2	276640	12	0	0	1	0	899	14	0	650	108
fixed	1	5	3	277572	15	2	2	1	0	932	14	0	900	109
fixed	1	5	4	277572	11	3	3	1	0	734	14	0	1000	110
fixed	1	5	5	279489	13	1	1	1	0	901	14	0	400	111
fixed	1	5	6	280322	14	2	2	1	0	832	14	0	550	112
fixed	1	5	7	281387	12	0	0	1	0	1066	14	0	800	113
fixed	1	5	8	282288	11	3	3	1	0	900	14	0	600	114
fixed	1	5	9	283221	10	1	0	1	0	933	14	0	750	114
fixed	1	6	0	284670	10	2	2	1	0	1099	14	0	1000	115
fixed	1	6	1	285704	13	1	1	1	0	1033	14	0	500	116
fixed	1	6	2	286718	12	0	0	1	0	1014	14	0	650	117
fixed	1	6	3	286718	15	2	2	1	0	733	14	0	900	118
fixed	1	6	4	288686	11	3	3	1	0	1066	14	0	1000	119
fixed	1	6	5	289652	13	1	1	1	0	966	14	0	400	120
fixed	1	6	6	290401	14	2	2	1	0	749	14	0	550	121
fixed	1	6	7	291368	12	0	0	1	0	966	14	0	800	122
fixed	1	6	8	292134	11	3	3	1	0	766	14	0	600	123
fixed	1	6	9	293085	10	1	1	1	0	951	14	0	750	124
fixed	2	0	0	293085	9	2	2	1	0	930	14	0	1000	125
fixed	2	0	1	295450	12	1	1	1	0	999	14	0	500	126
fixed	2	0	2	296249	11	0	2	1	0	800	14	0	650	126
fixed	2	0	3	297232	14	2	2	1	0	983	14	0	900	127
fixed	2	0	4	297232	10	3	3	1	0	834	14	0	1000	128
fixed	2	0	5	299966	12	1	1	1	0	1718	14	0	400	129
fixed	2	0	6	300815	13	2	2	1	0	849	14	0	550	130
fixed	2	0	7	301831	11	0	0	1	0	1016	14	0	800	131
fixed	2	0	8	302913	10	3	3	1	0	1082	14	0	600	132
fixed	2	0	9	304380	9	1	1	1	0	1467	14	0	750	133
fixed	2	1	0	305880	9	2	2	1	0	1151	14	0	1000	134
fixed	2	1	1	306863	12	1	1	1	0	983	14	0	500	135
fixed	2	1	2	307862	11	0	0	1	0	999	14	0	650	136
fixed	2	1	3	307862	14	2	2	1	0	766	14	0	900	137
fixed	2	1	4	309812	10	3	3	1	0	1034	14	0	1000	138
fixed	2	1	5	310594	12	1	2	1	0	782	14	0	400	138
fixed	2	1	6	311412	13	2	2	1	0	817	14	0	550	139
fixed	2	1	7	311412	11	0	0	1	0	765	14	0	800	140
fixed	2	1	8	312994	10	3	3	1	0	767	14	0	600	141
fixed	2	1	9	312994	9	1	1	1	0	749	14	0	750	142
fixed	2	2	0	312994	9	2	2	1	0	917	14	0	1000	143
fixed	2	2	1	315859	12	1	1	1	0	732	14	0	500	144
fixed	2	2	2	316793	11	0	0	1	0	934	14	0	650	145
fixed	2	2	3	316793	14	2	2	1	0	749	14	0	900	146
fixed	2	2	4	318842	10	3	3	1	0	1133	14	0	1000	147
fixed	2	2	5	320492	12	1	1	1	0	1649	14	0	400	148
fixed	2	2	6	321141	13	2	2	1	0	649	14	0	550	149
fixed	2	2	7	322057	11	0	0	1	0	916	14	0	800	150
fixed	2	2	8	322841	10	3	3	1	0	784	14	0	600	151
fixed	2	2	9	322841	9	1	2	1	0	716	14	0	750	151
fixed	2	3	0	322841	9	2	2	1	0	484	14	0	1000	152
fixed	2	3	1	326006	12	1	1	1	0	1034	14	0	500	153
fixed	2	3	2	326939	11	0	0	1	0	933	14	0	650	154
fixed	2	3	3	326939	14	2	2	1	0	716	14	0	900	155
fixed	2	3	4	328955	10	3	3	1	0	1116	14	0	1000	156
fixed	2	3	5	330805	12	1	1	1	0	1849	14	0	400	157
fixed	2	3	6	331487	13	2	2	1	0	683	14	0	550	158
fixed	2	3	7	332437	11	0	0	1	0	949	14	0	800	159
fixed	2	3	8	333287	10	3	2	1	0	851	14	0	600	159
fixed	2	3	9	334154	9	1	0	1	0	866	14	0	750	159
fixed	2	4	0	336219	9	2	2	1	0	1717	14	0	1000	160
fixed	2	4	1	337452	12	1	1	1	0	1233	14	0	500	161
fixed	2	4	2	338351	11	0	0	1	0	898	14	0	650	162
fixed	2	4	3	338351	14	2	2	1	0	751	14	0	900	163
fixed	2	4	4	340435	10	3	3	1	0	1167	14	0	1000	164
fixed	2	4	5	341551	12	1	2	1	0	1116	14	0	400	164
fixed	2	4	6	342301	13	2	2	1	0	750	14	0	550	165
fixed	2	4	7	343150	11	0	0	1	0	850	14	0	800	166
fixed	2	4	8	343950	10	3	3	1	0	800	14	0	600	167
fixed	2	4	9	345066	9	1	1	1	0	1116	14	0	750	168
fixed	2	5	0	345066	9	2	2	1	0	984	14	0	1000	169
fixed	2	5	1	347999	12	1	1	1	0	1566	14	0	500	170
fixed	2	5	2	349064	11	0	2	1	0	1066	14	0	650	170
fixed	2	5	3	349064	14	2	2	1	0	733	14	0	900	171
fixed	2	5	4	349064	10	3	3	1	0	783	14	0	1000	172
fixed	2	5	5	351914	12	1	1	1	0	933	14	0	400	173
fixed	2	5	6	352914	13	2	2	1	0	1000	14	0	550	174
fixed	2	5	7	354029	11	0	0	1	0	1115	14	0	800	175
fixed	2	5	8	354879	10	3	3	1	0	850	14	0	600	176
fixed	2	5	9	357030	9	1	1	1	0	2150	14	0	750	177
fixed	2	6	0	357030	9	2	2	1	0	750	14	0	1000	178
fixed	2	6	1	359227	12	1	1	1	0	833	14	0	500	179
fixed	2	6	2	360062	11	0	0	1	0	835	14	0	650	180
fixed	2	6	3	360062	14	2	2	1	0	716	14	0	900	181
fixed	2	6	4	360062	10	3	3	1	0	717	14	0	1000	182
fixed	2	6	5	363026	12	1	1	1	0	1033	14	0	400	183
fixed	2	6	6	363710	13	2	2	1	0	684	14	0	550	184
fixed	2	6	7	363710	11	0	1	1	0	799	14	0	800	184
fixed	2	6	8	365476	10	3	3	1	0	949	14	0	600	185
fixed	2	6	9	365476	9	1	1	1	0	750	14	0	750	186
fixed	3	0	0	367875	8	2	2	1	0	1297	14	0	1000	187
fixed	3	0	1	368708	11	1	1	1	0	834	14	0	500	188
fixed	3	0	2	369792	10	0	0	1	0	1084	14	0	650	189
fixed	3	0	3	369792	13	2	2	1	0	732	14	0	900	190
fixed	3	0	4	369792	9	3	3	1	0	999	14	0	1000	191
fixed	3	0	5	373058	11	1	1	1	0	1333	14	0	400	192
fixed	3	0	6	373923	12	2	2	1	0	865	14	0	550	193
fixed	3	0	7	373923	10	0	0	1	0	749	14	0	800	194
fixed	3	0	8	375722	9	3	3	1	0	999	14	0	600	195
fixed	3	0	9	376506	8	1	2	1	0	784	14	0	750	195
fixed	3	1	0	376506	8	2	2	1	0	648	14	0	1000	196
fixed	3	1	1	379138	11	1	1	1	0	1248	14	0	500	197
fixed	3	1	2	380305	10	0	0	1	0	1167	14	0	650	198
fixed	3	1	3	381270	13	2	2	1	0	966	14	0	900	199
fixed	3	1	4	381270	9	3	3	1	0	1000	14	0	1000	200
fixed	3	1	5	383403	11	1	1	1	0	1132	14	0	400	201
fixed	3	1	6	384471	12	2	2	1	0	1068	14	0	550	202
fixed	3	1	7	385452	10	0	0	1	0	981	14	0	800	203
fixed	3	1	8	386803	9	3	2	1	0	1351	14	0	600	203
fixed	3	1	9	387885	8	1	1	1	0	1082	14	0	750	204
fixed	3	2	0	387885	8	2	2	1	0	784	14	0	1000	205
fixed	3	2	1	390351	11	1	1	1	0	1067	14	0	500	206
fixed	3	2	2	391301	10	0	0	1	0	950	14	0	650	207
fixed	3	2	3	391301	13	2	2	1	0	734	14	0	900	208
fixed	3	2	4	391301	9	3	3	1	0	900	14	0	1000	209
fixed	3	2	5	394399	11	1	1	1	0	1182	14	0	400	210
fixed	3	2	6	395332	12	2	2	1	0	933	14	0	550	211
fixed	3	2	7	396265	10	0	0	1	0	933	14	0	800	212
fixed	3	2	8	397182	9	3	2	1	0	917	14	0	600	212
fixed	3	2	9	398148	8	1	1	1	0	966	14	0	750	213
fixed	3	3	0	398148	8	2	2	1	0	817	14	0	1000	214
fixed	3	3	1	400297	11	1	1	1	0	799	14	0	500	215
fixed	3	3	2	401314	10	0	0	1	0	1016	14	0	650	216
fixed	3	3	3	401314	13	2	2	1	0	800	14	0	900	217
fixed	3	3	4	401314	9	3	3	1	0	883	14	0	1000	218
fixed	3	3	5	404312	11	1	1	1	0	1067	14	0	400	219
fixed	3	3	6	405061	12	2	2	1	0	749	14	0	550	220
fixed	3	3	7	405897	10	0	0	1	0	835	14	0	800	221
fixed	3	3	8	406661	9	3	3	1	0	764	14	0	600	222
fixed	3	3	9	407577	8	1	2	1	0	916	14	0	750	222
fixed	3	4	0	407577	8	2	2	1	0	484	14	0	1000	223
fixed	3	4	1	407577	11	1	2	1	0	317	14	0	500	223
fixed	3	4	2	411944	10	0	-1	1	0	2500	14	0	650	223
fixed	3	4	3	411944	13	2	2	1	0	899	14	0	900	224
fixed	3	4	4	414243	9	3	3	1	0	1383	14	0	1000	225
fixed	3	4	5	415359	11	1	1	1	0	1116	14	0	400	226
fixed	3	4	6	416325	12	2	2	1	0	966	14	0	550	227
fixed	3	4	7	417309	10	0	0	1	0	984	14	0	800	228
fixed	3	4	8	418292	9	3	2	1	0	983	14	0	600	228
fixed	3	4	9	419291	8	1	1	1	0	1000	14	0	750	229
fixed	3	5	0	419291	8	2	2	1	0	849	14	0	1000	230
fixed	3	5	1	421624	11	1	1	1	0	917	14	0	500	231
fixed	3	5	2	422557	10	0	0	1	0	933	14	0	650	232
fixed	3	5	3	422557	13	2	2	1	0	799	14	0	900	233
fixed	3	5	4	422557	9	3	3	1	0	733	14	0	1000	234
fixed	3	5	5	425390	11	1	1	1	0	918	14	0	400	235
fixed	3	5	6	426272	12	2	2	1	0	882	14	0	550	236
fixed	3	5	7	426272	10	0	0	1	0	683	14	0	800	237
fixed	3	5	8	427855	9	3	3	1	0	767	14	0	600	238
fixed	3	5	9	428771	8	1	1	1	0	916	14	0	750	239
fixed	3	6	0	430254	8	2	2	1	0	1149	14	0	1000	240
fixed	3	6	1	430987	11	1	1	1	0	734	14	0	500	241
fixed	3	6	2	431837	10	0	0	1	0	850	14	0	650	242
fixed	3	6	3	431837	13	2	2	1	0	865	14	0	900	243
fixed	3	6	4	431837	9	3	3	1	0	748	14	0	1000	244
fixed	3	6	5	434570	11	1	1	1	0	801	14	0	400	245
fixed	3	6	6	435470	12	2	2	1	0	900	14	0	550	246
fixed	3	6	7	436303	10	0	0	1	0	833	14	0	800	247
fixed	3	6	8	437151	9	3	3	1	0	848	14	0	600	248
fixed	3	6	9	438185	8	1	0	1	0	1034	14	0	750	248
fixed	4	0	0	438185	7	2	0	1	0	763	14	0	1000	248
fixed	4	0	1	440700	10	1	1	1	0	1150	14	0	500	249
fixed	4	0	2	441566	9	0	0	1	0	866	14	0	650	250
fixed	4	0	3	441566	12	2	2	1	0	851	14	0	900	251
fixed	4	0	4	443799	8	3	3	1	0	1316	14	0	1000	252
fixed	4	0	5	445549	10	1	1	1	0	1750	14	0	400	253
fixed	4	0	6	446215	11	2	2	1	0	666	14	0	550	254
fixed	4	0	7	447149	9	0	0	1	0	934	14	0	800	255
fixed	4	0	8	447915	8	3	3	1	0	766	14	0	600	256
fixed	4	0	9	448881	7	1	0	1	0	966	14	0	750	256
fixed	4	1	0	448881	7	2	0	1	0	666	14	0	1000	256
fixed	4	1	1	451346	10	1	1	1	0	1116	14	0	500	257
fixed	4	1	2	452197	9	0	0	1	0	850	14	0	650	258
fixed	4	1	3	452197	12	2	2	1	0	799	14	0	900	259
fixed	4	1	4	452197	8	3	3	1	0	916	14	0	1000	260
fixed	4	1	5	455162	10	1	1	1	0	1032	14	0	400	261
fixed	4	1	6	456129	11	2	0	1	0	966	14	0	550	261
fixed	4	1	7	457044	9	0	0	1	0	915	14	0	800	262
fixed	4	1	8	458028	8	3	3	1	0	983	14	0	600	263
fixed	4	1	9	458811	7	1	1	1	0	783	14	0	750	264
fixed	4	2	0	458811	7	2	2	1	0	850	14	0	1000	265
fixed	4	2	1	460960	10	1	1	1	0	784	14	0	500	266
fixed	4	2	2	462344	9	0	0	1	0	1384	14	0	650	267
fixed	4	2	3	462344	12	2	2	1	0	882	14	0	900	268
fixed	4	2	4	464943	8	3	3	1	0	1683	14	0	1000	269
fixed	4	2	5	465908	10	1	1	1	0	964	14	0	400	270
fixed	4	2	6	467125	11	2	2	1	0	1218	14	0	550	271
fixed	4	2	7	468625	9	0	0	1	0	1500	14	0	800	272
fixed	4	2	8	469408	8	3	2	1	0	783	14	0	600	272
fixed	4	2	9	470308	7	1	1	1	0	900	14	0	750	273
fixed	4	3	0	473189	7	2	-1	1	0	2500	14	0	1000	273
fixed	4	3	1	473189	10	1	2	1	0	299	14	0	500	273
fixed	4	3	2	475006	9	0	0	1	0	1316	14	0	650	274
fixed	4	3	3	475006	12	2	1	1	0	633	14	0	900	274
fixed	4	3	4	477205	8	3	3	1	0	1283	14	0	1000	275
fixed	4	3	5	477938	10	1	1	1	0	733	14	0	400	276
fixed	4	3	6	478739	11	2	2	1	0	800	14	0	550	277
fixed	4	3	7	479704	9	0	0	1	0	965	14	0	800	278
fixed	4	3	8	480555	8	3	3	1	0	851	14	0	600	279
fixed	4	3	9	481453	7	1	2	1	0	898	14	0	750	279
fixed	4	4	0	481453	7	2	2	1	0	934	14	0	1000	280
fixed	4	4	1	483685	10	1	1	1	0	866	14	0	500	281
fixed	4	4	2	484735	9	0	0	1	0	1051	14	0	650	282
fixed	4	4	3	485702	12	2	2	1	0	966	14	0	900	283
fixed	4	4	4	487035	8	3	3	1	0	1333	14	0	1000	284
fixed	4	4	5	488001	10	1	1	1	0	966	14	0	400	285
fixed	4	4	6	489017	11	2	2	1	0	1016	14	0	550	286
fixed	4	4	7	490101	9	0	0	1	0	1084	14	0	800	287
fixed	4	4	8	491100	8	3	3	1	0	999	14	0	600	288
fixed	4	4	9	491949	7	1	1	1	0	849	14	0	750	289
fixed	4	5	0	491949	7	2	2	1	0	950	14	0	1000	290
fixed	4	5	1	494083	10	1	1	1	0	767	14	0	500	291
fixed	4	5	2	495015	9	0	0	1	0	932	14	0	650	292
fixed	4	5	3	495015	12	2	2	1	0	833	14	0	900	293
fixed	4	5	4	495015	8	3	3	1	0	633	14	0	1000	294
fixed	4	5	5	497865	10	1	1	1	0	934	14	0	400	295
fixed	4	5	6	498897	11	2	2	1	0	1032	14	0	550	296
fixed	4	5	7	499964	9	0	0	1	0	1067	14	0	800	297
fixed	4	5	8	501147	8	3	3	1	0	1183	14	0	600	298
fixed	4	5	9	502097	7	1	1	1	0	950	14	0	750	299
fixed	4	6	0	503978	7	2	2	1	0	1533	14	0	1000	300
fixed	4	6	1	504812	10	1	1	1	0	834	14	0	500	301
fixed	4	6	2	505511	9	0	0	1	0	699	14	0	650	302
fixed	4	6	3	505511	12	2	2	1	0	850	14	0	900	303
fixed	4	6	4	505511	8	3	3	1	0	717	14	0	1000	304
fixed	4	6	5	508260	10	1	0	1	0	815	14	0	400	304
fixed	4	6	6	509310	11	2	2	1	0	1050	14	0	550	305
fixed	4	6	7	510394	9	0	0	1	0	1084	14	0	800	306
fixed	4	6	8	511127	8	3	3	1	0	733	14	0	600	307
fixed	4	6	9	512009	7	1	1	1	0	882	14	0	750	308
fixed	5	0	0	513376	6	2	2	1	0	1030	14	0	1000	309
fixed	5	0	1	514441	9	1	1	1	0	1066	14	0	500	310
fixed	5	0	2	515359	8	0	0	1	0	917	14	0	650	311
fixed	5	0	3	515359	11	2	2	1	0	750	14	0	900	312
fixed	5	0	4	515359	7	3	3	1	0	783	14	0	1000	313
fixed	5	0	5	518140	9	1	1	1	0	849	14	0	400	314
fixed	5	0	6	519141	10	2	2	1	0	1001	14	0	550	315
fixed	5	0	7	519990	8	0	1	1	0	849	14	0	800	315
fixed	5	0	8	520907	7	3	2	1	0	917	14	0	600	315
fixed	5	0	9	522588	6	1	1	1	0	1681	14	0	750	316
fixed	5	1	0	524922	6	2	2	1	0	1965	14	0	1000	317
fixed	5	1	1	525671	9	1	1	1	0	749	14	0	500	318
fixed	5	1	2	526472	8	0	0	1	0	800	14	0	650	319
fixed	5	1	3	526472	11	2	2	1	0	784	14	0	900	320
fixed	5	1	4	526472	7	3	3	1	0	733	14	0	1000	321
fixed	5	1	5	529373	9	1	1	1	0	985	14	0	400	322
fixed	5	1	6	530204	10	2	2	1	0	831	14	0	550	323
fixed	5	1	7	531087	8	0	0	1	0	883	14	0	800	324
fixed	5	1	8	531836	7	3	3	1	0	750	14	0	600	325
fixed	5	1	9	532770	6	1	0	1	0	933	14	0	750	325
fixed	5	2	0	532770	6	2	0	1	0	699	14	0	1000	325
fixed	5	2	1	534968	9	1	0	1	0	832	14	0	500	325
fixed	5	2	2	535819	8	0	0	1	0	850	14	0	650	326
fixed	5	2	3	535819	11	2	2	1	0	799	14	0	900	327
fixed	5	2	4	535819	7	3	3	1	0	733	14	0	1000	328
fixed	5	2	5	538650	9	1	1	1	0	899	14	0	400	329
fixed	5	2	6	539450	10	2	2	1	0	800	14	0	550	330
fixed	5	2	7	540366	8	0	0	1	0	915	14	0	800	331
fixed	5	2	8	541165	7	3	2	1	0	799	14	0	600	331
fixed	5	2	9	542866	6	1	1	1	0	1701	14	0	750	332
fixed	5	3	0	542866	6	2	2	1	0	799	14	0	1000	333
fixed	5	3	1	545232	9	1	1	1	0	999	14	0	500	334
fixed	5	3	2	546548	8	0	0	1	0	1316	14	0	650	335
fixed	5	3	3	548097	11	2	2	1	0	1549	14	0	900	336
fixed	5	3	4	548097	7	3	3	1	0	833	14	0	1000	337
fixed	5	3	5	550729	9	1	1	1	0	1632	14	0	400	338
fixed	5	3	6	551546	10	2	2	1	0	816	14	0	550	339
fixed	5	3	7	552679	8	0	0	1	0	1133	14	0	800	340
fixed	5	3	8	553879	7	3	3	1	0	1200	14	0	600	341
fixed	5	3	9	555029	6	1	1	1	0	1150	14	0	750	342
fixed	5	4	0	555029	6	2	2	1	0	798	14	0	1000	343
fixed	5	4	1	557593	9	1	0	1	0	1198	14	0	500	343
fixed	5	4	2	558478	8	0	0	1	0	884	14	0	650	344
fixed	5	4	3	558478	11	2	2	1	0	766	14	0	900	345
fixed	5	4	4	558478	7	3	3	1	0	635	14	0	1000	346
fixed	5	4	5	561477	9	1	1	1	0	1084	14	0	400	347
fixed	5	4	6	562259	10	2	2	1	0	782	14	0	550	348
fixed	5	4	7	563258	8	0	0	1	0	999	14	0	800	349
fixed	5	4	8	564008	7	3	3	1	0	750	14	0	600	350
fixed	5	4	9	564975	6	1	1	1	0	967	14	0	750	351
fixed	5	5	0	566559	6	2	2	1	0	1250	14	0	1000	352
fixed	5	5	1	568174	9	1	1	1	0	1616	14	0	500	353
fixed	5	5	2	569523	8	0	0	1	0	1348	14	0	650	354
fixed	5	5	3	569523	11	2	2	1	0	867	14	0	900	355
fixed	5	5	4	569523	7	3	3	1	0	865	14	0	1000	356
fixed	5	5	5	572323	9	1	1	1	0	885	14	0	400	357
fixed	5	5	6	573255	10	2	2	1	0	932	14	0	550	358
fixed	5	5	7	574139	8	0	0	1	0	884	14	0	800	359
fixed	5	5	8	574920	7	3	3	1	0	781	14	0	600	360
fixed	5	5	9	576074	6	1	1	1	0	1153	14	0	750	361
fixed	5	6	0	576074	6	2	3	1	0	785	14	0	1000	361
fixed	5	6	1	579188	9	1	0	1	0	1732	14	0	500	361
fixed	5	6	2	579937	8	0	0	1	0	749	14	0	650	362
fixed	5	6	3	579937	11	2	2	1	0	765	14	0	900	363
fixed	5	6	4	579937	7	3	3	1	0	701	14	0	1000	364
fixed	5	6	5	582786	9	1	1	1	0	933	14	0	400	365
fixed	5	6	6	583634	10	2	2	1	0	849	14	0	550	366
fixed	5	6	7	584569	8	0	1	1	0	935	14	0	800	366
fixed	5	6	8	586018	7	3	3	1	0	1449	14	0	600	367
fixed	5	6	9	586851	6	1	1	1	0	833	14	0	750	368
random	6	0	0	586851	6	3	3	1	0	930	14	0	1000	369
random	6	0	1	589100	9	1	1	1	0	882	14	0	550	370
random	6	0	2	589100	6	3	3	1	0	684	14	0	900	371
random	6	0	3	591049	7	0	0	1	0	1049	14	0	750	372
random	6	0	4	591899	10	2	3	1	0	850	14	0	600	372
random	6	0	5	593134	5	0	0	1	0	1234	14	0	300	373
random	6	0	6	594282	8	1	1	1	0	1148	14	0	400	374
random	6	0	7	594282	5	2	2	1	0	817	14	0	1000	375
random	6	0	8	596215	9	3	3	1	0	932	14	0	500	376
random	6	0	9	596215	8	2	2	1	0	749	14	0	800	377
random	6	1	0	598347	9	3	3	1	0	967	14	0	650	378
random	6	1	1	599213	10	2	2	1	0	866	14	0	600	379
random	6	1	2	600163	7	1	1	1	0	950	14	0	300	380
random	6	1	3	601312	6	2	2	1	0	1149	14	0	1000	381
random	6	1	4	601312	10	1	1	1	0	866	14	0	900	382
random	6	1	5	603095	5	0	0	1	0	867	14	0	800	383
random	6	1	6	603912	6	3	3	1	0	817	14	0	750	384
random	6	1	7	604811	5	2	2	1	0	898	14	0	400	385
random	6	1	8	604811	8	1	1	1	0	1000	14	0	1000	386
random	6	1	9	606593	7	0	0	1	0	782	14	0	500	387
random	6	2	0	608393	5	1	1	1	0	1432	14	0	900	388
random	6	2	1	609361	9	0	0	1	0	968	14	0	300	389
random	6	2	2	609361	10	3	3	1	0	832	14	0	1000	390
random	6	2	3	611343	8	0	0	1	0	966	14	0	550	391
random	6	2	4	612392	7	2	2	1	0	1049	14	0	1000	392
random	6	2	5	613425	6	1	1	1	0	1033	14	0	400	393
random	6	2	6	614375	7	3	3	1	0	950	14	0	600	394
random	6	2	7	615258	9	2	2	1	0	883	14	0	500	395
random	6	2	8	616257	5	3	3	1	0	1000	14	0	750	396
random	6	2	9	617175	10	2	2	1	0	918	14	0	650	397
random	6	3	0	618558	5	0	0	1	0	1034	14	0	900	398
random	6	3	1	619440	9	2	2	1	0	882	14	0	300	399
random	6	3	2	619440	10	1	1	1	0	1000	14	0	1000	400
random	6	3	3	621206	8	3	2	1	0	766	14	0	550	400
random	6	3	4	622722	7	1	1	1	0	1516	14	0	1000	401
random	6	3	5	623555	6	0	0	1	0	832	14	0	400	402
random	6	3	6	624504	7	3	3	1	0	949	14	0	600	403
random	6	3	7	625322	9	2	2	1	0	818	14	0	500	404
random	6	3	8	626270	5	1	1	1	0	948	14	0	750	405
random	6	3	9	627104	10	2	3	1	0	834	14	0	650	405
random	6	4	0	628320	6	3	3	1	0	850	14	0	500	406
random	6	4	1	629170	10	2	2	1	0	850	14	0	600	407
random	6	4	2	629170	7	1	0	1	0	833	14	0	900	407
random	6	4	3	629170	10	0	0	1	0	734	14	0	1000	408
random	6	4	4	631935	9	3	3	1	0	849	14	0	650	409
random	6	4	5	633018	5	1	1	1	0	1083	14	0	550	410
random	6	4	6	633018	8	3	2	1	0	817	14	0	800	410
random	6	4	7	634884	7	0	0	1	0	1049	14	0	700	411
random	6	4	8	634884	9	2	2	1	0	750	14	0	1000	412
random	6	4	9	636934	6	1	1	1	0	1048	14	0	300	413
random	6	5	0	638366	7	0	0	1	0	1099	14	0	1000	414
random	6	5	1	639665	9	2	2	1	0	1299	14	0	400	415
random	6	5	2	640632	5	3	3	1	0	967	14	0	750	416
random	6	5	3	641616	9	1	1	1	0	983	14	0	900	417
random	6	5	4	642433	6	2	3	1	0	817	14	0	300	417
random	6	5	5	643749	5	3	2	1	0	1316	14	0	650	417
random	6	5	6	645764	8	0	1	1	0	2015	14	0	550	417
random	6	5	7	646697	10	2	2	1	0	933	14	0	800	418
random	6	5	8	647680	8	1	1	1	0	983	14	0	500	419
random	6	5	9	647680	7	0	0	1	0	783	14	0	1000	420
random	6	6	0	647680	10	0	0	1	0	733	14	0	1000	421
random	6	6	1	647680	7	2	3	1	0	634	14	0	650	421
random	6	6	2	652312	10	1	1	1	0	1600	14	0	900	422
random	6	6	3	653079	9	2	2	1	0	767	14	0	600	423
random	6	6	4	653911	7	0	0	1	0	832	14	0	400	424
random	6	6	5	654711	9	3	3	1	0	800	14	0	300	425
random	6	6	6	655694	6	1	1	1	0	983	14	0	700	426
random	6	6	7	655694	5	3	3	1	0	715	14	0	750	427
random	6	6	8	657328	8	1	1	1	0	867	14	0	500	428
random	6	6	9	657328	6	2	2	1	0	783	14	0	1000	429
fixed	7	0	0	657328	4	2	2	1	0	679	14	0	1000	430
fixed	7	0	1	660675	7	1	1	1	0	982	14	0	500	431
fixed	7	0	2	661559	6	0	0	1	0	884	14	0	650	432
fixed	7	0	3	661559	9	2	2	1	0	732	14	0	900	433
fixed	7	0	4	661559	5	3	3	1	0	749	14	0	1000	434
fixed	7	0	5	664174	7	1	1	1	0	683	14	0	400	435
fixed	7	0	6	664990	8	2	2	1	0	816	14	0	550	436
fixed	7	0	7	666273	6	0	0	1	0	1283	14	0	800	437
fixed	7	0	8	666940	5	3	3	1	0	666	14	0	600	438
fixed	7	0	9	667956	4	1	1	1	0	1016	14	0	750	439
fixed	7	1	0	667956	4	2	2	1	0	866	14	0	1000	440
fixed	7	1	1	670789	7	1	1	1	0	1483	14	0	500	441
fixed	7	1	2	671621	6	0	0	1	0	832	14	0	650	442
fixed	7	1	3	671621	9	2	2	1	0	868	14	0	900	443
fixed	7	1	4	673589	5	3	3	1	0	1051	14	0	1000	444
fixed	7	1	5	674456	7	1	1	1	0	867	14	0	400	445
fixed	7	1	6	675271	8	2	2	1	0	815	14	0	550	446
fixed	7	1	7	676105	6	0	0	1	0	834	14	0	800	447
fixed	7	1	8	676871	5	3	3	1	0	766	14	0	600	448
fixed	7	1	9	678052	4	1	1	1	0	1181	14	0	750	449
fixed	7	2	0	678052	4	2	2	1	0	766	14	0	1000	450
fixed	7	2	1	680202	7	1	1	1	0	799	14	0	500	451
fixed	7	2	2	681153	6	0	0	1	0	951	14	0	650	452
fixed	7	2	3	681153	9	2	2	1	0	816	14	0	900	453
fixed	7	2	4	683385	5	3	3	1	0	1316	14	0	1000	454
fixed	7	2	5	684185	7	1	1	1	0	800	14	0	400	455
fixed	7	2	6	684984	8	2	2	1	0	799	14	0	550	456
fixed	7	2	7	685816	6	0	0	1	0	832	14	0	800	457
fixed	7	2	8	686567	5	3	3	1	0	751	14	0	600	458
fixed	7	2	9	687566	4	1	1	1	0	999	14	0	750	459
fixed	7	3	0	687566	4	2	2	1	0	918	14	0	1000	460
fixed	7	3	1	689800	7	1	1	1	0	835	14	0	500	461
fixed	7	3	2	690966	6	0	0	1	0	1166	14	0	650	462
fixed	7	3	3	690966	9	2	2	1	0	849	14	0	900	463
fixed	7	3	4	690966	5	3	3	1	0	701	14	0	1000	464
fixed	7	3	5	693698	7	1	1	1	0	817	14	0	400	465
fixed	7	3	6	694480	8	2	2	1	0	782	14	0	550	466
fixed	7	3	7	694480	6	0	0	1	0	768	14	0	800	467
fixed	7	3	8	695981	5	3	3	1	0	700	14	0	600	468
fixed	7	3	9	696814	4	1	1	1	0	833	14	0	750	469
fixed	7	4	0	696814	4	2	2	1	0	900	14	0	1000	470
fixed	7	4	1	698929	7	1	1	1	0	748	14	0	500	471
fixed	7	4	2	699862	6	0	0	1	0	933	14	0	650	472
fixed	7	4	3	699862	9	2	2	1	0	782	14	0	900	473
fixed	7	4	4	702679	5	3	3	1	0	1901	14	0	1000	474
fixed	7	4	5	703511	7	1	1	1	0	832	14	0	400	475
fixed	7	4	6	704378	8	2	2	1	0	866	14	0	550	476
fixed	7	4	7	705594	6	0	1	1	0	1217	14	0	800	476
fixed	7	4	8	706627	5	3	3	1	0	1033	14	0	600	477
fixed	7	4	9	706627	4	1	1	1	0	650	14	0	750	478
fixed	7	5	0	706627	4	2	2	1	0	783	14	0	1000	479
fixed	7	5	1	709710	7	1	1	1	0	966	14	0	500	480
fixed	7	5	2	710459	6	0	0	1	0	749	14	0	650	481
fixed	7	5	3	710459	9	2	2	1	0	699	14	0	900	482
fixed	7	5	4	710459	5	3	3	1	0	617	14	0	1000	483
fixed	7	5	5	713125	7	1	1	1	0	750	14	0	400	484
fixed	7	5	6	714174	8	2	2	1	0	1049	14	0	550	485
fixed	7	5	7	714174	6	0	0	1	0	801	14	0	800	486
fixed	7	5	8	715673	5	3	2	1	0	698	14	0	600	486
fixed	7	5	9	716456	4	1	2	1	0	783	14	0	750	486
fixed	7	6	0	716456	4	2	2	1	0	733	14	0	1000	487
fixed	7	6	1	718688	7	1	1	1	0	898	14	0	500	488
fixed	7	6	2	719472	6	0	0	1	0	784	14	0	650	489
fixed	7	6	3	719472	9	2	2	1	0	833	14	0	900	490
fixed	7	6	4	719472	5	3	3	1	0	734	14	0	1000	491
fixed	7	6	5	722173	7	1	1	1	0	783	14	0	400	492
fixed	7	6	6	723104	8	2	2	1	0	932	14	0	550	493
fixed	7	6	7	723988	6	0	0	1	0	884	14	0	800	494
fixed	7	6	8	724854	5	3	2	1	0	866	14	0	600	494
fixed	7	6	9	726120	4	1	1	1	0	1266	14	0	750	495
