type	block	sequ.	trial	time	Pos.	Color	Button	NumRsp	Resp_1	RT_1	R_Code	Resp_2	RT_2	Trigg.	n_hit	n_inc	n_miss	score_%
random	0	0	0	131309	13	3	3	1	0	1847	14	0	1000	1
random	0	0	1	132358	16	1	1	1	0	1049	14	0	550	2
random	0	0	2	133758	13	3	3	1	0	1400	14	0	900	3
random	0	0	3	134558	14	0	0	1	0	800	14	0	750	4
random	0	0	4	135425	17	2	2	1	0	867	14	0	600	5
random	0	0	5	136723	12	0	0	1	0	1299	14	0	300	6
random	0	0	6	137906	15	1	1	1	0	1183	14	0	400	7
random	0	0	7	137906	12	2	2	1	0	916	14	0	1000	8
random	0	0	8	139940	16	3	3	1	0	1017	14	0	500	9
random	0	0	9	140957	15	2	2	1	0	1017	14	0	800	10
random	0	1	0	142306	16	3	3	1	0	984	14	0	650	11
random	0	1	1	143038	17	2	2	1	0	731	14	0	600	12
random	0	1	2	143922	14	1	1	1	0	884	14	0	300	13
random	0	1	3	143922	13	2	2	1	0	999	14	0	1000	14
random	0	1	4	143922	17	1	1	1	0	684	14	0	900	15
random	0	1	5	143922	12	0	0	1	0	650	14	0	800	16
random	0	1	6	147571	13	3	3	1	0	917	14	0	750	17
random	0	1	7	148470	12	2	2	1	0	899	14	0	400	18
random	0	1	8	148470	15	1	1	1	0	883	14	0	1000	19
random	0	1	9	150218	14	0	0	1	0	749	14	0	500	20
random	0	2	0	151501	12	1	2	1	0	950	14	0	900	20
random	0	2	1	152434	16	0	0	1	0	933	14	0	300	21
random	0	2	2	152434	17	3	3	1	0	999	14	0	1000	22
random	0	2	3	154218	15	0	0	1	0	768	14	0	550	23
random	0	2	4	154218	14	2	2	1	0	933	14	0	1000	24
random	0	2	5	156000	13	1	1	1	0	766	14	0	400	25
random	0	2	6	157116	14	3	3	1	0	1116	14	0	600	26
random	0	2	7	158033	16	2	2	1	0	917	14	0	500	27
random	0	2	8	159049	12	3	3	1	0	1016	14	0	750	28
random	0	2	9	159882	17	2	2	1	0	833	14	0	650	29
random	0	3	0	159882	12	0	0	1	0	817	14	0	900	30
random	0	3	1	161916	16	2	2	1	0	768	14	0	300	31
random	0	3	2	161916	17	1	1	1	0	882	14	0	1000	32
random	0	3	3	163864	15	3	3	1	0	933	14	0	550	33
random	0	3	4	163864	14	1	2	1	0	883	14	0	1000	33
random	0	3	5	166013	13	0	0	1	0	1133	14	0	400	34
random	0	3	6	166980	14	3	3	1	0	967	14	0	600	35
random	0	3	7	167729	16	2	2	1	0	749	14	0	500	36
random	0	3	8	168613	12	1	1	1	0	884	14	0	750	37
random	0	3	9	169547	17	2	2	1	0	933	14	0	650	38
random	0	4	0	170946	13	3	3	1	0	1033	14	0	500	39
random	0	4	1	171762	17	2	2	1	0	816	14	0	600	40
random	0	4	2	172878	14	1	1	1	0	1116	14	0	900	41
random	0	4	3	172878	17	0	0	1	0	699	14	0	1000	42
random	0	4	4	174877	16	3	3	1	0	983	14	0	650	43
random	0	4	5	175693	12	1	2	1	0	816	14	0	550	43
random	0	4	6	176609	15	3	3	1	0	916	14	0	800	44
random	0	4	7	177442	14	0	0	1	0	833	14	0	700	45
random	0	4	8	177442	16	2	2	1	0	967	14	0	1000	46
random	0	4	9	179292	13	1	1	1	0	848	14	0	300	47
random	0	5	0	179292	14	0	0	1	0	867	14	0	1000	48
random	0	5	1	181508	16	2	2	1	0	850	14	0	400	49
random	0	5	2	182374	12	3	3	1	0	866	14	0	750	50
random	0	5	3	182374	16	1	1	1	0	850	14	0	900	51
random	0	5	4	184240	13	2	2	1	0	965	14	0	300	52
random	0	5	5	185090	12	3	3	1	0	849	14	0	650	53
random	0	5	6	185891	15	0	0	1	0	801	14	0	550	54
random	0	5	7	186758	17	2	2	1	0	866	14	0	800	55
random	0	5	8	187807	15	1	1	1	0	1049	14	0	500	56
random	0	5	9	187807	14	0	0	1	0	916	14	0	1000	57
random	0	6	0	187807	17	0	0	1	0	700	14	0	1000	58
random	0	6	1	190989	14	2	2	1	0	801	14	0	650	59
random	0	6	2	191939	17	1	1	1	0	950	14	0	900	60
random	0	6	3	192838	16	2	2	1	0	899	14	0	600	61
random	0	6	4	193705	14	0	0	1	0	867	14	0	400	62
random	0	6	5	194587	16	3	3	1	0	882	14	0	300	63
random	0	6	6	195504	13	1	2	1	0	917	14	0	700	63
random	0	6	7	196403	12	3	3	1	0	898	14	0	750	64
random	0	6	8	197286	15	1	0	1	0	883	14	0	500	64
random	0	6	9	198754	13	2	2	1	0	1468	14	0	1000	65
fixed	1	0	0	198754	11	2	2	1	0	807	14	0	1000	66
fixed	1	0	1	200952	14	1	1	1	0	849	14	0	500	67
fixed	1	0	2	201985	13	0	0	1	0	1033	14	0	650	68
fixed	1	0	3	202935	16	2	2	1	0	950	14	0	900	69
fixed	1	0	4	204050	12	3	3	1	0	1115	14	0	1000	70
fixed	1	0	5	205033	14	1	1	1	0	983	14	0	400	71
fixed	1	0	6	205801	15	2	2	1	0	768	14	0	550	72
fixed	1	0	7	205801	13	0	0	1	0	767	14	0	800	73
fixed	1	0	8	207667	12	3	3	1	0	1051	14	0	600	74
fixed	1	0	9	208848	11	1	1	1	0	1181	14	0	750	75
fixed	1	1	0	208848	11	2	2	1	0	849	14	0	1000	76
fixed	1	1	1	210982	14	1	1	1	0	783	14	0	500	77
fixed	1	1	2	211783	13	0	0	1	0	800	14	0	650	78
fixed	1	1	3	211783	16	2	2	1	0	782	14	0	900	79
fixed	1	1	4	213781	12	3	3	1	0	1084	14	0	1000	80
fixed	1	1	5	214764	14	1	1	1	0	982	14	0	400	81
fixed	1	1	6	215615	15	2	2	1	0	851	14	0	550	82
fixed	1	1	7	215615	13	0	0	1	0	765	14	0	800	83
fixed	1	1	8	217163	12	3	3	1	0	734	14	0	600	84
fixed	1	1	9	217995	11	1	1	1	0	832	14	0	750	85
fixed	1	2	0	217995	11	2	2	1	0	918	14	0	1000	86
fixed	1	2	1	220128	14	1	1	1	0	782	14	0	500	87
fixed	1	2	2	220945	13	0	0	1	0	817	14	0	650	88
fixed	1	2	3	220945	16	2	2	1	0	783	14	0	900	89
fixed	1	2	4	220945	12	3	3	1	0	950	14	0	1000	90
fixed	1	2	5	223944	14	1	1	1	0	1067	14	0	400	91
fixed	1	2	6	224710	15	2	2	1	0	766	14	0	550	92
fixed	1	2	7	225577	13	0	0	1	0	867	14	0	800	93
fixed	1	2	8	226560	12	3	3	1	0	983	14	0	600	94
fixed	1	2	9	227376	11	1	1	1	0	816	14	0	750	95
fixed	1	3	0	228925	11	2	2	1	0	1200	14	0	1000	96
fixed	1	3	1	229792	14	1	1	1	0	867	14	0	500	97
fixed	1	3	2	230726	13	0	0	1	0	934	14	0	650	98
fixed	1	3	3	230726	16	2	2	1	0	799	14	0	900	99
fixed	1	3	4	230726	12	3	1	1	0	832	14	0	1000	99
fixed	1	3	5	233274	14	1	1	1	0	616	14	0	400	100
fixed	1	3	6	234141	15	2	2	1	0	867	14	0	550	101
fixed	1	3	7	234141	13	0	0	1	0	750	14	0	800	102
fixed	1	3	8	235823	12	3	3	1	0	866	14	0	600	103
fixed	1	3	9	236773	11	1	1	1	0	950	14	0	750	104
fixed	1	4	0	236773	11	2	2	1	0	683	14	0	1000	105
fixed	1	4	1	238973	14	1	1	1	0	833	14	0	500	106
fixed	1	4	2	239723	13	0	0	1	0	750	14	0	650	107
fixed	1	4	3	239723	16	2	2	1	0	732	14	0	900	108
fixed	1	4	4	239723	12	3	3	1	0	850	14	0	1000	109
fixed	1	4	5	242471	14	1	1	1	0	832	14	0	400	110
fixed	1	4	6	243238	15	2	2	1	0	766	14	0	550	111
fixed	1	4	7	243238	13	0	0	1	0	716	14	0	800	112
fixed	1	4	8	244870	12	3	3	1	0	832	14	0	600	113
fixed	1	4	9	245886	11	1	1	1	0	1016	14	0	750	114
fixed	1	5	0	247486	11	2	2	1	0	1249	14	0	1000	115
fixed	1	5	1	248302	14	1	1	1	0	817	14	0	500	116
fixed	1	5	2	249136	13	0	0	1	0	833	14	0	650	117
fixed	1	5	3	249136	16	2	1	1	0	783	14	0	900	117
fixed	1	5	4	249136	12	3	3	1	0	834	14	0	1000	118
fixed	1	5	5	251802	14	1	1	1	0	733	14	0	400	119
fixed	1	5	6	252568	15	2	2	1	0	767	14	0	550	120
fixed	1	5	7	252568	13	0	0	1	0	717	14	0	800	121
fixed	1	5	8	254134	12	3	2	1	0	749	14	0	600	121
fixed	1	5	9	254984	11	1	2	1	0	851	14	0	750	121
fixed	1	6	0	254984	11	2	2	1	0	715	14	0	1000	122
fixed	1	6	1	257100	14	1	1	1	0	751	14	0	500	123
fixed	1	6	2	257983	13	0	0	1	0	883	14	0	650	124
fixed	1	6	3	257983	16	2	2	1	0	717	14	0	900	125
fixed	1	6	4	257983	12	3	3	1	0	752	14	0	1000	126
fixed	1	6	5	260631	14	1	1	1	0	732	14	0	400	127
fixed	1	6	6	261565	15	2	2	1	0	934	14	0	550	128
fixed	1	6	7	261565	13	0	0	1	0	782	14	0	800	129
fixed	1	6	8	263098	12	3	3	1	0	734	14	0	600	130
fixed	1	6	9	263897	11	1	1	1	0	798	14	0	750	131
fixed	2	0	0	265315	10	2	2	1	0	1065	14	0	1000	132
fixed	2	0	1	266130	13	1	1	1	0	815	14	0	500	133
fixed	2	0	2	266130	12	0	0	1	0	667	14	0	650	134
fixed	2	0	3	267730	15	2	2	1	0	933	14	0	900	135
fixed	2	0	4	267730	11	3	3	1	0	932	14	0	1000	136
fixed	2	0	5	269930	13	1	1	1	0	1185	14	0	400	137
fixed	2	0	6	270662	14	2	2	1	0	732	14	0	550	138
fixed	2	0	7	270662	12	0	0	1	0	783	14	0	800	139
fixed	2	0	8	272461	11	3	3	1	0	983	14	0	600	140
fixed	2	0	9	273594	10	1	2	1	0	1133	14	0	750	140
fixed	2	1	0	273594	10	2	2	1	0	666	14	0	1000	141
fixed	2	1	1	275811	13	1	1	1	0	850	14	0	500	142
fixed	2	1	2	276575	12	0	0	1	0	764	14	0	650	143
fixed	2	1	3	276575	15	2	2	1	0	768	14	0	900	144
fixed	2	1	4	278609	11	3	3	1	0	1132	14	0	1000	145
fixed	2	1	5	279393	13	1	1	1	0	784	14	0	400	146
fixed	2	1	6	280308	14	2	2	1	0	915	14	0	550	147
fixed	2	1	7	281224	12	0	0	1	0	916	14	0	800	148
fixed	2	1	8	281925	11	3	2	1	0	701	14	0	600	148
fixed	2	1	9	282775	10	1	1	1	0	849	14	0	750	149
fixed	2	2	0	284491	10	2	2	1	0	1367	14	0	1000	150
fixed	2	2	1	285340	13	1	1	1	0	849	14	0	500	151
fixed	2	2	2	286172	12	0	0	1	0	832	14	0	650	152
fixed	2	2	3	287307	15	2	1	1	0	1134	14	0	900	152
fixed	2	2	4	287307	11	3	3	1	0	848	14	0	1000	153
fixed	2	2	5	289106	13	1	1	1	0	783	14	0	400	154
fixed	2	2	6	289804	14	2	2	1	0	698	14	0	550	155
fixed	2	2	7	290639	12	0	0	1	0	835	14	0	800	156
fixed	2	2	8	291471	11	3	3	1	0	831	14	0	600	157
fixed	2	2	9	292322	10	1	1	1	0	850	14	0	750	158
fixed	2	3	0	294271	10	2	2	1	0	1584	14	0	1000	159
fixed	2	3	1	295019	13	1	1	1	0	748	14	0	500	160
fixed	2	3	2	295771	12	0	0	1	0	752	14	0	650	161
fixed	2	3	3	295771	15	2	2	1	0	631	14	0	900	162
fixed	2	3	4	295771	11	3	3	1	0	683	14	0	1000	163
fixed	2	3	5	298420	13	1	2	1	0	717	14	0	400	163
fixed	2	3	6	299203	14	2	2	1	0	782	14	0	550	164
fixed	2	3	7	300119	12	0	0	1	0	916	14	0	800	165
fixed	2	3	8	301102	11	3	3	1	0	983	14	0	600	166
fixed	2	3	9	301885	10	1	1	1	0	783	14	0	750	167
fixed	2	4	0	301885	10	2	2	1	0	834	14	0	1000	168
fixed	2	4	1	303868	13	1	1	1	0	617	14	0	500	169
fixed	2	4	2	304633	12	0	0	1	0	765	14	0	650	170
fixed	2	4	3	304633	15	2	2	1	0	801	14	0	900	171
fixed	2	4	4	304633	11	3	3	1	0	733	14	0	1000	172
fixed	2	4	5	307416	13	1	1	1	0	849	14	0	400	173
fixed	2	4	6	308399	14	2	2	1	0	984	14	0	550	174
fixed	2	4	7	308399	12	0	0	1	0	699	14	0	800	175
fixed	2	4	8	310799	11	3	3	1	0	1584	14	0	600	176
fixed	2	4	9	311680	10	1	2	1	0	882	14	0	750	176
fixed	2	5	0	311680	10	2	2	1	0	533	14	0	1000	177
fixed	2	5	1	313780	13	1	1	1	0	750	14	0	500	178
fixed	2	5	2	314447	12	0	0	1	0	667	14	0	650	179
fixed	2	5	3	314447	15	2	2	1	0	700	14	0	900	180
fixed	2	5	4	314447	11	3	3	1	0	800	14	0	1000	181
fixed	2	5	5	317213	13	1	1	1	0	833	14	0	400	182
fixed	2	5	6	317929	14	2	2	1	0	716	14	0	550	183
fixed	2	5	7	317929	12	0	0	1	0	699	14	0	800	184
fixed	2	5	8	319512	11	3	3	1	0	767	14	0	600	185
fixed	2	5	9	320329	10	1	2	1	0	817	14	0	750	185
fixed	2	6	0	320329	10	2	2	1	0	684	14	0	1000	186
fixed	2	6	1	322494	13	1	1	1	0	816	14	0	500	187
fixed	2	6	2	323393	12	0	0	1	0	899	14	0	650	188
fixed	2	6	3	323393	15	2	2	1	0	765	14	0	900	189
fixed	2	6	4	323393	11	3	3	1	0	650	14	0	1000	190
fixed	2	6	5	326078	13	1	1	1	0	767	14	0	400	191
fixed	2	6	6	327043	14	2	2	1	0	965	14	0	550	192
fixed	2	6	7	327043	12	0	0	1	0	700	14	0	800	193
fixed	2	6	8	328542	11	3	2	1	0	683	14	0	600	193
fixed	2	6	9	329375	10	1	1	1	0	833	14	0	750	194
fixed	3	0	0	329375	9	2	1	1	0	881	14	0	1000	194
fixed	3	0	1	331541	12	1	1	1	0	816	14	0	500	195
fixed	3	0	2	332308	11	0	0	1	0	767	14	0	650	196
fixed	3	0	3	332308	14	2	2	1	0	749	14	0	900	197
fixed	3	0	4	332308	10	3	3	1	0	685	14	0	1000	198
fixed	3	0	5	335074	12	1	1	1	0	851	14	0	400	199
fixed	3	0	6	335891	13	2	2	1	0	817	14	0	550	200
fixed	3	0	7	335891	11	0	0	1	0	766	14	0	800	201
fixed	3	0	8	337522	10	3	3	1	0	816	14	0	600	202
fixed	3	0	9	338423	9	1	1	1	0	901	14	0	750	203
fixed	3	1	0	340255	9	2	2	1	0	1466	14	0	1000	204
fixed	3	1	1	341172	12	1	1	1	0	917	14	0	500	205
fixed	3	1	2	341872	11	0	0	1	0	700	14	0	650	206
fixed	3	1	3	341872	14	2	2	1	0	750	14	0	900	207
fixed	3	1	4	341872	10	3	3	1	0	552	14	0	1000	208
fixed	3	1	5	344639	12	1	1	1	0	835	14	0	400	209
fixed	3	1	6	345787	13	2	2	1	0	1148	14	0	550	210
fixed	3	1	7	345787	11	0	0	1	0	766	14	0	800	211
fixed	3	1	8	347537	10	3	3	1	0	935	14	0	600	212
fixed	3	1	9	347537	9	1	1	1	0	748	14	0	750	213
fixed	3	2	0	349786	9	2	2	1	0	1134	14	0	1000	214
fixed	3	2	1	350684	12	1	1	1	0	899	14	0	500	215
fixed	3	2	2	350684	11	0	0	1	0	550	14	0	650	216
fixed	3	2	3	350684	14	2	2	1	0	750	14	0	900	217
fixed	3	2	4	350684	10	3	3	1	0	550	14	0	1000	218
fixed	3	2	5	354134	12	1	1	1	0	868	14	0	400	219
fixed	3	2	6	354917	13	2	2	1	0	783	14	0	550	220
fixed	3	2	7	354917	11	0	0	1	0	632	14	0	800	221
fixed	3	2	8	356399	10	3	2	1	0	667	14	0	600	221
fixed	3	2	9	357367	9	1	1	1	0	967	14	0	750	222
fixed	3	3	0	357367	9	2	2	1	0	965	14	0	1000	223
fixed	3	3	1	359982	12	1	1	1	0	1250	14	0	500	224
fixed	3	3	2	359982	11	0	0	1	0	632	14	0	650	225
fixed	3	3	3	359982	14	2	2	1	0	766	14	0	900	226
fixed	3	3	4	359982	10	3	3	1	0	516	14	0	1000	227
fixed	3	3	5	363065	12	1	1	1	0	485	14	0	400	228
fixed	3	3	6	364046	13	2	2	1	0	981	14	0	550	229
fixed	3	3	7	364046	11	0	0	1	0	783	14	0	800	230
fixed	3	3	8	365597	10	3	3	1	0	732	14	0	600	231
fixed	3	3	9	365597	9	1	1	1	0	701	14	0	750	232
fixed	3	4	0	365597	9	2	2	1	0	849	14	0	1000	233
fixed	3	4	1	368613	12	1	1	1	0	900	14	0	500	234
fixed	3	4	2	369328	11	0	0	1	0	715	14	0	650	235
fixed	3	4	3	369328	14	2	2	1	0	882	14	0	900	236
fixed	3	4	4	369328	10	3	3	1	0	500	14	0	1000	237
fixed	3	4	5	371945	12	1	1	1	0	700	14	0	400	238
fixed	3	4	6	372610	13	2	2	1	0	665	14	0	550	239
fixed	3	4	7	372610	11	0	0	1	0	684	14	0	800	240
fixed	3	4	8	372610	10	3	3	1	0	600	14	0	600	241
fixed	3	4	9	372610	9	1	1	1	0	617	14	0	750	242
fixed	3	5	0	372610	9	2	2	1	0	951	14	0	1000	243
fixed	3	5	1	376926	12	1	1	1	0	783	14	0	500	244
fixed	3	5	2	376926	11	0	0	1	0	649	14	0	650	245
fixed	3	5	3	376926	14	2	2	1	0	683	14	0	900	246
fixed	3	5	4	376926	10	3	3	1	0	516	14	0	1000	247
fixed	3	5	5	380274	12	1	1	1	0	751	14	0	400	248
fixed	3	5	6	380274	13	2	0	1	0	517	14	0	550	248
fixed	3	5	7	381974	11	0	0	1	0	1149	14	0	800	249
fixed	3	5	8	382839	10	3	3	1	0	865	14	0	600	250
fixed	3	5	9	383772	9	1	1	1	0	933	14	0	750	251
fixed	3	6	0	383772	9	2	2	1	0	818	14	0	1000	252
fixed	3	6	1	385707	12	1	1	1	0	568	14	0	500	253
fixed	3	6	2	386390	11	0	0	1	0	683	14	0	650	254
fixed	3	6	3	386390	14	2	2	1	0	666	14	0	900	255
fixed	3	6	4	386390	10	3	3	1	0	567	14	0	1000	256
fixed	3	6	5	388838	12	1	0	1	0	516	14	0	400	256
fixed	3	6	6	390037	13	2	2	1	0	1199	14	0	550	257
fixed	3	6	7	390037	11	0	0	1	0	766	14	0	800	258
fixed	3	6	8	391521	10	3	3	1	0	683	14	0	600	259
fixed	3	6	9	391521	9	1	1	1	0	651	14	0	750	260
fixed	4	0	0	391521	8	2	2	1	0	798	14	0	1000	261
fixed	4	0	1	394769	11	1	1	1	0	1115	14	0	500	262
fixed	4	0	2	394769	10	0	0	1	0	634	14	0	650	263
fixed	4	0	3	394769	13	2	1	1	0	751	14	0	900	263
fixed	4	0	4	394769	9	3	3	1	0	900	14	0	1000	264
fixed	4	0	5	398251	11	1	1	1	0	898	14	0	400	265
fixed	4	0	6	399186	12	2	2	1	0	935	14	0	550	266
fixed	4	0	7	399186	10	0	0	1	0	648	14	0	800	267
fixed	4	0	8	400750	9	3	3	1	0	749	14	0	600	268
fixed	4	0	9	401801	8	1	1	1	0	1051	14	0	750	269
fixed	4	1	0	401801	8	2	2	1	0	832	14	0	1000	270
fixed	4	1	1	403983	11	1	1	1	0	815	14	0	500	271
fixed	4	1	2	404666	10	0	0	1	0	683	14	0	650	272
fixed	4	1	3	405599	13	2	2	1	0	933	14	0	900	273
fixed	4	1	4	405599	9	3	3	1	0	917	14	0	1000	274
fixed	4	1	5	407364	11	1	1	1	0	750	14	0	400	275
fixed	4	1	6	408098	12	2	2	1	0	734	14	0	550	276
fixed	4	1	7	409015	10	0	0	1	0	917	14	0	800	277
fixed	4	1	8	409665	9	3	3	1	0	650	14	0	600	278
fixed	4	1	9	409665	8	1	1	1	0	616	14	0	750	279
fixed	4	2	0	409665	8	2	2	1	0	1016	14	0	1000	280
fixed	4	2	1	412463	11	1	1	1	0	666	14	0	500	281
fixed	4	2	2	413147	10	0	0	1	0	683	14	0	650	282
fixed	4	2	3	414195	13	2	2	1	0	1049	14	0	900	283
fixed	4	2	4	414195	9	3	3	1	0	883	14	0	1000	284
fixed	4	2	5	416146	11	1	1	1	0	934	14	0	400	285
fixed	4	2	6	416146	12	2	0	1	0	549	14	0	550	285
fixed	4	2	7	417544	10	0	0	1	0	832	14	0	800	286
fixed	4	2	8	417544	9	3	2	1	0	600	14	0	600	286
fixed	4	2	9	419228	8	1	1	1	0	1083	14	0	750	287
fixed	4	3	0	421093	8	2	2	1	0	1516	14	0	1000	288
fixed	4	3	1	422043	11	1	1	1	0	950	14	0	500	289
fixed	4	3	2	422043	10	0	0	1	0	584	14	0	650	290
fixed	4	3	3	422043	13	2	2	1	0	916	14	0	900	291
fixed	4	3	4	422043	9	3	3	1	0	668	14	0	1000	292
fixed	4	3	5	425976	11	1	1	1	0	1367	14	0	400	293
fixed	4	3	6	426992	12	2	2	1	0	1016	14	0	550	294
fixed	4	3	7	427909	10	0	0	1	0	917	14	0	800	295
fixed	4	3	8	428642	9	3	3	1	0	732	14	0	600	296
fixed	4	3	9	428642	8	1	1	1	0	682	14	0	750	297
fixed	4	4	0	430774	8	2	2	1	0	1032	14	0	1000	298
fixed	4	4	1	431756	11	1	1	1	0	982	14	0	500	299
fixed	4	4	2	431756	10	0	0	1	0	568	14	0	650	300
fixed	4	4	3	433440	13	2	2	1	0	1016	14	0	900	301
fixed	4	4	4	433440	9	3	3	1	0	516	14	0	1000	302
fixed	4	4	5	435256	11	1	1	1	0	801	14	0	400	303
fixed	4	4	6	435256	12	2	2	1	0	415	14	0	550	304
fixed	4	4	7	435256	10	0	0	1	0	600	14	0	800	305
fixed	4	4	8	435256	9	3	3	1	0	283	14	0	600	306
fixed	4	4	9	435256	8	1	1	1	0	252	14	0	750	307
fixed	4	5	0	435256	8	2	2	1	0	1016	14	0	1000	308
fixed	4	5	1	440471	11	1	1	1	0	1083	14	0	500	309
fixed	4	5	2	441154	10	0	0	1	0	683	14	0	650	310
fixed	4	5	3	442270	13	2	2	1	0	1115	14	0	900	311
fixed	4	5	4	442270	9	3	3	1	0	434	14	0	1000	312
fixed	4	5	5	444136	11	1	1	1	0	866	14	0	400	313
fixed	4	5	6	444919	12	2	2	1	0	784	14	0	550	314
fixed	4	5	7	444919	10	0	1	1	0	667	14	0	800	314
fixed	4	5	8	446602	9	3	2	1	0	867	14	0	600	314
fixed	4	5	9	448401	8	1	1	1	0	1799	14	0	750	315
fixed	4	6	0	449868	8	2	2	1	0	1117	14	0	1000	316
fixed	4	6	1	449868	11	1	3	1	0	350	14	0	500	316
fixed	4	6	2	452316	10	0	0	1	0	1948	14	0	650	317
fixed	4	6	3	453466	13	2	2	1	0	1150	14	0	900	318
fixed	4	6	4	453466	9	3	3	1	0	317	14	0	1000	319
fixed	4	6	5	455283	11	1	1	1	0	801	14	0	400	320
fixed	4	6	6	456349	12	2	2	1	0	1065	14	0	550	321
fixed	4	6	7	457332	10	0	0	1	0	983	14	0	800	322
fixed	4	6	8	458232	9	3	3	1	0	900	14	0	600	323
fixed	4	6	9	458232	8	1	1	1	0	732	14	0	750	324
fixed	5	0	0	458232	7	2	2	1	0	997	14	0	1000	325
fixed	5	0	1	461181	10	1	1	1	0	814	14	0	500	326
fixed	5	0	2	461181	9	0	0	1	0	667	14	0	650	327
fixed	5	0	3	461181	12	2	2	1	0	616	14	0	900	328
fixed	5	0	4	461181	8	3	3	1	0	416	14	0	1000	329
fixed	5	0	5	465061	10	1	1	1	0	1283	14	0	400	330
fixed	5	0	6	465862	11	2	2	1	0	801	14	0	550	331
fixed	5	0	7	466695	9	0	0	1	0	832	14	0	800	332
fixed	5	0	8	467496	8	3	3	1	0	801	14	0	600	333
fixed	5	0	9	468428	7	1	2	1	0	932	14	0	750	333
fixed	5	1	0	469828	7	2	2	1	0	1035	14	0	1000	334
fixed	5	1	1	470877	10	1	1	1	0	1050	14	0	500	335
fixed	5	1	2	471626	9	0	0	1	0	749	14	0	650	336
fixed	5	1	3	471626	12	2	2	1	0	767	14	0	900	337
fixed	5	1	4	471626	8	3	3	1	0	582	14	0	1000	338
fixed	5	1	5	473993	10	1	1	1	0	451	14	0	400	339
fixed	5	1	6	474893	11	2	2	1	0	900	14	0	550	340
fixed	5	1	7	474893	9	0	0	1	0	616	14	0	800	341
fixed	5	1	8	474893	8	3	3	1	0	599	14	0	600	342
fixed	5	1	9	477142	7	1	1	1	0	816	14	0	750	343
fixed	5	2	0	477142	7	2	2	1	0	849	14	0	1000	344
fixed	5	2	1	479308	10	1	1	1	0	816	14	0	500	345
fixed	5	2	2	480358	9	0	0	1	0	1050	14	0	650	346
fixed	5	2	3	480358	12	2	2	1	0	765	14	0	900	347
fixed	5	2	4	480358	8	3	3	1	0	583	14	0	1000	348
fixed	5	2	5	483439	10	1	1	1	0	1165	14	0	400	349
fixed	5	2	6	484439	11	2	2	1	0	1000	14	0	550	350
fixed	5	2	7	484439	9	0	0	1	0	732	14	0	800	351
fixed	5	2	8	485972	8	3	3	1	0	732	14	0	600	352
fixed	5	2	9	485972	7	1	1	1	0	766	14	0	750	353
fixed	5	3	0	485972	7	2	2	1	0	849	14	0	1000	354
fixed	5	3	1	488922	10	1	0	1	0	816	14	0	500	354
fixed	5	3	2	490055	9	0	0	1	0	1133	14	0	650	355
fixed	5	3	3	490055	12	2	2	1	0	750	14	0	900	356
fixed	5	3	4	490055	8	3	3	1	0	584	14	0	1000	357
fixed	5	3	5	493486	10	1	1	1	0	1500	14	0	400	358
fixed	5	3	6	494419	11	2	1	1	0	934	14	0	550	358
fixed	5	3	7	495519	9	0	0	1	0	1100	14	0	800	359
fixed	5	3	8	496168	8	3	3	1	0	649	14	0	600	360
fixed	5	3	9	496168	7	1	1	1	0	633	14	0	750	361
fixed	5	4	0	498601	7	2	2	1	0	1315	14	0	1000	362
fixed	5	4	1	499752	10	1	1	1	0	1151	14	0	500	363
fixed	5	4	2	500700	9	0	0	1	0	949	14	0	650	364
fixed	5	4	3	500700	12	2	2	1	0	734	14	0	900	365
fixed	5	4	4	500700	8	3	3	1	0	384	14	0	1000	366
fixed	5	4	5	500700	10	1	1	1	0	200	14	0	400	367
fixed	5	4	6	503981	11	2	2	1	0	949	14	0	550	368
fixed	5	4	7	503981	9	0	0	1	0	651	14	0	800	369
fixed	5	4	8	503981	8	3	3	1	0	367	14	0	600	370
fixed	5	4	9	503981	7	1	1	1	0	350	14	0	750	371
fixed	5	5	0	503981	7	2	2	1	0	651	14	0	1000	372
fixed	5	5	1	508115	10	1	1	1	0	600	14	0	500	373
fixed	5	5	2	508863	9	0	0	1	0	749	14	0	650	374
fixed	5	5	3	509931	12	2	2	1	0	1068	14	0	900	375
fixed	5	5	4	509931	8	3	3	1	0	500	14	0	1000	376
fixed	5	5	5	511546	10	1	1	1	0	599	14	0	400	377
fixed	5	5	6	512647	11	2	2	1	0	1100	14	0	550	378
fixed	5	5	7	512647	9	0	0	1	0	482	14	0	800	379
fixed	5	5	8	512647	8	3	3	1	0	84	14	0	600	380
fixed	5	5	9	512647	7	1	1	1	0	683	14	0	750	381
fixed	5	6	0	512647	7	2	2	1	0	851	14	0	1000	382
fixed	5	6	1	517095	10	1	1	1	0	867	14	0	500	383
fixed	5	6	2	517928	9	0	0	1	0	833	14	0	650	384
fixed	5	6	3	517928	12	2	2	1	0	684	14	0	900	385
fixed	5	6	4	517928	8	3	3	1	0	749	14	0	1000	386
fixed	5	6	5	520743	10	1	1	1	0	900	14	0	400	387
fixed	5	6	6	521759	11	2	2	1	0	1016	14	0	550	388
fixed	5	6	7	522877	9	0	0	1	0	1117	14	0	800	389
fixed	5	6	8	523543	8	3	2	1	0	666	14	0	600	389
fixed	5	6	9	524426	7	1	1	1	0	883	14	0	750	390
random	6	0	0	524426	7	3	2	1	0	728	14	0	1000	390
random	6	0	1	526558	10	1	1	1	0	749	14	0	550	391
random	6	0	2	527541	7	3	2	1	0	983	14	0	900	391
random	6	0	3	529557	8	0	0	1	0	2016	14	0	750	392
random	6	0	4	530841	11	2	3	1	0	1283	14	0	600	392
random	6	0	5	531806	6	0	0	1	0	966	14	0	300	393
random	6	0	6	532723	9	1	1	1	0	917	14	0	400	394
random	6	0	7	533807	6	2	2	1	0	1083	14	0	1000	395
random	6	0	8	534754	10	3	3	1	0	948	14	0	500	396
random	6	0	9	535854	9	2	2	1	0	1100	14	0	800	397
random	6	1	0	537138	10	3	3	1	0	949	14	0	650	398
random	6	1	1	537938	11	2	2	1	0	800	14	0	600	399
random	6	1	2	538854	8	1	1	1	0	916	14	0	300	400
random	6	1	3	538854	7	2	2	1	0	767	14	0	1000	401
random	6	1	4	538854	11	1	1	1	0	884	14	0	900	402
random	6	1	5	541687	6	0	0	1	0	932	14	0	800	403
random	6	1	6	542519	7	3	3	1	0	832	14	0	750	404
random	6	1	7	543337	6	2	1	1	0	818	14	0	400	404
random	6	1	8	543337	9	1	1	1	0	982	14	0	1000	405
random	6	1	9	545152	8	0	0	1	0	799	14	0	500	406
random	6	2	0	545152	6	1	2	1	0	716	14	0	900	406
random	6	2	1	547685	10	0	0	1	0	1233	14	0	300	407
random	6	2	2	547685	11	3	3	1	0	997	14	0	1000	408
random	6	2	3	549450	9	0	1	1	0	750	14	0	550	408
random	6	2	4	551150	8	2	2	1	0	1700	14	0	1000	409
random	6	2	5	551999	7	1	1	1	0	849	14	0	400	410
random	6	2	6	552932	8	3	3	1	0	933	14	0	600	411
random	6	2	7	553732	10	2	1	1	0	800	14	0	500	411
random	6	2	8	554749	6	3	3	1	0	1016	14	0	750	412
random	6	2	9	555632	11	2	2	1	0	883	14	0	650	413
random	6	3	0	555632	6	0	0	1	0	900	14	0	900	414
random	6	3	1	557748	10	2	2	1	0	817	14	0	300	415
random	6	3	2	557748	11	1	1	1	0	983	14	0	1000	416
random	6	3	3	560031	9	3	3	1	0	1267	14	0	550	417
random	6	3	4	560031	8	1	0	1	0	800	14	0	1000	417
random	6	3	5	561713	7	0	0	1	0	667	14	0	400	418
random	6	3	6	562546	8	3	2	1	0	833	14	0	600	418
random	6	3	7	563313	10	2	2	1	0	768	14	0	500	419
random	6	3	8	564844	6	1	1	1	0	1531	14	0	750	420
random	6	3	9	565612	11	2	2	1	0	767	14	0	650	421
random	6	4	0	566828	7	3	3	1	0	866	14	0	500	422
random	6	4	1	567510	11	2	2	1	0	682	14	0	600	423
random	6	4	2	567510	8	1	0	1	0	784	14	0	900	423
random	6	4	3	567510	11	0	0	1	0	616	14	0	1000	424
random	6	4	4	570378	10	3	3	1	0	951	14	0	650	425
random	6	4	5	571359	6	1	1	1	0	981	14	0	550	426
random	6	4	6	571359	9	3	3	1	0	751	14	0	800	427
random	6	4	7	572959	8	0	0	1	0	783	14	0	700	428
random	6	4	8	572959	10	2	2	1	0	767	14	0	1000	429
random	6	4	9	574574	7	1	1	1	0	615	14	0	300	430
random	6	5	0	574574	8	0	0	1	0	917	14	0	1000	431
random	6	5	1	576624	10	2	2	1	0	699	14	0	400	432
random	6	5	2	576624	6	3	3	1	0	734	14	0	750	433
random	6	5	3	576624	10	1	1	1	0	732	14	0	900	434
random	6	5	4	579173	7	2	2	1	0	882	14	0	300	435
random	6	5	5	579941	6	3	3	1	0	768	14	0	650	436
random	6	5	6	580939	9	0	0	1	0	999	14	0	550	437
random	6	5	7	581990	11	2	2	1	0	1051	14	0	800	438
random	6	5	8	582823	9	1	1	1	0	833	14	0	500	439
random	6	5	9	582823	8	0	0	1	0	832	14	0	1000	440
random	6	6	0	582823	11	0	0	1	0	766	14	0	1000	441
random	6	6	1	585922	8	2	2	1	0	734	14	0	650	442
random	6	6	2	587121	11	1	1	1	0	1200	14	0	900	443
random	6	6	3	588005	10	2	2	1	0	883	14	0	600	444
random	6	6	4	588787	8	0	0	1	0	782	14	0	400	445
random	6	6	5	589570	10	3	3	1	0	783	14	0	300	446
random	6	6	6	590470	7	1	1	1	0	899	14	0	700	447
random	6	6	7	590470	6	3	3	1	0	667	14	0	750	448
random	6	6	8	592087	9	1	1	1	0	867	14	0	500	449
random	6	6	9	592087	7	2	2	1	0	848	14	0	1000	450
fixed	7	0	0	592087	5	2	2	1	0	612	14	0	1000	451
fixed	7	0	1	595386	8	1	1	1	0	900	14	0	500	452
fixed	7	0	2	596352	7	0	2	1	0	966	14	0	650	452
fixed	7	0	3	597884	10	2	2	1	0	1532	14	0	900	453
fixed	7	0	4	597884	6	3	3	1	0	666	14	0	1000	454
fixed	7	0	5	599951	8	1	1	1	0	1050	14	0	400	455
fixed	7	0	6	600966	9	2	2	1	0	1016	14	0	550	456
fixed	7	0	7	600966	7	0	0	1	0	716	14	0	800	457
fixed	7	0	8	600966	6	3	3	1	0	484	14	0	600	458
fixed	7	0	9	600966	5	1	1	1	0	450	14	0	750	459
fixed	7	1	0	604581	5	2	2	1	0	1084	14	0	1000	460
fixed	7	1	1	605481	8	1	1	1	0	900	14	0	500	461
fixed	7	1	2	605481	7	0	0	1	0	517	14	0	650	462
fixed	7	1	3	605481	10	2	2	1	0	500	14	0	900	463
fixed	7	1	4	605481	6	3	3	1	0	417	14	0	1000	464
fixed	7	1	5	608899	8	1	1	1	0	835	14	0	400	465
fixed	7	1	6	609480	9	2	2	1	0	581	14	0	550	466
fixed	7	1	7	609480	7	0	0	1	0	767	14	0	800	467
fixed	7	1	8	609480	6	3	3	1	0	550	14	0	600	468
fixed	7	1	9	609480	5	1	2	1	0	484	14	0	750	468
fixed	7	2	0	609480	5	2	2	1	0	650	14	0	1000	469
fixed	7	2	1	613746	8	1	1	1	0	749	14	0	500	470
fixed	7	2	2	613746	7	0	0	1	0	482	14	0	650	471
fixed	7	2	3	613746	10	2	2	1	0	582	14	0	900	472
fixed	7	2	4	613746	6	3	3	1	0	448	14	0	1000	473
fixed	7	2	5	616778	8	1	1	1	0	434	14	0	400	474
fixed	7	2	6	617845	9	2	2	1	0	1067	14	0	550	475
fixed	7	2	7	617845	7	0	0	1	0	615	14	0	800	476
fixed	7	2	8	619360	6	3	3	1	0	700	14	0	600	477
fixed	7	2	9	619360	5	1	1	1	0	516	14	0	750	478
fixed	7	3	0	619360	5	2	2	1	0	848	14	0	1000	479
fixed	7	3	1	622125	8	1	0	1	0	632	14	0	500	479
fixed	7	3	2	622859	7	0	0	1	0	734	14	0	650	480
fixed	7	3	3	622859	10	2	2	1	0	783	14	0	900	481
fixed	7	3	4	622859	6	3	3	1	0	851	14	0	1000	482
fixed	7	3	5	625708	8	1	1	1	0	933	14	0	400	483
fixed	7	3	6	626608	9	2	2	1	0	900	14	0	550	484
fixed	7	3	7	626608	7	0	0	1	0	700	14	0	800	485
fixed	7	3	8	626608	6	3	3	1	0	484	14	0	600	486
fixed	7	3	9	626608	5	1	1	1	0	418	14	0	750	487
fixed	7	4	0	626608	5	2	2	1	0	549	14	0	1000	488
fixed	7	4	1	630840	8	1	3	1	0	668	14	0	500	488
fixed	7	4	2	631755	7	0	0	1	0	915	14	0	650	489
fixed	7	4	3	631755	10	2	2	1	0	750	14	0	900	490
fixed	7	4	4	631755	6	3	3	1	0	866	14	0	1000	491
fixed	7	4	5	634256	8	1	1	1	0	598	14	0	400	492
fixed	7	4	6	634988	9	2	2	1	0	733	14	0	550	493
fixed	7	4	7	634988	7	0	0	1	0	650	14	0	800	494
fixed	7	4	8	636869	6	3	3	1	0	1081	14	0	600	495
fixed	7	4	9	636869	5	1	2	1	0	567	14	0	750	495
fixed	7	5	0	636869	5	2	2	1	0	518	14	0	1000	496
fixed	7	5	1	639639	8	1	1	1	0	652	14	0	500	497
fixed	7	5	2	639639	7	0	0	1	0	398	14	0	650	498
fixed	7	5	3	639639	10	2	2	1	0	716	14	0	900	499
fixed	7	5	4	639639	6	3	3	1	0	800	14	0	1000	500
fixed	7	5	5	643002	8	1	1	1	0	784	14	0	400	501
fixed	7	5	6	643769	9	2	2	1	0	767	14	0	550	502
fixed	7	5	7	643769	7	0	0	1	0	482	14	0	800	503
fixed	7	5	8	643769	6	3	3	1	0	132	14	0	600	504
fixed	7	5	9	643769	5	1	1	1	0	332	14	0	750	505
fixed	7	6	0	643769	5	2	2	1	0	899	14	0	1000	506
fixed	7	6	1	648567	8	1	1	1	0	1249	14	0	500	507
fixed	7	6	2	650282	7	0	0	1	0	1715	14	0	650	508
fixed	7	6	3	650282	10	2	2	1	0	650	14	0	900	509
fixed	7	6	4	650282	6	3	3	1	0	482	14	0	1000	510
fixed	7	6	5	652650	8	1	1	1	0	451	14	0	400	511
fixed	7	6	6	653798	9	2	2	1	0	1148	14	0	550	512
fixed	7	6	7	654698	7	0	0	1	0	900	14	0	800	513
fixed	7	6	8	654698	6	3	3	1	0	534	14	0	600	514
fixed	7	6	9	654698	5	1	1	1	0	417	14	0	750	515
