type	block	sequ.	trial	time	Pos.	Color	Button	NumRsp	Resp_1	RT_1	R_Code	Resp_2	RT_2	Trigg.	n_hit	n_inc	n_miss	score_%
random	0	0	0	35618	10	3	3	1	0	1455	14	0	1000	1
random	0	0	1	36560	13	1	1	1	0	940	14	0	550	2
random	0	0	2	36560	10	3	3	1	0	916	14	0	900	3
random	0	0	3	38341	11	0	0	1	0	865	14	0	750	4
random	0	0	4	39393	14	2	2	1	0	1052	14	0	600	5
random	0	0	5	40243	9	0	0	1	0	850	14	0	300	6
random	0	0	6	41283	12	1	1	1	0	1039	14	0	400	7
random	0	0	7	42460	9	2	2	1	0	1177	14	0	1000	8
random	0	0	8	43477	13	3	3	1	0	1017	14	0	500	9
random	0	0	9	44430	12	2	2	1	0	953	14	0	800	10
random	0	1	0	46813	13	3	3	1	0	2011	14	0	650	11
random	0	1	1	47940	14	2	2	1	0	1127	14	0	600	12
random	0	1	2	49316	11	1	1	1	0	1375	14	0	300	13
random	0	1	3	50672	10	2	3	1	0	1357	14	0	1000	13
random	0	1	4	51716	14	1	1	1	0	1044	14	0	900	14
random	0	1	5	52540	9	0	0	1	0	824	14	0	800	15
random	0	1	6	53503	10	3	3	1	0	963	14	0	750	16
random	0	1	7	54209	9	2	2	1	0	706	14	0	400	17
random	0	1	8	54209	12	1	1	1	0	936	14	0	1000	18
random	0	1	9	56052	11	0	0	1	0	835	14	0	500	19
random	0	2	0	58127	9	1	1	1	0	1690	14	0	900	20
random	0	2	1	58973	13	0	0	1	0	846	14	0	300	21
random	0	2	2	60530	14	3	3	1	0	1556	14	0	1000	22
random	0	2	3	61457	12	0	0	1	0	927	14	0	550	23
random	0	2	4	62542	11	2	2	1	0	1085	14	0	1000	24
random	0	2	5	63292	10	1	1	1	0	750	14	0	400	25
random	0	2	6	64883	11	3	3	1	0	1591	14	0	600	26
random	0	2	7	65751	13	2	2	1	0	867	14	0	500	27
random	0	2	8	66926	9	3	3	1	0	1176	14	0	750	28
random	0	2	9	68060	14	2	2	1	0	1134	14	0	650	29
random	0	3	0	69551	9	0	0	1	0	1105	14	0	900	30
random	0	3	1	70971	13	2	2	1	0	1419	14	0	300	31
random	0	3	2	70971	14	1	1	1	0	866	14	0	1000	32
random	0	3	3	72933	12	3	3	1	0	962	14	0	550	33
random	0	3	4	72933	11	1	1	1	0	999	14	0	1000	34
random	0	3	5	74765	10	0	0	1	0	815	14	0	400	35
random	0	3	6	76333	11	3	3	1	0	1568	14	0	600	36
random	0	3	7	77301	13	2	2	1	0	967	14	0	500	37
random	0	3	8	78153	9	1	1	1	0	853	14	0	750	38
random	0	3	9	79161	14	2	2	1	0	1007	14	0	650	39
random	0	4	0	80503	10	3	3	1	0	945	14	0	500	40
random	0	4	1	81503	14	2	2	1	0	1000	14	0	600	41
random	0	4	2	82444	11	1	1	1	0	940	14	0	900	42
random	0	4	3	82444	14	0	0	1	0	800	14	0	1000	43
random	0	4	4	84479	13	3	3	1	0	1024	14	0	650	44
random	0	4	5	85546	9	1	1	1	0	1067	14	0	550	45
random	0	4	6	86557	12	3	3	1	0	1011	14	0	800	46
random	0	4	7	87480	11	0	0	1	0	924	14	0	700	47
random	0	4	8	87480	13	2	2	1	0	1004	14	0	1000	48
random	0	4	9	89711	10	1	1	1	0	1226	14	0	300	49
random	0	5	0	89711	11	0	0	1	0	921	14	0	1000	50
random	0	5	1	92161	13	2	2	1	0	1033	14	0	400	51
random	0	5	2	93018	9	3	3	1	0	857	14	0	750	52
random	0	5	3	94014	13	1	1	1	0	995	14	0	900	53
random	0	5	4	94963	10	2	2	1	0	949	14	0	300	54
random	0	5	5	95831	9	3	3	1	0	868	14	0	650	55
random	0	5	6	96798	12	0	0	1	0	966	14	0	550	56
random	0	5	7	97850	14	2	2	1	0	1052	14	0	800	57
random	0	5	8	99207	12	1	1	1	0	1357	14	0	500	58
random	0	5	9	99207	11	0	0	1	0	775	14	0	1000	59
random	0	6	0	99207	14	0	0	1	0	866	14	0	1000	60
random	0	6	1	103011	11	2	2	1	0	1407	14	0	650	61
random	0	6	2	103011	14	1	1	1	0	844	14	0	900	62
random	0	6	3	104838	13	2	2	1	0	919	14	0	600	63
random	0	6	4	105672	11	0	0	1	0	834	14	0	400	64
random	0	6	5	106557	13	3	3	1	0	885	14	0	300	65
random	0	6	6	107410	10	1	1	1	0	853	14	0	700	66
random	0	6	7	108592	9	3	3	1	0	1181	14	0	750	67
random	0	6	8	109447	12	1	1	1	0	855	14	0	500	68
random	0	6	9	109447	10	2	2	1	0	861	14	0	1000	69
fixed	1	0	0	111860	8	2	2	1	0	1012	14	0	1000	70
fixed	1	0	1	112833	11	1	1	1	0	973	14	0	500	71
fixed	1	0	2	113698	10	0	0	1	0	865	14	0	650	72
fixed	1	0	3	113698	13	2	2	1	0	910	14	0	900	73
fixed	1	0	4	113698	9	3	3	1	0	936	14	0	1000	74
fixed	1	0	5	116410	11	1	1	1	0	801	14	0	400	75
fixed	1	0	6	117303	12	2	2	1	0	893	14	0	550	76
fixed	1	0	7	117303	10	0	0	1	0	767	14	0	800	77
fixed	1	0	8	119086	9	3	3	1	0	974	14	0	600	78
fixed	1	0	9	119929	8	1	1	1	0	843	14	0	750	79
fixed	1	1	0	119929	8	2	2	1	0	816	14	0	1000	80
fixed	1	1	1	122188	11	1	0	1	0	871	14	0	500	80
fixed	1	1	2	123284	10	0	0	1	0	1097	14	0	650	81
fixed	1	1	3	124268	13	2	2	1	0	984	14	0	900	82
fixed	1	1	4	124268	9	3	3	1	0	849	14	0	1000	83
fixed	1	1	5	126142	11	1	1	1	0	873	14	0	400	84
fixed	1	1	6	127143	12	2	2	1	0	1001	14	0	550	85
fixed	1	1	7	127143	10	0	0	1	0	733	14	0	800	86
fixed	1	1	8	129160	9	3	3	1	0	1208	14	0	600	87
fixed	1	1	9	130028	8	1	1	1	0	868	14	0	750	88
fixed	1	2	0	130028	8	2	2	1	0	595	14	0	1000	89
fixed	1	2	1	132495	11	1	1	1	0	1058	14	0	500	90
fixed	1	2	2	133364	10	0	0	1	0	868	14	0	650	91
fixed	1	2	3	134460	13	2	2	1	0	1096	14	0	900	92
fixed	1	2	4	136124	9	3	3	1	0	1665	14	0	1000	93
fixed	1	2	5	137014	11	1	1	1	0	890	14	0	400	94
fixed	1	2	6	137893	12	2	2	1	0	879	14	0	550	95
fixed	1	2	7	138947	10	0	0	1	0	1053	14	0	800	96
fixed	1	2	8	139951	9	3	3	1	0	1005	14	0	600	97
fixed	1	2	9	140846	8	1	1	1	0	895	14	0	750	98
fixed	1	3	0	140846	8	2	2	1	0	782	14	0	1000	99
fixed	1	3	1	143470	11	1	1	1	0	1216	14	0	500	100
fixed	1	3	2	144631	10	0	0	1	0	1162	14	0	650	101
fixed	1	3	3	145649	13	2	2	1	0	1017	14	0	900	102
fixed	1	3	4	145649	9	3	3	1	0	919	14	0	1000	103
fixed	1	3	5	148435	11	1	1	1	0	1762	14	0	400	104
fixed	1	3	6	149417	12	2	2	1	0	982	14	0	550	105
fixed	1	3	7	149417	10	0	0	1	0	769	14	0	800	106
fixed	1	3	8	151701	9	3	3	1	0	1476	14	0	600	107
fixed	1	3	9	152525	8	1	1	1	0	824	14	0	750	108
fixed	1	4	0	154188	8	2	2	1	0	1263	14	0	1000	109
fixed	1	4	1	155461	11	1	1	1	0	1272	14	0	500	110
fixed	1	4	2	156338	10	0	0	1	0	877	14	0	650	111
fixed	1	4	3	157257	13	2	2	1	0	920	14	0	900	112
fixed	1	4	4	157257	9	3	3	1	0	905	14	0	1000	113
fixed	1	4	5	159140	11	1	1	1	0	868	14	0	400	114
fixed	1	4	6	160142	12	2	2	1	0	1001	14	0	550	115
fixed	1	4	7	160142	10	0	0	1	0	826	14	0	800	116
fixed	1	4	8	162208	9	3	3	1	0	1241	14	0	600	117
fixed	1	4	9	163017	8	1	1	1	0	809	14	0	750	118
fixed	1	5	0	163017	8	2	2	1	0	638	14	0	1000	119
fixed	1	5	1	165600	11	1	1	1	0	1188	14	0	500	120
fixed	1	5	2	166511	10	0	0	1	0	911	14	0	650	121
fixed	1	5	3	166511	13	2	2	1	0	824	14	0	900	122
fixed	1	5	4	168688	9	3	3	1	0	1275	14	0	1000	123
fixed	1	5	5	169522	11	1	1	1	0	834	14	0	400	124
fixed	1	5	6	170456	12	2	2	1	0	934	14	0	550	125
fixed	1	5	7	171856	10	0	0	1	0	1400	14	0	800	126
fixed	1	5	8	172799	9	3	3	1	0	943	14	0	600	127
fixed	1	5	9	173633	8	1	1	1	0	834	14	0	750	128
fixed	1	6	0	173633	8	2	2	1	0	907	14	0	1000	129
fixed	1	6	1	175902	11	1	1	1	0	882	14	0	500	130
fixed	1	6	2	176702	10	0	0	1	0	800	14	0	650	131
fixed	1	6	3	176702	13	2	2	1	0	924	14	0	900	132
fixed	1	6	4	178821	9	3	3	1	0	1195	14	0	1000	133
fixed	1	6	5	179672	11	1	1	1	0	851	14	0	400	134
fixed	1	6	6	180522	12	2	2	1	0	849	14	0	550	135
fixed	1	6	7	181356	10	0	0	1	0	834	14	0	800	136
fixed	1	6	8	182241	9	3	2	1	0	886	14	0	600	136
fixed	1	6	9	182241	8	1	1	1	0	942	14	0	750	137
fixed	2	0	0	182241	7	2	2	1	0	946	14	0	1000	138
fixed	2	0	1	185430	10	1	0	1	0	869	14	0	500	138
fixed	2	0	2	186328	9	0	0	1	0	898	14	0	650	139
fixed	2	0	3	187797	12	2	2	1	0	1469	14	0	900	140
fixed	2	0	4	188830	8	3	3	1	0	1033	14	0	1000	141
fixed	2	0	5	189612	10	1	1	1	0	781	14	0	400	142
fixed	2	0	6	190365	11	2	2	1	0	753	14	0	550	143
fixed	2	0	7	190365	9	0	2	1	0	82	14	0	800	143
fixed	2	0	8	190365	8	3	0	1	0	18	14	0	600	143
fixed	2	0	9	190365	7	1	3	1	0	632	14	0	750	143
fixed	2	1	0	190365	7	2	1	1	0	160	14	0	1000	143
fixed	2	1	1	190365	10	1	2	1	0	211	14	0	500	143
fixed	2	1	2	195569	9	0	0	1	0	1121	14	0	650	144
fixed	2	1	3	196687	12	2	2	1	0	1118	14	0	900	145
fixed	2	1	4	196687	8	3	3	1	0	998	14	0	1000	146
fixed	2	1	5	198704	10	1	1	1	0	1000	14	0	400	147
fixed	2	1	6	199569	11	2	2	1	0	865	14	0	550	148
fixed	2	1	7	200504	9	0	0	1	0	935	14	0	800	149
fixed	2	1	8	201313	8	3	3	1	0	809	14	0	600	150
fixed	2	1	9	202154	7	1	1	1	0	841	14	0	750	151
fixed	2	2	0	202154	7	2	2	1	0	852	14	0	1000	152
fixed	2	2	1	204475	10	1	1	1	0	951	14	0	500	153
fixed	2	2	2	205292	9	0	0	1	0	817	14	0	650	154
fixed	2	2	3	206375	12	2	2	1	0	1083	14	0	900	155
fixed	2	2	4	207783	8	3	3	1	0	1408	14	0	1000	156
fixed	2	2	5	208629	10	1	1	1	0	846	14	0	400	157
fixed	2	2	6	209460	11	2	2	1	0	831	14	0	550	158
fixed	2	2	7	210602	9	0	0	1	0	1142	14	0	800	159
fixed	2	2	8	211847	8	3	3	1	0	1245	14	0	600	160
fixed	2	2	9	212764	7	1	1	1	0	917	14	0	750	161
fixed	2	3	0	212764	7	2	2	1	0	918	14	0	1000	162
fixed	2	3	1	215171	10	1	1	1	0	1009	14	0	500	163
fixed	2	3	2	216117	9	0	0	1	0	945	14	0	650	164
fixed	2	3	3	217273	12	2	2	1	0	1156	14	0	900	165
fixed	2	3	4	217273	8	3	3	1	0	812	14	0	1000	166
fixed	2	3	5	219135	10	1	1	1	0	850	14	0	400	167
fixed	2	3	6	220035	11	2	2	1	0	900	14	0	550	168
fixed	2	3	7	220919	9	0	0	1	0	883	14	0	800	169
fixed	2	3	8	222070	8	3	3	1	0	1152	14	0	600	170
fixed	2	3	9	222888	7	1	1	1	0	818	14	0	750	171
fixed	2	4	0	222888	7	2	2	1	0	518	14	0	1000	172
fixed	2	4	1	225056	10	1	1	1	0	762	14	0	500	173
fixed	2	4	2	226006	9	0	0	1	0	950	14	0	650	174
fixed	2	4	3	226962	12	2	2	1	0	957	14	0	900	175
fixed	2	4	4	228458	8	3	3	1	0	1496	14	0	1000	176
fixed	2	4	5	229527	10	1	1	1	0	1068	14	0	400	177
fixed	2	4	6	230666	11	2	2	1	0	1139	14	0	550	178
fixed	2	4	7	231510	9	0	0	1	0	844	14	0	800	179
fixed	2	4	8	232760	8	3	3	1	0	1251	14	0	600	180
fixed	2	4	9	233812	7	1	1	1	0	1051	14	0	750	181
fixed	2	5	0	235401	7	2	2	1	0	1190	14	0	1000	182
fixed	2	5	1	236513	10	1	1	1	0	1112	14	0	500	183
fixed	2	5	2	237530	9	0	0	1	0	1017	14	0	650	184
fixed	2	5	3	238482	12	2	2	1	0	951	14	0	900	185
fixed	2	5	4	238482	8	3	3	1	0	1000	14	0	1000	186
fixed	2	5	5	240389	10	1	1	1	0	907	14	0	400	187
fixed	2	5	6	241423	11	2	2	1	0	1034	14	0	550	188
fixed	2	5	7	241423	9	0	0	1	0	778	14	0	800	189
fixed	2	5	8	243635	8	3	3	1	0	1396	14	0	600	190
fixed	2	5	9	243635	7	1	1	1	0	666	14	0	750	191
fixed	2	6	0	243635	7	2	2	1	0	641	14	0	1000	192
fixed	2	6	1	246354	10	1	1	1	0	584	14	0	500	193
fixed	2	6	2	247154	9	0	0	1	0	800	14	0	650	194
fixed	2	6	3	247154	12	2	3	1	0	819	14	0	900	194
fixed	2	6	4	247154	8	3	3	1	0	751	14	0	1000	195
fixed	2	6	5	249930	10	1	1	1	0	852	14	0	400	196
fixed	2	6	6	250723	11	2	2	1	0	794	14	0	550	197
fixed	2	6	7	251663	9	0	0	1	0	940	14	0	800	198
fixed	2	6	8	252708	8	3	3	1	0	1045	14	0	600	199
fixed	2	6	9	253824	7	1	1	1	0	1116	14	0	750	200
fixed	3	0	0	253824	6	2	2	1	0	776	14	0	1000	201
fixed	3	0	1	256099	9	1	1	1	0	900	14	0	500	202
fixed	3	0	2	257044	8	0	0	1	0	944	14	0	650	203
fixed	3	0	3	258079	11	2	2	1	0	1035	14	0	900	204
fixed	3	0	4	260169	7	3	3	1	0	2089	14	0	1000	205
fixed	3	0	5	261047	9	1	1	1	0	878	14	0	400	206
fixed	3	0	6	261730	10	2	2	1	0	683	14	0	550	207
fixed	3	0	7	262621	8	0	0	1	0	891	14	0	800	208
fixed	3	0	8	263849	7	3	3	1	0	1228	14	0	600	209
fixed	3	0	9	263849	6	1	1	1	0	522	14	0	750	210
fixed	3	1	0	263849	6	2	2	1	0	822	14	0	1000	211
fixed	3	1	1	266856	9	1	1	1	0	839	14	0	500	212
fixed	3	1	2	268136	8	0	0	1	0	1280	14	0	650	213
fixed	3	1	3	268136	11	2	3	1	0	921	14	0	900	213
fixed	3	1	4	268136	7	3	3	1	0	845	14	0	1000	214
fixed	3	1	5	270987	9	1	1	1	0	917	14	0	400	215
fixed	3	1	6	271872	10	2	2	1	0	884	14	0	550	216
fixed	3	1	7	272745	8	0	0	1	0	873	14	0	800	217
fixed	3	1	8	273704	7	3	3	1	0	959	14	0	600	218
fixed	3	1	9	273704	6	1	1	1	0	557	14	0	750	219
fixed	3	2	0	273704	6	2	2	1	0	308	14	0	1000	220
fixed	3	2	1	276790	9	1	1	1	0	944	14	0	500	221
fixed	3	2	2	277672	8	0	0	1	0	881	14	0	650	222
fixed	3	2	3	278824	11	2	2	1	0	1152	14	0	900	223
fixed	3	2	4	278824	7	3	3	1	0	884	14	0	1000	224
fixed	3	2	5	280789	9	1	1	1	0	956	14	0	400	225
fixed	3	2	6	281711	10	2	2	1	0	922	14	0	550	226
fixed	3	2	7	282928	8	0	0	1	0	1217	14	0	800	227
fixed	3	2	8	283844	7	3	3	1	0	916	14	0	600	228
fixed	3	2	9	285077	6	1	1	1	0	1232	14	0	750	229
fixed	3	3	0	286498	6	2	2	1	0	1087	14	0	1000	230
fixed	3	3	1	287314	9	1	1	1	0	816	14	0	500	231
fixed	3	3	2	288172	8	0	0	1	0	858	14	0	650	232
fixed	3	3	3	289306	11	2	2	1	0	1134	14	0	900	233
fixed	3	3	4	289306	7	3	3	1	0	659	14	0	1000	234
fixed	3	3	5	291152	9	1	1	1	0	829	14	0	400	235
fixed	3	3	6	292036	10	2	2	1	0	884	14	0	550	236
fixed	3	3	7	292918	8	0	0	1	0	881	14	0	800	237
fixed	3	3	8	294537	7	3	3	1	0	1620	14	0	600	238
fixed	3	3	9	295544	6	1	1	1	0	1007	14	0	750	239
fixed	3	4	0	295544	6	2	2	1	0	482	14	0	1000	240
fixed	3	4	1	297544	9	1	1	1	0	639	14	0	500	241
fixed	3	4	2	298373	8	0	0	1	0	829	14	0	650	242
fixed	3	4	3	299407	11	2	2	1	0	1034	14	0	900	243
fixed	3	4	4	301648	7	3	3	1	0	2241	14	0	1000	244
fixed	3	4	5	302414	9	1	1	1	0	766	14	0	400	245
fixed	3	4	6	303175	10	2	2	1	0	761	14	0	550	246
fixed	3	4	7	304482	8	0	0	1	0	1306	14	0	800	247
fixed	3	4	8	305851	7	3	3	1	0	1369	14	0	600	248
fixed	3	4	9	305851	6	1	1	1	0	678	14	0	750	249
fixed	3	5	0	305851	6	2	2	1	0	512	14	0	1000	250
fixed	3	5	1	308996	9	1	1	1	0	1011	14	0	500	251
fixed	3	5	2	309784	8	0	0	1	0	788	14	0	650	252
fixed	3	5	3	311164	11	2	3	1	0	1380	14	0	900	252
fixed	3	5	4	312215	7	3	3	1	0	1051	14	0	1000	253
fixed	3	5	5	313434	9	1	2	1	0	1219	14	0	400	253
fixed	3	5	6	314974	10	2	2	1	0	1540	14	0	550	254
fixed	3	5	7	315973	8	0	0	1	0	999	14	0	800	255
fixed	3	5	8	317234	7	3	3	1	0	1261	14	0	600	256
fixed	3	5	9	318202	6	1	1	1	0	968	14	0	750	257
fixed	3	6	0	318202	6	2	2	1	0	561	14	0	1000	258
fixed	3	6	1	320272	9	1	1	1	0	652	14	0	500	259
fixed	3	6	2	321172	8	0	0	1	0	900	14	0	650	260
fixed	3	6	3	322428	11	2	2	1	0	1256	14	0	900	261
fixed	3	6	4	322428	7	3	3	1	0	895	14	0	1000	262
fixed	3	6	5	324273	9	1	1	1	0	817	14	0	400	263
fixed	3	6	6	325397	10	2	2	1	0	1124	14	0	550	264
fixed	3	6	7	326742	8	0	0	1	0	1345	14	0	800	265
fixed	3	6	8	327743	7	3	3	1	0	1001	14	0	600	266
fixed	3	6	9	329044	6	1	0	1	0	1301	14	0	750	266
fixed	4	0	0	330445	5	2	2	1	0	1018	14	0	1000	267
fixed	4	0	1	331412	8	1	1	1	0	967	14	0	500	268
fixed	4	0	2	332212	7	0	0	1	0	801	14	0	650	269
fixed	4	0	3	333396	10	2	2	1	0	1183	14	0	900	270
fixed	4	0	4	334598	6	3	3	1	0	1202	14	0	1000	271
fixed	4	0	5	335837	8	1	1	1	0	1239	14	0	400	272
fixed	4	0	6	336849	9	2	2	1	0	1011	14	0	550	273
fixed	4	0	7	338000	7	0	0	1	0	1151	14	0	800	274
fixed	4	0	8	338868	6	3	2	1	0	868	14	0	600	274
fixed	4	0	9	339784	5	1	1	1	0	916	14	0	750	275
fixed	4	1	0	339784	5	2	2	1	0	578	14	0	1000	276
fixed	4	1	1	341970	8	1	1	1	0	796	14	0	500	277
fixed	4	1	2	343027	7	0	0	1	0	1057	14	0	650	278
fixed	4	1	3	344460	10	2	2	1	0	1433	14	0	900	279
fixed	4	1	4	344460	6	3	3	1	0	750	14	0	1000	280
fixed	4	1	5	346312	8	1	1	1	0	842	14	0	400	281
fixed	4	1	6	347173	9	2	2	1	0	861	14	0	550	282
fixed	4	1	7	348274	7	0	0	1	0	1102	14	0	800	283
fixed	4	1	8	349723	6	3	3	1	0	1448	14	0	600	284
fixed	4	1	9	351165	5	1	1	1	0	1442	14	0	750	285
fixed	4	2	0	351165	5	2	2	1	0	484	14	0	1000	286
fixed	4	2	1	353249	8	1	1	1	0	688	14	0	500	287
fixed	4	2	2	354078	7	0	0	1	0	830	14	0	650	288
fixed	4	2	3	355211	10	2	2	1	0	1133	14	0	900	289
fixed	4	2	4	355211	6	3	3	1	0	906	14	0	1000	290
fixed	4	2	5	357214	8	1	1	1	0	1002	14	0	400	291
fixed	4	2	6	357896	9	2	2	1	0	683	14	0	550	292
fixed	4	2	7	358764	7	0	0	1	0	868	14	0	800	293
fixed	4	2	8	359738	6	3	2	1	0	974	14	0	600	293
fixed	4	2	9	360733	5	1	3	1	0	995	14	0	750	293
fixed	4	3	0	362450	5	2	2	1	0	1368	14	0	1000	294
fixed	4	3	1	363448	8	1	1	1	0	997	14	0	500	295
fixed	4	3	2	364331	7	0	0	1	0	883	14	0	650	296
fixed	4	3	3	365440	10	2	2	1	0	1109	14	0	900	297
fixed	4	3	4	366642	6	3	3	1	0	1201	14	0	1000	298
fixed	4	3	5	367854	8	1	1	1	0	1212	14	0	400	299
fixed	4	3	6	368693	9	2	2	1	0	838	14	0	550	300
fixed	4	3	7	368693	7	0	0	1	0	761	14	0	800	301
fixed	4	3	8	371005	6	3	3	1	0	1502	14	0	600	302
fixed	4	3	9	371874	5	1	1	1	0	869	14	0	750	303
fixed	4	4	0	371874	5	2	1	1	0	992	14	0	1000	303
fixed	4	4	1	375065	8	1	1	1	0	1795	14	0	500	304
fixed	4	4	2	376082	7	0	0	1	0	1016	14	0	650	305
fixed	4	4	3	377566	10	2	2	1	0	1485	14	0	900	306
fixed	4	4	4	379045	6	3	3	1	0	1479	14	0	1000	307
fixed	4	4	5	380201	8	1	1	1	0	1156	14	0	400	308
fixed	4	4	6	381144	9	2	2	1	0	943	14	0	550	309
fixed	4	4	7	382028	7	0	0	1	0	884	14	0	800	310
fixed	4	4	8	383019	6	3	3	1	0	990	14	0	600	311
fixed	4	4	9	384214	5	1	1	1	0	1195	14	0	750	312
fixed	4	5	0	384214	5	2	2	1	0	651	14	0	1000	313
fixed	4	5	1	386500	8	1	1	1	0	885	14	0	500	314
fixed	4	5	2	387757	7	0	0	1	0	1257	14	0	650	315
fixed	4	5	3	388841	10	2	2	1	0	1084	14	0	900	316
fixed	4	5	4	388841	6	3	3	1	0	951	14	0	1000	317
fixed	4	5	5	390927	8	1	1	1	0	1070	14	0	400	318
fixed	4	5	6	391769	9	2	2	1	0	842	14	0	550	319
fixed	4	5	7	392653	7	0	0	1	0	884	14	0	800	320
fixed	4	5	8	393619	6	3	2	1	0	966	14	0	600	320
fixed	4	5	9	394544	5	1	1	1	0	925	14	0	750	321
fixed	4	6	0	394544	5	2	2	1	0	529	14	0	1000	322
fixed	4	6	1	396555	8	1	1	1	0	627	14	0	500	323
fixed	4	6	2	397512	7	0	0	1	0	957	14	0	650	324
fixed	4	6	3	397512	10	2	2	1	0	792	14	0	900	325
fixed	4	6	4	397512	6	3	3	1	0	660	14	0	1000	326
fixed	4	6	5	400427	8	1	1	1	0	996	14	0	400	327
fixed	4	6	6	401594	9	2	2	1	0	1166	14	0	550	328
fixed	4	6	7	402443	7	0	0	1	0	849	14	0	800	329
fixed	4	6	8	403450	6	3	3	1	0	1007	14	0	600	330
fixed	4	6	9	404363	5	1	1	1	0	913	14	0	750	331
fixed	5	0	0	404363	4	2	2	1	0	922	14	0	1000	332
fixed	5	0	1	406431	7	1	1	1	0	651	14	0	500	333
fixed	5	0	2	407548	6	0	0	1	0	1117	14	0	650	334
fixed	5	0	3	408722	9	2	2	1	0	1174	14	0	900	335
fixed	5	0	4	408722	5	3	3	1	0	894	14	0	1000	336
fixed	5	0	5	410900	7	1	1	1	0	1163	14	0	400	337
fixed	5	0	6	411950	8	2	2	1	0	1051	14	0	550	338
fixed	5	0	7	411950	6	0	0	1	0	800	14	0	800	339
fixed	5	0	8	413702	5	3	3	1	0	951	14	0	600	340
fixed	5	0	9	416036	4	1	1	1	0	2334	14	0	750	341
fixed	5	1	0	416036	4	2	2	1	0	679	14	0	1000	342
fixed	5	1	1	418168	7	1	1	1	0	764	14	0	500	343
fixed	5	1	2	419123	6	0	0	1	0	954	14	0	650	344
fixed	5	1	3	419123	9	2	2	1	0	767	14	0	900	345
fixed	5	1	4	419123	5	3	3	1	0	991	14	0	1000	346
fixed	5	1	5	421908	7	1	1	1	0	854	14	0	400	347
fixed	5	1	6	422591	8	2	2	1	0	683	14	0	550	348
fixed	5	1	7	423459	6	0	0	1	0	868	14	0	800	349
fixed	5	1	8	424476	5	3	3	1	0	1017	14	0	600	350
fixed	5	1	9	425699	4	1	1	1	0	1223	14	0	750	351
fixed	5	2	0	425699	4	2	2	1	0	534	14	0	1000	352
fixed	5	2	1	427709	7	1	1	1	0	607	14	0	500	353
fixed	5	2	2	428661	6	0	0	1	0	953	14	0	650	354
fixed	5	2	3	429796	9	2	2	1	0	1135	14	0	900	355
fixed	5	2	4	431046	5	3	3	1	0	1250	14	0	1000	356
fixed	5	2	5	432030	7	1	1	1	0	984	14	0	400	357
fixed	5	2	6	433004	8	2	2	1	0	974	14	0	550	358
fixed	5	2	7	433964	6	0	0	1	0	960	14	0	800	359
fixed	5	2	8	434899	5	3	3	1	0	935	14	0	600	360
fixed	5	2	9	435790	4	1	1	1	0	891	14	0	750	361
fixed	5	3	0	435790	4	2	2	1	0	628	14	0	1000	362
fixed	5	3	1	437941	7	1	1	1	0	768	14	0	500	363
fixed	5	3	2	438683	6	0	0	1	0	742	14	0	650	364
fixed	5	3	3	439876	9	2	2	1	0	1192	14	0	900	365
fixed	5	3	4	439876	5	3	3	1	0	829	14	0	1000	366
fixed	5	3	5	441837	7	1	1	1	0	960	14	0	400	367
fixed	5	3	6	442788	8	2	2	1	0	951	14	0	550	368
fixed	5	3	7	442788	6	0	0	1	0	773	14	0	800	369
fixed	5	3	8	445140	5	3	3	1	0	1552	14	0	600	370
fixed	5	3	9	446013	4	1	1	1	0	872	14	0	750	371
fixed	5	4	0	446013	4	2	2	1	0	439	14	0	1000	372
fixed	5	4	1	448031	7	1	1	1	0	640	14	0	500	373
fixed	5	4	2	449443	6	0	0	1	0	1412	14	0	650	374
fixed	5	4	3	450577	9	2	2	1	0	1134	14	0	900	375
fixed	5	4	4	450577	5	3	3	1	0	851	14	0	1000	376
fixed	5	4	5	452678	7	1	1	1	0	1101	14	0	400	377
fixed	5	4	6	453762	8	2	2	1	0	1084	14	0	550	378
fixed	5	4	7	454919	6	0	0	1	0	1156	14	0	800	379
fixed	5	4	8	456298	5	3	3	1	0	1379	14	0	600	380
fixed	5	4	9	457282	4	1	1	1	0	984	14	0	750	381
fixed	5	5	0	457282	4	2	2	1	0	568	14	0	1000	382
fixed	5	5	1	459450	7	1	1	1	0	750	14	0	500	383
fixed	5	5	2	461016	6	0	0	1	0	1566	14	0	650	384
fixed	5	5	3	461016	9	2	3	1	0	590	14	0	900	384
fixed	5	5	4	461016	5	3	2	1	0	639	14	0	1000	384
fixed	5	5	5	463902	7	1	1	1	0	983	14	0	400	385
fixed	5	5	6	464776	8	2	2	1	0	874	14	0	550	386
fixed	5	5	7	465688	6	0	0	1	0	912	14	0	800	387
fixed	5	5	8	466486	5	3	3	1	0	798	14	0	600	388
fixed	5	5	9	467488	4	1	1	1	0	1001	14	0	750	389
fixed	5	6	0	467488	4	2	2	1	0	667	14	0	1000	390
fixed	5	6	1	469729	7	1	1	1	0	840	14	0	500	391
fixed	5	6	2	470924	6	0	0	1	0	1195	14	0	650	392
fixed	5	6	3	470924	9	2	2	1	0	917	14	0	900	393
fixed	5	6	4	472881	5	3	3	1	0	1040	14	0	1000	394
fixed	5	6	5	473725	7	1	1	1	0	844	14	0	400	395
fixed	5	6	6	474677	8	2	2	1	0	952	14	0	550	396
fixed	5	6	7	475679	6	0	0	1	0	1001	14	0	800	397
fixed	5	6	8	477129	5	3	3	1	0	1450	14	0	600	398
fixed	5	6	9	478096	4	1	1	1	0	967	14	0	750	399
random	6	0	0	480364	4	3	3	1	0	1859	14	0	1000	400
random	6	0	1	482100	7	1	1	1	0	1736	14	0	550	401
random	6	0	2	482100	4	3	3	1	0	766	14	0	900	402
random	6	0	3	483933	5	0	0	1	0	917	14	0	750	403
random	6	0	4	484934	8	2	2	1	0	1001	14	0	600	404
random	6	0	5	486236	3	0	0	1	0	1301	14	0	300	405
random	6	0	6	487219	6	1	1	1	0	983	14	0	400	406
random	6	0	7	487219	3	2	2	1	0	822	14	0	1000	407
random	6	0	8	489136	7	3	1	1	0	917	14	0	500	407
random	6	0	9	490243	6	2	2	1	0	1107	14	0	800	408
random	6	1	0	491505	7	3	3	1	0	869	14	0	650	409
random	6	1	1	492564	8	2	2	1	0	1058	14	0	600	410
random	6	1	2	493680	5	1	1	1	0	1116	14	0	300	411
random	6	1	3	494997	4	2	2	1	0	1316	14	0	1000	412
random	6	1	4	496024	8	1	1	1	0	1027	14	0	900	413
random	6	1	5	497009	3	0	0	1	0	985	14	0	800	414
random	6	1	6	498176	4	3	3	1	0	1167	14	0	750	415
random	6	1	7	499228	3	2	2	1	0	1052	14	0	400	416
random	6	1	8	499228	6	1	1	1	0	872	14	0	1000	417
random	6	1	9	500951	5	0	0	1	0	718	14	0	500	418
random	6	2	0	502435	3	1	1	1	0	1091	14	0	900	419
random	6	2	1	503362	7	0	0	1	0	927	14	0	300	420
random	6	2	2	503362	8	3	3	1	0	950	14	0	1000	421
random	6	2	3	505354	6	0	0	1	0	991	14	0	550	422
random	6	2	4	505354	5	2	2	1	0	762	14	0	1000	423
random	6	2	5	507316	4	1	1	1	0	961	14	0	400	424
random	6	2	6	508484	5	3	3	1	0	1169	14	0	600	425
random	6	2	7	509173	7	2	2	1	0	688	14	0	500	426
random	6	2	8	510207	3	3	3	1	0	1034	14	0	750	427
random	6	2	9	511209	8	2	2	1	0	1002	14	0	650	428
random	6	3	0	511209	3	0	0	1	0	895	14	0	900	429
random	6	3	1	513621	7	2	1	1	0	1095	14	0	300	429
random	6	3	2	513621	8	1	1	1	0	807	14	0	1000	430
random	6	3	3	515689	6	3	3	1	0	1051	14	0	550	431
random	6	3	4	515689	5	1	0	1	0	950	14	0	1000	431
random	6	3	5	517679	4	0	0	1	0	973	14	0	400	432
random	6	3	6	518896	5	3	2	1	0	1217	14	0	600	432
random	6	3	7	520447	7	2	2	1	0	1552	14	0	500	433
random	6	3	8	521474	3	1	1	1	0	1026	14	0	750	434
random	6	3	9	522310	8	2	2	1	0	836	14	0	650	435
random	6	4	0	523627	4	3	3	1	0	934	14	0	500	436
random	6	4	1	524567	8	2	2	1	0	940	14	0	600	437
random	6	4	2	525534	5	1	1	1	0	967	14	0	900	438
random	6	4	3	525534	8	0	0	1	0	760	14	0	1000	439
random	6	4	4	528264	7	3	3	1	0	1720	14	0	650	440
random	6	4	5	529414	3	1	1	1	0	1150	14	0	550	441
random	6	4	6	530487	6	3	3	1	0	1073	14	0	800	442
random	6	4	7	531366	5	0	0	1	0	879	14	0	700	443
random	6	4	8	531366	7	2	2	1	0	838	14	0	1000	444
random	6	4	9	533300	4	1	1	1	0	928	14	0	300	445
random	6	5	0	534907	5	0	0	1	0	1242	14	0	1000	446
random	6	5	1	536136	7	2	2	1	0	1229	14	0	400	447
random	6	5	2	537069	3	3	3	1	0	933	14	0	750	448
random	6	5	3	537069	7	1	1	1	0	885	14	0	900	449
random	6	5	4	538972	4	2	2	1	0	995	14	0	300	450
random	6	5	5	539960	3	3	3	1	0	988	14	0	650	451
random	6	5	6	540872	6	0	0	1	0	912	14	0	550	452
random	6	5	7	542041	8	2	2	1	0	1168	14	0	800	453
random	6	5	8	542940	6	1	1	1	0	899	14	0	500	454
random	6	5	9	544215	5	0	0	1	0	1275	14	0	1000	455
random	6	6	0	544215	8	0	0	1	0	890	14	0	1000	456
random	6	6	1	547362	5	2	2	1	0	1770	14	0	650	457
random	6	6	2	548392	8	1	1	1	0	1030	14	0	900	458
random	6	6	3	549295	7	2	2	1	0	903	14	0	600	459
random	6	6	4	550278	5	0	0	1	0	983	14	0	400	460
random	6	6	5	551146	7	3	3	1	0	868	14	0	300	461
random	6	6	6	552064	4	1	1	1	0	918	14	0	700	462
random	6	6	7	553538	3	3	2	1	0	1474	14	0	750	462
random	6	6	8	554454	6	1	1	1	0	916	14	0	500	463
random	6	6	9	554454	4	2	3	1	0	968	14	0	1000	463
fixed	7	0	0	557204	2	2	2	1	0	1368	14	0	1000	464
fixed	7	0	1	558784	5	1	1	1	0	1580	14	0	500	465
fixed	7	0	2	559542	4	0	0	1	0	757	14	0	650	466
fixed	7	0	3	559542	7	2	2	1	0	875	14	0	900	467
fixed	7	0	4	559542	3	3	3	1	0	611	14	0	1000	468
fixed	7	0	5	562371	5	1	1	1	0	917	14	0	400	469
fixed	7	0	6	563528	6	2	2	1	0	1156	14	0	550	470
fixed	7	0	7	564378	4	0	0	1	0	850	14	0	800	471
fixed	7	0	8	566774	3	3	3	1	0	2396	14	0	600	472
fixed	7	0	9	567781	2	1	1	1	0	1007	14	0	750	473
fixed	7	1	0	567781	2	2	2	1	0	781	14	0	1000	474
fixed	7	1	1	570143	5	1	1	1	0	985	14	0	500	475
fixed	7	1	2	571882	4	0	0	1	0	1739	14	0	650	476
fixed	7	1	3	571882	7	2	2	1	0	876	14	0	900	477
fixed	7	1	4	574429	3	3	3	1	0	1622	14	0	1000	478
fixed	7	1	5	575630	5	1	1	1	0	1200	14	0	400	479
fixed	7	1	6	576219	6	2	2	1	0	589	14	0	550	480
fixed	7	1	7	577052	4	0	0	1	0	833	14	0	800	481
fixed	7	1	8	577849	3	3	3	1	0	797	14	0	600	482
fixed	7	1	9	578732	2	1	1	1	0	883	14	0	750	483
fixed	7	2	0	578732	2	2	2	1	0	589	14	0	1000	484
fixed	7	2	1	581622	5	1	1	1	0	1474	14	0	500	485
fixed	7	2	2	582984	4	0	0	1	0	1362	14	0	650	486
fixed	7	2	3	584003	7	2	2	1	0	1019	14	0	900	487
fixed	7	2	4	585226	3	3	3	1	0	1222	14	0	1000	488
fixed	7	2	5	586393	5	1	1	1	0	1168	14	0	400	489
fixed	7	2	6	587354	6	2	2	1	0	961	14	0	550	490
fixed	7	2	7	588256	4	0	0	1	0	902	14	0	800	491
fixed	7	2	8	589161	3	3	3	1	0	904	14	0	600	492
fixed	7	2	9	590113	2	1	1	1	0	952	14	0	750	493
fixed	7	3	0	590113	2	2	2	1	0	718	14	0	1000	494
fixed	7	3	1	592174	5	1	1	1	0	662	14	0	500	495
fixed	7	3	2	593008	4	0	0	1	0	834	14	0	650	496
fixed	7	3	3	594143	7	2	2	1	0	1134	14	0	900	497
fixed	7	3	4	595249	3	3	3	1	0	1106	14	0	1000	498
fixed	7	3	5	596375	5	1	1	1	0	1126	14	0	400	499
fixed	7	3	6	597845	6	2	2	1	0	1470	14	0	550	500
fixed	7	3	7	597845	4	0	0	1	0	784	14	0	800	501
fixed	7	3	8	599963	3	3	3	1	0	1312	14	0	600	502
fixed	7	3	9	600964	2	1	1	1	0	1001	14	0	750	503
fixed	7	4	0	600964	2	2	2	1	0	507	14	0	1000	504
fixed	7	4	1	602915	5	1	1	1	0	551	14	0	500	505
fixed	7	4	2	603898	4	0	0	1	0	983	14	0	650	506
fixed	7	4	3	605101	7	2	2	1	0	1202	14	0	900	507
fixed	7	4	4	605101	3	3	3	1	0	822	14	0	1000	508
fixed	7	4	5	606917	5	1	1	1	0	816	14	0	400	509
fixed	7	4	6	607808	6	2	2	1	0	891	14	0	550	510
fixed	7	4	7	608660	4	0	0	1	0	852	14	0	800	511
fixed	7	4	8	609570	3	3	3	1	0	909	14	0	600	512
fixed	7	4	9	610672	2	1	1	1	0	1102	14	0	750	513
fixed	7	5	0	610672	2	2	2	1	0	518	14	0	1000	514
fixed	7	5	1	612655	5	1	1	1	0	595	14	0	500	515
fixed	7	5	2	613656	4	0	0	1	0	1001	14	0	650	516
fixed	7	5	3	614807	7	2	2	1	0	1151	14	0	900	517
fixed	7	5	4	614807	3	3	3	1	0	940	14	0	1000	518
fixed	7	5	5	616723	5	1	1	1	0	911	14	0	400	519
fixed	7	5	6	618075	6	2	2	1	0	1352	14	0	550	520
fixed	7	5	7	619226	4	0	0	1	0	1151	14	0	800	521
fixed	7	5	8	619999	3	3	2	1	0	773	14	0	600	521
fixed	7	5	9	621009	2	1	1	1	0	1010	14	0	750	522
fixed	7	6	0	621009	2	2	2	1	0	676	14	0	1000	523
fixed	7	6	1	623040	5	1	1	1	0	661	14	0	500	524
fixed	7	6	2	623796	4	0	0	1	0	755	14	0	650	525
fixed	7	6	3	623796	7	2	3	1	0	852	14	0	900	525
fixed	7	6	4	623796	3	3	3	1	0	668	14	0	1000	526
fixed	7	6	5	626698	5	1	1	1	0	979	14	0	400	527
fixed	7	6	6	627633	6	2	3	1	0	935	14	0	550	527
fixed	7	6	7	627633	4	0	2	1	0	65	14	0	800	527
fixed	7	6	8	627633	3	3	1	1	0	183	14	0	600	527
fixed	7	6	9	630434	2	1	1	1	0	1378	14	0	750	528
