type	block	sequ.	trial	time	Pos.	Color	Button	NumRsp	Resp_1	RT_1	R_Code	Resp_2	RT_2	Trigg.	n_hit	n_inc	n_miss	score_%
random	0	0	0	198665	11	3	3	1	0	1416	14	0	1000	1
random	0	0	1	199796	14	1	1	1	0	1131	14	0	550	2
random	0	0	2	199796	11	3	3	1	0	868	14	0	900	3
random	0	0	3	202079	12	0	0	1	0	1368	14	0	750	4
random	0	0	4	203011	15	2	2	1	0	931	14	0	600	5
random	0	0	5	203760	10	0	0	1	0	750	14	0	300	6
random	0	0	6	204993	13	1	1	1	0	1233	14	0	400	7
random	0	0	7	204993	10	2	0	1	0	800	14	0	1000	7
random	0	0	8	207243	14	3	3	1	0	1249	14	0	500	8
random	0	0	9	208326	13	2	2	1	0	1083	14	0	800	9
random	0	1	0	209978	14	3	3	1	0	1268	14	0	650	10
random	0	1	1	210993	15	2	2	1	0	1015	14	0	600	11
random	0	1	2	212041	12	1	1	1	0	1048	14	0	300	12
random	0	1	3	213409	11	2	2	1	0	1368	14	0	1000	13
random	0	1	4	214407	15	1	1	1	0	998	14	0	900	14
random	0	1	5	214407	10	0	0	1	0	750	14	0	800	15
random	0	1	6	216356	11	3	3	1	0	1131	14	0	750	16
random	0	1	7	217441	10	2	2	1	0	1085	14	0	400	17
random	0	1	8	217441	13	1	1	1	0	932	14	0	1000	18
random	0	1	9	219206	12	0	0	1	0	750	14	0	500	19
random	0	2	0	220822	10	1	1	1	0	1249	14	0	900	20
random	0	2	1	221639	14	0	0	1	0	816	14	0	300	21
random	0	2	2	222754	15	3	3	1	0	1115	14	0	1000	22
random	0	2	3	223737	13	0	0	1	0	983	14	0	550	23
random	0	2	4	223737	12	2	2	1	0	633	14	0	1000	24
random	0	2	5	225821	11	1	1	1	0	1084	14	0	400	25
random	0	2	6	226837	12	3	3	1	0	1015	14	0	600	26
random	0	2	7	227736	14	2	2	1	0	899	14	0	500	27
random	0	2	8	228536	10	3	3	1	0	800	14	0	750	28
random	0	2	9	229286	15	2	2	1	0	750	14	0	650	29
random	0	3	0	230768	10	0	0	1	0	1117	14	0	900	30
random	0	3	1	231788	14	2	2	1	0	1020	14	0	300	31
random	0	3	2	231788	15	1	1	1	0	913	14	0	1000	32
random	0	3	3	233768	13	3	3	1	0	966	14	0	550	33
random	0	3	4	233768	12	1	1	1	0	983	14	0	1000	34
random	0	3	5	235600	11	0	0	1	0	816	14	0	400	35
random	0	3	6	236732	12	3	3	1	0	1133	14	0	600	36
random	0	3	7	237700	14	2	2	1	0	968	14	0	500	37
random	0	3	8	238649	10	1	1	1	0	949	14	0	750	38
random	0	3	9	239566	15	2	2	1	0	918	14	0	650	39
random	0	4	0	240999	11	3	3	1	0	1084	14	0	500	40
random	0	4	1	241981	15	2	2	1	0	982	14	0	600	41
random	0	4	2	242915	12	1	1	1	0	933	14	0	900	42
random	0	4	3	242915	15	0	0	1	0	650	14	0	1000	43
random	0	4	4	245230	14	3	3	1	0	1299	14	0	650	44
random	0	4	5	246397	10	1	1	1	0	1167	14	0	550	45
random	0	4	6	247380	13	3	3	1	0	984	14	0	800	46
random	0	4	7	248495	12	0	0	1	0	1115	14	0	700	47
random	0	4	8	248495	14	2	2	1	0	867	14	0	1000	48
random	0	4	9	250446	11	1	1	1	0	934	14	0	300	49
random	0	5	0	250446	12	0	0	1	0	949	14	0	1000	50
random	0	5	1	252729	14	2	2	1	0	918	14	0	400	51
random	0	5	2	253644	10	3	3	1	0	915	14	0	750	52
random	0	5	3	254727	14	1	1	1	0	1083	14	0	900	53
random	0	5	4	255677	11	2	3	1	0	949	14	0	300	53
random	0	5	5	256910	10	3	3	1	0	1233	14	0	650	54
random	0	5	6	257844	13	0	0	1	0	934	14	0	550	55
random	0	5	7	258677	15	2	2	1	0	833	14	0	800	56
random	0	5	8	259608	13	1	1	1	0	931	14	0	500	57
random	0	5	9	259608	12	0	0	1	0	750	14	0	1000	58
random	0	6	0	262108	15	0	0	1	0	1133	14	0	1000	59
random	0	6	1	263191	12	2	2	1	0	1082	14	0	650	60
random	0	6	2	264124	15	1	1	1	0	933	14	0	900	61
random	0	6	3	265006	14	2	2	1	0	883	14	0	600	62
random	0	6	4	265789	12	0	0	1	0	783	14	0	400	63
random	0	6	5	266706	14	3	3	1	0	917	14	0	300	64
random	0	6	6	267673	11	1	1	1	0	967	14	0	700	65
random	0	6	7	268706	10	3	3	1	0	1033	14	0	750	66
random	0	6	8	269590	13	1	1	1	0	884	14	0	500	67
random	0	6	9	269590	11	2	2	1	0	849	14	0	1000	68
fixed	1	0	0	272371	9	2	2	1	0	1410	14	0	1000	69
fixed	1	0	1	273222	12	1	1	1	0	851	14	0	500	70
fixed	1	0	2	273222	11	0	0	1	0	615	14	0	650	71
fixed	1	0	3	273222	14	2	2	1	0	915	14	0	900	72
fixed	1	0	4	273222	10	3	3	1	0	933	14	0	1000	73
fixed	1	0	5	276770	12	1	1	1	0	967	14	0	400	74
fixed	1	0	6	277786	13	2	2	1	0	1015	14	0	550	75
fixed	1	0	7	277786	11	0	0	1	0	784	14	0	800	76
fixed	1	0	8	279502	10	3	3	1	0	899	14	0	600	77
fixed	1	0	9	280503	9	1	1	1	0	1001	14	0	750	78
fixed	1	1	0	280503	9	2	2	1	0	917	14	0	1000	79
fixed	1	1	1	282785	12	1	1	1	0	917	14	0	500	80
fixed	1	1	2	283600	11	0	0	1	0	815	14	0	650	81
fixed	1	1	3	284551	14	2	2	1	0	951	14	0	900	82
fixed	1	1	4	284551	10	3	3	1	0	883	14	0	1000	83
fixed	1	1	5	286517	12	1	1	1	0	950	14	0	400	84
fixed	1	1	6	287499	13	2	2	1	0	982	14	0	550	85
fixed	1	1	7	288349	11	0	1	1	0	850	14	0	800	85
fixed	1	1	8	289465	10	3	3	1	0	1115	14	0	600	86
fixed	1	1	9	290666	9	1	1	1	0	1201	14	0	750	87
fixed	1	2	0	292432	9	2	2	1	0	1399	14	0	1000	88
fixed	1	2	1	293263	12	1	1	1	0	831	14	0	500	89
fixed	1	2	2	293263	11	0	0	1	0	569	14	0	650	90
fixed	1	2	3	293263	14	2	2	1	0	818	14	0	900	91
fixed	1	2	4	293263	10	3	3	1	0	715	14	0	1000	92
fixed	1	2	5	296763	12	1	1	1	0	916	14	0	400	93
fixed	1	2	6	297697	13	2	2	1	0	934	14	0	550	94
fixed	1	2	7	297697	11	0	0	1	0	799	14	0	800	95
fixed	1	2	8	299396	10	3	3	1	0	884	14	0	600	96
fixed	1	2	9	300278	9	1	2	1	0	881	14	0	750	96
fixed	1	3	0	300278	9	2	2	1	0	683	14	0	1000	97
fixed	1	3	1	302844	12	1	1	1	0	1217	14	0	500	98
fixed	1	3	2	303560	11	0	0	1	0	716	14	0	650	99
fixed	1	3	3	304643	14	2	2	1	0	1082	14	0	900	100
fixed	1	3	4	304643	10	3	1	1	0	900	14	0	1000	100
fixed	1	3	5	306827	12	1	1	1	0	1167	14	0	400	101
fixed	1	3	6	307876	13	2	2	1	0	1049	14	0	550	102
fixed	1	3	7	307876	11	0	0	1	0	750	14	0	800	103
fixed	1	3	8	309408	10	3	3	1	0	732	14	0	600	104
fixed	1	3	9	310575	9	1	2	1	0	1167	14	0	750	104
fixed	1	4	0	310575	9	2	2	1	0	900	14	0	1000	105
fixed	1	4	1	312991	12	1	1	1	0	1066	14	0	500	106
fixed	1	4	2	312991	11	0	0	1	0	566	14	0	650	107
fixed	1	4	3	314656	14	2	2	1	0	1000	14	0	900	108
fixed	1	4	4	314656	10	3	3	1	0	800	14	0	1000	109
fixed	1	4	5	316590	12	1	1	1	0	934	14	0	400	110
fixed	1	4	6	317589	13	2	2	1	0	999	14	0	550	111
fixed	1	4	7	317589	11	0	0	1	0	800	14	0	800	112
fixed	1	4	8	319371	10	3	3	1	0	966	14	0	600	113
fixed	1	4	9	320421	9	1	1	1	0	1050	14	0	750	114
fixed	1	5	0	322037	9	2	2	1	0	1249	14	0	1000	115
fixed	1	5	1	323088	12	1	1	1	0	1051	14	0	500	116
fixed	1	5	2	323804	11	0	0	1	0	715	14	0	650	117
fixed	1	5	3	323804	14	2	2	1	0	900	14	0	900	118
fixed	1	5	4	323804	10	3	3	1	0	750	14	0	1000	119
fixed	1	5	5	326720	12	1	1	1	0	1000	14	0	400	120
fixed	1	5	6	327619	13	2	2	1	0	898	14	0	550	121
fixed	1	5	7	327619	11	0	0	1	0	684	14	0	800	122
fixed	1	5	8	329151	10	3	3	1	0	731	14	0	600	123
fixed	1	5	9	329985	9	1	2	1	0	834	14	0	750	123
fixed	1	6	0	329985	9	2	2	1	0	634	14	0	1000	124
fixed	1	6	1	332167	12	1	1	1	0	817	14	0	500	125
fixed	1	6	2	332967	11	0	0	1	0	800	14	0	650	126
fixed	1	6	3	333934	14	2	2	1	0	967	14	0	900	127
fixed	1	6	4	333934	10	3	3	1	0	733	14	0	1000	128
fixed	1	6	5	335849	12	1	1	1	0	899	14	0	400	129
fixed	1	6	6	336732	13	2	2	1	0	883	14	0	550	130
fixed	1	6	7	336732	11	0	0	1	0	733	14	0	800	131
fixed	1	6	8	338248	10	3	2	1	0	715	14	0	600	131
fixed	1	6	9	339466	9	1	1	1	0	1218	14	0	750	132
fixed	2	0	0	339466	8	2	2	1	0	897	14	0	1000	133
fixed	2	0	1	341748	11	1	1	1	0	917	14	0	500	134
fixed	2	0	2	341748	10	0	0	1	0	584	14	0	650	135
fixed	2	0	3	341748	13	2	2	1	0	885	14	0	900	136
fixed	2	0	4	341748	9	3	3	1	0	665	14	0	1000	137
fixed	2	0	5	345347	11	1	1	1	0	1033	14	0	400	138
fixed	2	0	6	346313	12	2	2	1	0	966	14	0	550	139
fixed	2	0	7	347296	10	0	0	1	0	983	14	0	800	140
fixed	2	0	8	348095	9	3	3	1	0	799	14	0	600	141
fixed	2	0	9	348929	8	1	1	1	0	834	14	0	750	142
fixed	2	1	0	348929	8	2	2	1	0	799	14	0	1000	143
fixed	2	1	1	351445	11	1	1	1	0	1151	14	0	500	144
fixed	2	1	2	351445	10	0	0	1	0	549	14	0	650	145
fixed	2	1	3	351445	13	2	2	1	0	867	14	0	900	146
fixed	2	1	4	351445	9	3	3	1	0	700	14	0	1000	147
fixed	2	1	5	355009	11	1	1	1	0	982	14	0	400	148
fixed	2	1	6	355961	12	2	2	1	0	951	14	0	550	149
fixed	2	1	7	355961	10	0	0	1	0	716	14	0	800	150
fixed	2	1	8	358058	9	3	3	1	0	1281	14	0	600	151
fixed	2	1	9	359059	8	1	1	1	0	1000	14	0	750	152
fixed	2	2	0	359059	8	2	2	1	0	832	14	0	1000	153
fixed	2	2	1	361141	11	1	1	1	0	699	14	0	500	154
fixed	2	2	2	361842	10	0	0	1	0	701	14	0	650	155
fixed	2	2	3	361842	13	2	2	1	0	848	14	0	900	156
fixed	2	2	4	361842	9	3	3	1	0	683	14	0	1000	157
fixed	2	2	5	365007	11	1	1	1	0	1232	14	0	400	158
fixed	2	2	6	365806	12	2	2	1	0	799	14	0	550	159
fixed	2	2	7	365806	10	0	0	1	0	665	14	0	800	160
fixed	2	2	8	367672	9	3	3	1	0	1066	14	0	600	161
fixed	2	2	9	367672	8	1	1	1	0	682	14	0	750	162
fixed	2	3	0	367672	8	2	3	1	0	800	14	0	1000	162
fixed	2	3	1	370737	11	1	1	1	0	916	14	0	500	163
fixed	2	3	2	370737	10	0	0	1	0	601	14	0	650	164
fixed	2	3	3	370737	13	2	3	1	0	618	14	0	900	164
fixed	2	3	4	370737	9	3	2	1	0	783	14	0	1000	164
fixed	2	3	5	374404	11	1	1	1	0	1067	14	0	400	165
fixed	2	3	6	375169	12	2	3	1	0	765	14	0	550	165
fixed	2	3	7	376186	10	0	0	1	0	1017	14	0	800	166
fixed	2	3	8	377502	9	3	3	1	0	1316	14	0	600	167
fixed	2	3	9	378486	8	1	1	1	0	984	14	0	750	168
fixed	2	4	0	378486	8	2	2	1	0	783	14	0	1000	169
fixed	2	4	1	380601	11	1	1	1	0	748	14	0	500	170
fixed	2	4	2	380601	10	0	0	1	0	568	14	0	650	171
fixed	2	4	3	382201	13	2	2	1	0	934	14	0	900	172
fixed	2	4	4	382201	9	3	3	1	0	633	14	0	1000	173
fixed	2	4	5	383967	11	1	1	1	0	749	14	0	400	174
fixed	2	4	6	384917	12	2	2	1	0	950	14	0	550	175
fixed	2	4	7	384917	10	0	0	1	0	649	14	0	800	176
fixed	2	4	8	386750	9	3	3	1	0	1016	14	0	600	177
fixed	2	4	9	387865	8	1	1	1	0	1115	14	0	750	178
fixed	2	5	0	389514	8	2	2	1	0	1283	14	0	1000	179
fixed	2	5	1	390465	11	1	1	1	0	951	14	0	500	180
fixed	2	5	2	390465	10	0	0	1	0	548	14	0	650	181
fixed	2	5	3	392147	13	2	2	1	0	1017	14	0	900	182
fixed	2	5	4	392147	9	3	3	1	0	700	14	0	1000	183
fixed	2	5	5	393812	11	1	1	1	0	650	14	0	400	184
fixed	2	5	6	394813	12	2	3	1	0	1000	14	0	550	184
fixed	2	5	7	395763	10	0	0	1	0	951	14	0	800	185
fixed	2	5	8	396762	9	3	3	1	0	998	14	0	600	186
fixed	2	5	9	397661	8	1	1	1	0	900	14	0	750	187
fixed	2	6	0	397661	8	2	2	1	0	918	14	0	1000	188
fixed	2	6	1	399795	11	1	1	1	0	782	14	0	500	189
fixed	2	6	2	400462	10	0	0	1	0	667	14	0	650	190
fixed	2	6	3	400462	13	2	2	1	0	849	14	0	900	191
fixed	2	6	4	400462	9	3	3	1	0	716	14	0	1000	192
fixed	2	6	5	403160	11	1	1	1	0	766	14	0	400	193
fixed	2	6	6	404059	12	2	2	1	0	900	14	0	550	194
fixed	2	6	7	404059	10	0	0	1	0	718	14	0	800	195
fixed	2	6	8	405626	9	3	2	1	0	766	14	0	600	195
fixed	2	6	9	405626	8	1	3	1	0	182	14	0	750	195
fixed	3	0	0	405626	7	2	2	1	0	748	14	0	1000	196
fixed	3	0	1	408625	10	1	1	1	0	883	14	0	500	197
fixed	3	0	2	408625	9	0	0	1	0	651	14	0	650	198
fixed	3	0	3	410208	12	2	2	1	0	932	14	0	900	199
fixed	3	0	4	410208	8	3	3	1	0	649	14	0	1000	200
fixed	3	0	5	411907	10	1	1	1	0	683	14	0	400	201
fixed	3	0	6	412973	11	2	2	1	0	1066	14	0	550	202
fixed	3	0	7	412973	9	0	0	1	0	717	14	0	800	203
fixed	3	0	8	414456	8	3	2	1	0	666	14	0	600	203
fixed	3	0	9	414456	7	1	1	1	0	751	14	0	750	204
fixed	3	1	0	416772	7	2	2	1	0	1216	14	0	1000	205
fixed	3	1	1	417922	10	1	1	1	0	1150	14	0	500	206
fixed	3	1	2	418688	9	0	0	1	0	766	14	0	650	207
fixed	3	1	3	419704	12	2	2	1	0	1016	14	0	900	208
fixed	3	1	4	419704	8	3	3	1	0	568	14	0	1000	209
fixed	3	1	5	421555	10	1	1	1	0	833	14	0	400	210
fixed	3	1	6	422387	11	2	2	1	0	833	14	0	550	211
fixed	3	1	7	422387	9	0	0	1	0	716	14	0	800	212
fixed	3	1	8	424036	8	3	2	1	0	832	14	0	600	212
fixed	3	1	9	425220	7	1	1	1	0	1183	14	0	750	213
fixed	3	2	0	425220	7	2	2	1	0	948	14	0	1000	214
fixed	3	2	1	427486	10	1	1	1	0	916	14	0	500	215
fixed	3	2	2	427486	9	0	0	1	0	633	14	0	650	216
fixed	3	2	3	427486	12	2	2	1	0	751	14	0	900	217
fixed	3	2	4	427486	8	3	3	1	0	615	14	0	1000	218
fixed	3	2	5	430818	10	1	1	1	0	751	14	0	400	219
fixed	3	2	6	431618	11	2	2	1	0	800	14	0	550	220
fixed	3	2	7	431618	9	0	0	1	0	682	14	0	800	221
fixed	3	2	8	433317	8	3	3	1	0	883	14	0	600	222
fixed	3	2	9	434116	7	1	2	1	0	800	14	0	750	222
fixed	3	3	0	434116	7	2	2	1	0	584	14	0	1000	223
fixed	3	3	1	434116	10	1	2	1	0	266	14	0	500	223
fixed	3	3	2	436800	9	0	0	1	0	800	14	0	650	224
fixed	3	3	3	437866	12	2	2	1	0	1066	14	0	900	225
fixed	3	3	4	437866	8	3	3	1	0	782	14	0	1000	226
fixed	3	3	5	439781	10	1	1	1	0	900	14	0	400	227
fixed	3	3	6	440714	11	2	2	1	0	934	14	0	550	228
fixed	3	3	7	440714	9	0	0	1	0	782	14	0	800	229
fixed	3	3	8	442713	8	3	3	1	0	1183	14	0	600	230
fixed	3	3	9	443863	7	1	1	1	0	1150	14	0	750	231
fixed	3	4	0	445314	7	2	2	1	0	1102	14	0	1000	232
fixed	3	4	1	446196	10	1	1	1	0	882	14	0	500	233
fixed	3	4	2	446945	9	0	0	1	0	749	14	0	650	234
fixed	3	4	3	447895	12	2	2	1	0	950	14	0	900	235
fixed	3	4	4	447895	8	3	3	1	0	750	14	0	1000	236
fixed	3	4	5	449778	10	1	1	1	0	883	14	0	400	237
fixed	3	4	6	450761	11	2	2	1	0	982	14	0	550	238
fixed	3	4	7	450761	9	0	0	1	0	732	14	0	800	239
fixed	3	4	8	452343	8	3	2	1	0	782	14	0	600	239
fixed	3	4	9	453493	7	1	1	1	0	1150	14	0	750	240
fixed	3	5	0	454877	7	2	2	1	0	1034	14	0	1000	241
fixed	3	5	1	455809	10	1	1	1	0	931	14	0	500	242
fixed	3	5	2	456658	9	0	0	1	0	849	14	0	650	243
fixed	3	5	3	457708	12	2	2	1	0	1050	14	0	900	244
fixed	3	5	4	457708	8	3	3	1	0	667	14	0	1000	245
fixed	3	5	5	459408	10	1	1	1	0	684	14	0	400	246
fixed	3	5	6	460242	11	2	2	1	0	834	14	0	550	247
fixed	3	5	7	460242	9	0	0	1	0	633	14	0	800	248
fixed	3	5	8	461990	8	3	3	1	0	934	14	0	600	249
fixed	3	5	9	463057	7	1	1	1	0	1067	14	0	750	250
fixed	3	6	0	463057	7	2	2	1	0	683	14	0	1000	251
fixed	3	6	1	465239	10	1	1	1	0	784	14	0	500	252
fixed	3	6	2	465239	9	0	0	1	0	584	14	0	650	253
fixed	3	6	3	467007	12	2	2	1	0	1101	14	0	900	254
fixed	3	6	4	467007	8	3	3	1	0	816	14	0	1000	255
fixed	3	6	5	468772	10	1	1	1	0	751	14	0	400	256
fixed	3	6	6	469755	11	2	2	1	0	982	14	0	550	257
fixed	3	6	7	469755	9	0	0	1	0	666	14	0	800	258
fixed	3	6	8	471522	8	3	3	1	0	951	14	0	600	259
fixed	3	6	9	472521	7	1	1	1	0	999	14	0	750	260
fixed	4	0	0	472521	6	2	2	1	0	1014	14	0	1000	261
fixed	4	0	1	474752	9	1	1	1	0	848	14	0	500	262
fixed	4	0	2	474752	8	0	0	1	0	600	14	0	650	263
fixed	4	0	3	474752	11	2	2	1	0	883	14	0	900	264
fixed	4	0	4	474752	7	3	3	1	0	549	14	0	1000	265
fixed	4	0	5	478085	9	1	1	1	0	749	14	0	400	266
fixed	4	0	6	479168	10	2	2	1	0	1083	14	0	550	267
fixed	4	0	7	479168	8	0	0	1	0	699	14	0	800	268
fixed	4	0	8	480733	7	3	2	1	0	750	14	0	600	268
fixed	4	0	9	480733	6	1	3	1	0	201	14	0	750	268
fixed	4	1	0	480733	6	2	2	1	0	832	14	0	1000	269
fixed	4	1	1	483766	9	1	1	1	0	898	14	0	500	270
fixed	4	1	2	484817	8	0	0	1	0	1051	14	0	650	271
fixed	4	1	3	484817	11	2	2	1	0	899	14	0	900	272
fixed	4	1	4	484817	7	3	3	1	0	617	14	0	1000	273
fixed	4	1	5	487682	9	1	1	1	0	934	14	0	400	274
fixed	4	1	6	488581	10	2	2	1	0	899	14	0	550	275
fixed	4	1	7	488581	8	0	0	1	0	733	14	0	800	276
fixed	4	1	8	490114	7	3	3	1	0	733	14	0	600	277
fixed	4	1	9	490965	6	1	2	1	0	850	14	0	750	277
fixed	4	2	0	490965	6	2	2	1	0	748	14	0	1000	278
fixed	4	2	1	493247	9	1	1	1	0	917	14	0	500	279
fixed	4	2	2	494296	8	0	0	1	0	1049	14	0	650	280
fixed	4	2	3	495313	11	2	2	1	0	1017	14	0	900	281
fixed	4	2	4	495313	7	3	3	1	0	767	14	0	1000	282
fixed	4	2	5	497345	9	1	1	1	0	1017	14	0	400	283
fixed	4	2	6	498012	10	2	2	1	0	668	14	0	550	284
fixed	4	2	7	498012	8	0	0	1	0	767	14	0	800	285
fixed	4	2	8	499512	7	3	3	1	0	686	14	0	600	286
fixed	4	2	9	500476	6	1	1	1	0	964	14	0	750	287
fixed	4	3	0	501843	6	2	2	1	0	1033	14	0	1000	288
fixed	4	3	1	502577	9	1	1	1	0	734	14	0	500	289
fixed	4	3	2	503642	8	0	0	1	0	1065	14	0	650	290
fixed	4	3	3	504710	11	2	2	1	0	1068	14	0	900	291
fixed	4	3	4	504710	7	3	3	1	0	665	14	0	1000	292
fixed	4	3	5	506526	9	1	1	1	0	799	14	0	400	293
fixed	4	3	6	507144	10	2	2	1	0	618	14	0	550	294
fixed	4	3	7	507144	8	0	0	1	0	730	14	0	800	295
fixed	4	3	8	508809	7	3	3	1	0	866	14	0	600	296
fixed	4	3	9	508809	6	1	1	1	0	500	14	0	750	297
fixed	4	4	0	508809	6	2	2	1	0	932	14	0	1000	298
fixed	4	4	1	511625	9	1	1	1	0	666	14	0	500	299
fixed	4	4	2	511625	8	0	0	1	0	632	14	0	650	300
fixed	4	4	3	511625	11	2	2	1	0	883	14	0	900	301
fixed	4	4	4	511625	7	3	3	1	0	701	14	0	1000	302
fixed	4	4	5	515005	9	1	1	1	0	816	14	0	400	303
fixed	4	4	6	515622	10	2	2	1	0	617	14	0	550	304
fixed	4	4	7	515622	8	0	0	1	0	734	14	0	800	305
fixed	4	4	8	517171	7	3	3	1	0	733	14	0	600	306
fixed	4	4	9	518171	6	1	1	1	0	1000	14	0	750	307
fixed	4	5	0	518171	6	2	2	1	0	601	14	0	1000	308
fixed	4	5	1	520370	9	1	1	1	0	816	14	0	500	309
fixed	4	5	2	520370	8	0	0	1	0	483	14	0	650	310
fixed	4	5	3	521987	11	2	2	1	0	949	14	0	900	311
fixed	4	5	4	521987	7	3	3	1	0	699	14	0	1000	312
fixed	4	5	5	523818	9	1	1	1	0	832	14	0	400	313
fixed	4	5	6	524436	10	2	2	1	0	617	14	0	550	314
fixed	4	5	7	524436	8	0	0	1	0	716	14	0	800	315
fixed	4	5	8	526302	7	3	3	1	0	1051	14	0	600	316
fixed	4	5	9	526302	6	1	1	1	0	467	14	0	750	317
fixed	4	6	0	526302	6	2	2	1	0	684	14	0	1000	318
fixed	4	6	1	529001	9	1	0	1	0	566	14	0	500	318
fixed	4	6	2	529850	8	0	1	1	0	849	14	0	650	318
fixed	4	6	3	530801	11	2	2	1	0	951	14	0	900	319
fixed	4	6	4	530801	7	3	3	1	0	615	14	0	1000	320
fixed	4	6	5	532634	9	1	1	1	0	833	14	0	400	321
fixed	4	6	6	533616	10	2	2	1	0	982	14	0	550	322
fixed	4	6	7	533616	8	0	0	1	0	751	14	0	800	323
fixed	4	6	8	533616	7	3	3	1	0	616	14	0	600	324
fixed	4	6	9	533616	6	1	1	1	0	517	14	0	750	325
fixed	5	0	0	533616	5	2	2	1	0	746	14	0	1000	326
fixed	5	0	1	537765	8	1	1	1	0	632	14	0	500	327
fixed	5	0	2	537765	7	0	0	1	0	516	14	0	650	328
fixed	5	0	3	537765	10	2	2	1	0	700	14	0	900	329
fixed	5	0	4	537765	6	3	3	1	0	584	14	0	1000	330
fixed	5	0	5	541146	8	1	1	1	0	815	14	0	400	331
fixed	5	0	6	542030	9	2	2	1	0	884	14	0	550	332
fixed	5	0	7	542030	7	0	0	1	0	517	14	0	800	333
fixed	5	0	8	542030	6	3	1	1	0	566	14	0	600	333
fixed	5	0	9	544395	5	1	1	1	0	933	14	0	750	334
fixed	5	1	0	545878	5	2	2	1	0	1132	14	0	1000	335
fixed	5	1	1	546828	8	1	1	1	0	950	14	0	500	336
fixed	5	1	2	547645	7	0	0	1	0	817	14	0	650	337
fixed	5	1	3	548579	10	2	2	1	0	934	14	0	900	338
fixed	5	1	4	548579	6	3	3	1	0	700	14	0	1000	339
fixed	5	1	5	550495	8	1	1	1	0	900	14	0	400	340
fixed	5	1	6	551077	9	2	2	1	0	582	14	0	550	341
fixed	5	1	7	552010	7	0	0	1	0	933	14	0	800	342
fixed	5	1	8	552811	6	3	2	1	0	801	14	0	600	342
fixed	5	1	9	554025	5	1	1	1	0	1214	14	0	750	343
fixed	5	2	0	555459	5	2	2	1	0	1099	14	0	1000	344
fixed	5	2	1	556276	8	1	1	1	0	818	14	0	500	345
fixed	5	2	2	556276	7	0	0	1	0	548	14	0	650	346
fixed	5	2	3	556276	10	2	2	1	0	865	14	0	900	347
fixed	5	2	4	556276	6	3	3	1	0	616	14	0	1000	348
fixed	5	2	5	559590	8	1	1	1	0	733	14	0	400	349
fixed	5	2	6	560590	9	2	2	1	0	1000	14	0	550	350
fixed	5	2	7	560590	7	0	0	1	0	768	14	0	800	351
fixed	5	2	8	562172	6	3	3	1	0	781	14	0	600	352
fixed	5	2	9	562172	5	1	1	1	0	533	14	0	750	353
fixed	5	3	0	562172	5	2	2	1	0	483	14	0	1000	354
fixed	5	3	1	565154	8	1	1	1	0	865	14	0	500	355
fixed	5	3	2	565154	7	0	0	1	0	501	14	0	650	356
fixed	5	3	3	565154	10	2	2	1	0	815	14	0	900	357
fixed	5	3	4	565154	6	3	3	1	0	617	14	0	1000	358
fixed	5	3	5	568621	8	1	1	1	0	882	14	0	400	359
fixed	5	3	6	569438	9	2	2	1	0	817	14	0	550	360
fixed	5	3	7	570455	7	0	0	1	0	1017	14	0	800	361
fixed	5	3	8	571204	6	3	2	1	0	749	14	0	600	361
fixed	5	3	9	572352	5	1	1	1	0	1148	14	0	750	362
fixed	5	4	0	572352	5	2	2	1	0	951	14	0	1000	363
fixed	5	4	1	574569	8	1	1	1	0	866	14	0	500	364
fixed	5	4	2	574569	7	0	0	1	0	565	14	0	650	365
fixed	5	4	3	574569	10	2	2	1	0	785	14	0	900	366
fixed	5	4	4	574569	6	3	3	1	0	584	14	0	1000	367
fixed	5	4	5	578001	8	1	1	1	0	850	14	0	400	368
fixed	5	4	6	578900	9	2	2	1	0	900	14	0	550	369
fixed	5	4	7	578900	7	0	0	1	0	818	14	0	800	370
fixed	5	4	8	580649	6	3	3	1	0	931	14	0	600	371
fixed	5	4	9	581651	5	1	1	1	0	1001	14	0	750	372
fixed	5	5	0	583050	5	2	2	1	0	1032	14	0	1000	373
fixed	5	5	1	583050	8	1	1	1	0	483	14	0	500	374
fixed	5	5	2	584315	7	0	0	1	0	749	14	0	650	375
fixed	5	5	3	584315	10	2	2	1	0	916	14	0	900	376
fixed	5	5	4	584315	6	3	3	1	0	567	14	0	1000	377
fixed	5	5	5	586999	8	1	1	1	0	767	14	0	400	378
fixed	5	5	6	587948	9	2	2	1	0	949	14	0	550	379
fixed	5	5	7	588782	7	0	0	1	0	834	14	0	800	380
fixed	5	5	8	589615	6	3	2	1	0	833	14	0	600	380
fixed	5	5	9	590698	5	1	1	1	0	1083	14	0	750	381
fixed	5	6	0	592414	5	2	2	1	0	1351	14	0	1000	382
fixed	5	6	1	593496	8	1	1	1	0	1082	14	0	500	383
fixed	5	6	2	593496	7	0	0	1	0	517	14	0	650	384
fixed	5	6	3	593496	10	2	2	1	0	849	14	0	900	385
fixed	5	6	4	593496	6	3	3	1	0	748	14	0	1000	386
fixed	5	6	5	597061	8	1	1	1	0	1000	14	0	400	387
fixed	5	6	6	598128	9	2	2	1	0	1067	14	0	550	388
fixed	5	6	7	599526	7	0	0	1	0	1399	14	0	800	389
fixed	5	6	8	600593	6	3	3	1	0	1067	14	0	600	390
fixed	5	6	9	601426	5	1	1	1	0	833	14	0	750	391
random	6	0	0	603192	5	3	3	1	0	1412	14	0	1000	392
random	6	0	1	604109	8	1	1	1	0	916	14	0	550	393
random	6	0	2	604109	5	3	3	1	0	801	14	0	900	394
random	6	0	3	605842	6	0	0	1	0	834	14	0	750	395
random	6	0	4	606724	9	2	2	1	0	882	14	0	600	396
random	6	0	5	607825	4	0	0	1	0	1101	14	0	300	397
random	6	0	6	608823	7	1	1	1	0	998	14	0	400	398
random	6	0	7	608823	4	2	0	1	0	766	14	0	1000	398
random	6	0	8	611073	8	3	3	1	0	1249	14	0	500	399
random	6	0	9	612156	7	2	2	1	0	1083	14	0	800	400
random	6	1	0	613856	8	3	3	1	0	1349	14	0	650	401
random	6	1	1	614605	9	2	2	1	0	749	14	0	600	402
random	6	1	2	615555	6	1	1	1	0	950	14	0	300	403
random	6	1	3	615555	5	2	2	1	0	966	14	0	1000	404
random	6	1	4	617538	9	1	1	1	0	966	14	0	900	405
random	6	1	5	617538	4	0	0	1	0	783	14	0	800	406
random	6	1	6	619221	5	3	3	1	0	867	14	0	750	407
random	6	1	7	620404	4	2	2	1	0	1183	14	0	400	408
random	6	1	8	621619	7	1	1	1	0	1216	14	0	1000	409
random	6	1	9	622536	6	0	0	1	0	917	14	0	500	410
random	6	2	0	623903	4	1	2	1	0	985	14	0	900	410
random	6	2	1	625202	8	0	0	1	0	1299	14	0	300	411
random	6	2	2	625202	9	3	3	1	0	1015	14	0	1000	412
random	6	2	3	627018	7	0	0	1	0	800	14	0	550	413
random	6	2	4	627018	6	2	2	1	0	916	14	0	1000	414
random	6	2	5	629083	5	1	1	1	0	1065	14	0	400	415
random	6	2	6	630251	6	3	3	1	0	1168	14	0	600	416
random	6	2	7	631300	8	2	2	1	0	1049	14	0	500	417
random	6	2	8	632467	4	3	3	1	0	1167	14	0	750	418
random	6	2	9	633466	9	2	2	1	0	1000	14	0	650	419
random	6	3	0	634882	4	0	0	1	0	1049	14	0	900	420
random	6	3	1	635866	8	2	2	1	0	984	14	0	300	421
random	6	3	2	635866	9	1	1	1	0	932	14	0	1000	422
random	6	3	3	637765	7	3	3	1	0	884	14	0	550	423
random	6	3	4	637765	6	1	1	1	0	900	14	0	1000	424
random	6	3	5	639780	5	0	0	1	0	998	14	0	400	425
random	6	3	6	641097	6	3	3	1	0	1317	14	0	600	426
random	6	3	7	641914	8	2	2	1	0	817	14	0	500	427
random	6	3	8	642846	4	1	1	1	0	932	14	0	750	428
random	6	3	9	643946	9	2	2	1	0	1100	14	0	650	429
random	6	4	0	645228	5	3	3	1	0	933	14	0	500	430
random	6	4	1	646129	9	2	2	1	0	901	14	0	600	431
random	6	4	2	646129	6	1	1	1	0	865	14	0	900	432
random	6	4	3	646129	9	0	0	1	0	633	14	0	1000	433
random	6	4	4	649126	8	3	3	1	0	1065	14	0	650	434
random	6	4	5	650176	4	1	1	1	0	1050	14	0	550	435
random	6	4	6	651059	7	3	3	1	0	883	14	0	800	436
random	6	4	7	651876	6	0	1	1	0	817	14	0	700	436
random	6	4	8	651876	8	2	2	1	0	933	14	0	1000	437
random	6	4	9	653859	5	1	1	1	0	967	14	0	300	438
random	6	5	0	653859	6	0	0	1	0	883	14	0	1000	439
random	6	5	1	656308	8	2	2	1	0	1066	14	0	400	440
random	6	5	2	657107	4	3	3	1	0	799	14	0	750	441
random	6	5	3	657107	8	1	1	1	0	900	14	0	900	442
random	6	5	4	658956	5	2	2	1	0	949	14	0	300	443
random	6	5	5	660108	4	3	3	1	0	1151	14	0	650	444
random	6	5	6	660856	7	0	0	1	0	748	14	0	550	445
random	6	5	7	660856	9	2	1	1	0	783	14	0	800	445
random	6	5	8	662773	7	1	1	1	0	1101	14	0	500	446
random	6	5	9	662773	6	0	0	1	0	817	14	0	1000	447
random	6	6	0	662773	9	0	0	1	0	749	14	0	1000	448
random	6	6	1	666222	6	2	2	1	0	1051	14	0	650	449
random	6	6	2	667205	9	1	1	1	0	983	14	0	900	450
random	6	6	3	668186	8	2	2	1	0	982	14	0	600	451
random	6	6	4	668953	6	0	0	1	0	767	14	0	400	452
random	6	6	5	669835	8	3	3	1	0	882	14	0	300	453
random	6	6	6	670887	5	1	1	1	0	1051	14	0	700	454
random	6	6	7	671969	4	3	3	1	0	1082	14	0	750	455
random	6	6	8	672686	7	1	1	1	0	717	14	0	500	456
random	6	6	9	672686	5	2	2	1	0	834	14	0	1000	457
fixed	7	0	0	675186	3	2	2	1	0	1129	14	0	1000	458
fixed	7	0	1	676152	6	1	1	1	0	966	14	0	500	459
fixed	7	0	2	676152	5	0	0	1	0	615	14	0	650	460
fixed	7	0	3	676152	8	2	2	1	0	834	14	0	900	461
fixed	7	0	4	676152	4	3	3	1	0	683	14	0	1000	462
fixed	7	0	5	679634	6	1	1	1	0	902	14	0	400	463
fixed	7	0	6	680449	7	2	2	1	0	815	14	0	550	464
fixed	7	0	7	680449	5	0	0	1	0	717	14	0	800	465
fixed	7	0	8	682083	4	3	3	1	0	834	14	0	600	466
fixed	7	0	9	683049	3	1	1	1	0	966	14	0	750	467
fixed	7	1	0	684533	3	2	2	1	0	1133	14	0	1000	468
fixed	7	1	1	685498	6	1	1	1	0	965	14	0	500	469
fixed	7	1	2	685498	5	0	0	1	0	568	14	0	650	470
fixed	7	1	3	687081	8	2	2	1	0	917	14	0	900	471
fixed	7	1	4	687081	4	3	3	1	0	784	14	0	1000	472
fixed	7	1	5	688881	6	1	1	1	0	784	14	0	400	473
fixed	7	1	6	689731	7	2	3	1	0	850	14	0	550	473
fixed	7	1	7	690830	5	0	0	1	0	1100	14	0	800	474
fixed	7	1	8	692029	4	3	3	1	0	1199	14	0	600	475
fixed	7	1	9	692029	3	1	1	1	0	766	14	0	750	476
fixed	7	2	0	692029	3	2	2	1	0	783	14	0	1000	477
fixed	7	2	1	695178	6	1	1	1	0	1015	14	0	500	478
fixed	7	2	2	695945	5	0	0	1	0	767	14	0	650	479
fixed	7	2	3	695945	8	2	2	1	0	817	14	0	900	480
fixed	7	2	4	695945	4	3	3	1	0	900	14	0	1000	481
fixed	7	2	5	698776	6	1	1	1	0	915	14	0	400	482
fixed	7	2	6	699759	7	2	2	1	0	983	14	0	550	483
fixed	7	2	7	699759	5	0	0	1	0	768	14	0	800	484
fixed	7	2	8	701709	4	3	2	1	0	1149	14	0	600	484
fixed	7	2	9	702743	3	1	1	1	0	1034	14	0	750	485
fixed	7	3	0	704291	3	2	2	1	0	1200	14	0	1000	486
fixed	7	3	1	705324	6	1	1	1	0	1033	14	0	500	487
fixed	7	3	2	706109	5	0	0	1	0	784	14	0	650	488
fixed	7	3	3	706109	8	2	0	1	0	816	14	0	900	488
fixed	7	3	4	708141	4	3	3	1	0	1118	14	0	1000	489
fixed	7	3	5	709041	6	1	1	1	0	901	14	0	400	490
fixed	7	3	6	709956	7	2	2	1	0	915	14	0	550	491
fixed	7	3	7	711074	5	0	0	1	0	1117	14	0	800	492
fixed	7	3	8	712090	4	3	3	1	0	1016	14	0	600	493
fixed	7	3	9	712090	3	1	2	1	0	766	14	0	750	493
fixed	7	4	0	712090	3	2	2	1	0	885	14	0	1000	494
fixed	7	4	1	715105	6	1	1	1	0	883	14	0	500	495
fixed	7	4	2	715105	5	0	0	1	0	566	14	0	650	496
fixed	7	4	3	715105	8	2	2	1	0	750	14	0	900	497
fixed	7	4	4	715105	4	3	3	1	0	734	14	0	1000	498
fixed	7	4	5	718253	6	1	1	1	0	582	14	0	400	499
fixed	7	4	6	719303	7	2	2	1	0	1050	14	0	550	500
fixed	7	4	7	719303	5	0	0	1	0	784	14	0	800	501
fixed	7	4	8	721136	4	3	3	1	0	1032	14	0	600	502
fixed	7	4	9	721919	3	1	1	1	0	783	14	0	750	503
fixed	7	5	0	723419	3	2	2	1	0	1166	14	0	1000	504
fixed	7	5	1	724469	6	1	1	1	0	1050	14	0	500	505
fixed	7	5	2	724469	5	0	0	1	0	516	14	0	650	506
fixed	7	5	3	726184	8	2	2	1	0	1049	14	0	900	507
fixed	7	5	4	726184	4	3	3	1	0	717	14	0	1000	508
fixed	7	5	5	728201	6	1	1	1	0	1017	14	0	400	509
fixed	7	5	6	729167	7	2	2	1	0	966	14	0	550	510
fixed	7	5	7	729167	5	0	0	1	0	749	14	0	800	511
fixed	7	5	8	730750	4	3	3	1	0	768	14	0	600	512
fixed	7	5	9	730750	3	1	1	1	0	584	14	0	750	513
fixed	7	6	0	730750	3	2	2	1	0	683	14	0	1000	514
fixed	7	6	1	733500	6	1	1	1	0	619	14	0	500	515
fixed	7	6	2	733500	5	0	0	1	0	548	14	0	650	516
fixed	7	6	3	735097	8	2	2	1	0	932	14	0	900	517
fixed	7	6	4	735097	4	3	3	1	0	585	14	0	1000	518
fixed	7	6	5	736880	6	1	1	1	0	783	14	0	400	519
fixed	7	6	6	737897	7	2	2	1	0	1016	14	0	550	520
fixed	7	6	7	738947	5	0	0	1	0	1050	14	0	800	521
fixed	7	6	8	739863	4	3	3	1	0	916	14	0	600	522
fixed	7	6	9	739863	3	1	1	1	0	633	14	0	750	523
