type	block	sequ.	trial	time	Pos.	Color	Button	NumRsp	Resp_1	RT_1	R_Code	Resp_2	RT_2	Trigg.	n_hit	n_inc	n_miss	score_%
random	0	0	0	165440	12	3	3	1	0	1932	14	0	1000	1
random	0	0	1	166724	15	1	1	1	0	1283	14	0	550	2
random	0	0	2	166724	12	3	3	1	0	831	14	0	900	3
random	0	0	3	168990	13	0	0	1	0	1350	14	0	750	4
random	0	0	4	170121	16	2	2	1	0	1132	14	0	600	5
random	0	0	5	171254	11	0	0	1	0	1133	14	0	300	6
random	0	0	6	172587	14	1	1	1	0	1333	14	0	400	7
random	0	0	7	173854	11	2	2	1	0	1266	14	0	1000	8
random	0	0	8	174937	15	3	3	1	0	1083	14	0	500	9
random	0	0	9	175986	14	2	2	1	0	1049	14	0	800	10
random	0	1	0	177502	15	3	3	1	0	1182	14	0	650	11
random	0	1	1	178519	16	2	2	1	0	1017	14	0	600	12
random	0	1	2	179535	13	1	1	1	0	1016	14	0	300	13
random	0	1	3	180985	12	2	2	1	0	1450	14	0	1000	14
random	0	1	4	182067	16	1	1	1	0	1082	14	0	900	15
random	0	1	5	183283	11	0	0	1	0	1216	14	0	800	16
random	0	1	6	184283	12	3	3	1	0	1000	14	0	750	17
random	0	1	7	185334	11	2	2	1	0	1050	14	0	400	18
random	0	1	8	186366	14	1	1	1	0	1032	14	0	1000	19
random	0	1	9	187416	13	0	0	1	0	1050	14	0	500	20
random	0	2	0	189066	11	1	1	1	0	1302	14	0	900	21
random	0	2	1	190197	15	0	0	1	0	1131	14	0	300	22
random	0	2	2	190197	16	3	3	1	0	984	14	0	1000	23
random	0	2	3	192498	14	0	0	1	0	1285	14	0	550	24
random	0	2	4	193598	13	2	2	1	0	1100	14	0	1000	25
random	0	2	5	194546	12	1	1	1	0	948	14	0	400	26
random	0	2	6	195597	13	3	3	1	0	1051	14	0	600	27
random	0	2	7	196662	15	2	2	1	0	1065	14	0	500	28
random	0	2	8	197713	11	3	3	1	0	1050	14	0	750	29
random	0	2	9	198779	16	2	2	1	0	1066	14	0	650	30
random	0	3	0	200162	11	0	0	1	0	1033	14	0	900	31
random	0	3	1	201178	15	2	2	1	0	1016	14	0	300	32
random	0	3	2	202227	16	1	1	1	0	1049	14	0	1000	33
random	0	3	3	203244	14	3	3	1	0	1017	14	0	550	34
random	0	3	4	204360	13	1	1	1	0	1116	14	0	1000	35
random	0	3	5	205442	12	0	0	1	0	1082	14	0	400	36
random	0	3	6	206443	13	3	3	1	0	1001	14	0	600	37
random	0	3	7	207426	15	2	2	1	0	983	14	0	500	38
random	0	3	8	208309	11	1	1	1	0	883	14	0	750	39
random	0	3	9	209191	16	2	2	1	0	882	14	0	650	40
random	0	4	0	210491	12	3	3	1	0	967	14	0	500	41
random	0	4	1	211374	16	2	2	1	0	883	14	0	600	42
random	0	4	2	212425	13	1	1	1	0	1051	14	0	900	43
random	0	4	3	212425	16	0	0	1	0	832	14	0	1000	44
random	0	4	4	214540	15	3	3	1	0	1101	14	0	650	45
random	0	4	5	215572	11	1	1	1	0	1032	14	0	550	46
random	0	4	6	216656	14	3	3	1	0	1084	14	0	800	47
random	0	4	7	217706	13	0	0	1	0	1049	14	0	700	48
random	0	4	8	217706	15	2	2	1	0	982	14	0	1000	49
random	0	4	9	220139	12	1	1	1	0	1416	14	0	300	50
random	0	5	0	221637	13	0	0	1	0	1132	14	0	1000	51
random	0	5	1	222721	15	2	2	1	0	1083	14	0	400	52
random	0	5	2	223787	11	3	3	1	0	1066	14	0	750	53
random	0	5	3	224754	15	1	1	1	0	967	14	0	900	54
random	0	5	4	225736	12	2	2	1	0	982	14	0	300	55
random	0	5	5	226619	11	3	3	1	0	883	14	0	650	56
random	0	5	6	227569	14	0	0	1	0	950	14	0	550	57
random	0	5	7	228735	16	2	2	1	0	1165	14	0	800	58
random	0	5	8	229668	14	1	1	1	0	934	14	0	500	59
random	0	5	9	230752	13	0	0	1	0	1084	14	0	1000	60
random	0	6	0	230752	16	0	0	1	0	817	14	0	1000	61
random	0	6	1	233101	13	2	2	1	0	984	14	0	650	62
random	0	6	2	234117	16	1	1	1	0	1015	14	0	900	63
random	0	6	3	235100	15	2	2	1	0	984	14	0	600	64
random	0	6	4	236250	13	0	0	1	0	1150	14	0	400	65
random	0	6	5	237348	15	3	3	1	0	1098	14	0	300	66
random	0	6	6	238399	12	1	1	1	0	1050	14	0	700	67
random	0	6	7	239547	11	3	3	1	0	1149	14	0	750	68
random	0	6	8	240465	14	1	1	1	0	917	14	0	500	69
random	0	6	9	240465	12	2	2	1	0	850	14	0	1000	70
fixed	1	0	0	240465	10	2	2	1	0	725	14	0	1000	71
fixed	1	0	1	243664	13	1	1	1	0	833	14	0	500	72
fixed	1	0	2	244562	12	0	0	1	0	899	14	0	650	73
fixed	1	0	3	244562	15	2	2	1	0	900	14	0	900	74
fixed	1	0	4	244562	11	3	1	1	0	816	14	0	1000	74
fixed	1	0	5	246980	13	1	3	1	0	484	14	0	400	74
fixed	1	0	6	248013	14	2	2	1	0	1033	14	0	550	75
fixed	1	0	7	249061	12	0	0	1	0	1048	14	0	800	76
fixed	1	0	8	250244	11	3	3	1	0	1183	14	0	600	77
fixed	1	0	9	251344	10	1	1	1	0	1101	14	0	750	78
fixed	1	1	0	252727	10	2	2	1	0	1034	14	0	1000	79
fixed	1	1	1	253728	13	1	1	1	0	1001	14	0	500	80
fixed	1	1	2	254793	12	0	0	1	0	1065	14	0	650	81
fixed	1	1	3	255843	15	2	2	1	0	1050	14	0	900	82
fixed	1	1	4	257008	11	3	3	1	0	1164	14	0	1000	83
fixed	1	1	5	258458	13	1	1	1	0	1450	14	0	400	84
fixed	1	1	6	259426	14	2	2	1	0	968	14	0	550	85
fixed	1	1	7	260524	12	0	0	1	0	1098	14	0	800	86
fixed	1	1	8	261624	11	3	3	1	0	1100	14	0	600	87
fixed	1	1	9	262757	10	1	1	1	0	1133	14	0	750	88
fixed	1	2	0	262757	10	2	2	1	0	917	14	0	1000	89
fixed	1	2	1	264990	13	1	1	1	0	883	14	0	500	90
fixed	1	2	2	266089	12	0	0	1	0	1099	14	0	650	91
fixed	1	2	3	266089	15	2	2	1	0	848	14	0	900	92
fixed	1	2	4	266089	11	3	3	1	0	816	14	0	1000	93
fixed	1	2	5	268938	13	1	1	1	0	933	14	0	400	94
fixed	1	2	6	269955	14	2	2	1	0	1016	14	0	550	95
fixed	1	2	7	270970	12	0	0	1	0	1015	14	0	800	96
fixed	1	2	8	272086	11	3	3	1	0	1116	14	0	600	97
fixed	1	2	9	273187	10	1	1	1	0	1101	14	0	750	98
fixed	1	3	0	274886	10	2	2	1	0	1350	14	0	1000	99
fixed	1	3	1	275985	13	1	1	1	0	1099	14	0	500	100
fixed	1	3	2	277036	12	0	0	1	0	1051	14	0	650	101
fixed	1	3	3	278101	15	2	2	1	0	1065	14	0	900	102
fixed	1	3	4	279152	11	3	3	1	0	1051	14	0	1000	103
fixed	1	3	5	280150	13	1	1	1	0	997	14	0	400	104
fixed	1	3	6	281050	14	2	2	1	0	900	14	0	550	105
fixed	1	3	7	282117	12	0	0	1	0	1067	14	0	800	106
fixed	1	3	8	283149	11	3	3	1	0	1032	14	0	600	107
fixed	1	3	9	284334	10	1	1	1	0	1184	14	0	750	108
fixed	1	4	0	284334	10	2	2	1	0	934	14	0	1000	109
fixed	1	4	1	286682	13	1	1	1	0	998	14	0	500	110
fixed	1	4	2	287681	12	0	0	1	0	999	14	0	650	111
fixed	1	4	3	288598	15	2	2	1	0	918	14	0	900	112
fixed	1	4	4	288598	11	3	3	1	0	700	14	0	1000	113
fixed	1	4	5	290580	13	1	1	1	0	966	14	0	400	114
fixed	1	4	6	291532	14	2	2	1	0	951	14	0	550	115
fixed	1	4	7	292729	12	0	0	1	0	1198	14	0	800	116
fixed	1	4	8	293863	11	3	3	1	0	1134	14	0	600	117
fixed	1	4	9	294912	10	1	1	1	0	1049	14	0	750	118
fixed	1	5	0	294912	10	2	2	1	0	850	14	0	1000	119
fixed	1	5	1	297095	13	1	1	1	0	833	14	0	500	120
fixed	1	5	2	298112	12	0	0	1	0	1017	14	0	650	121
fixed	1	5	3	299111	15	2	2	1	0	998	14	0	900	122
fixed	1	5	4	300127	11	3	3	1	0	1016	14	0	1000	123
fixed	1	5	5	301194	13	1	1	1	0	1067	14	0	400	124
fixed	1	5	6	302126	14	2	2	1	0	933	14	0	550	125
fixed	1	5	7	303177	12	0	0	1	0	1050	14	0	800	126
fixed	1	5	8	304093	11	3	3	1	0	916	14	0	600	127
fixed	1	5	9	305243	10	1	1	1	0	1150	14	0	750	128
fixed	1	6	0	305243	10	2	2	1	0	916	14	0	1000	129
fixed	1	6	1	307609	13	1	1	1	0	1001	14	0	500	130
fixed	1	6	2	308608	12	0	0	1	0	1000	14	0	650	131
fixed	1	6	3	308608	15	2	2	1	0	866	14	0	900	132
fixed	1	6	4	308608	11	3	3	1	0	967	14	0	1000	133
fixed	1	6	5	311556	13	1	1	1	0	1032	14	0	400	134
fixed	1	6	6	312491	14	2	2	1	0	934	14	0	550	135
fixed	1	6	7	313557	12	0	0	1	0	1066	14	0	800	136
fixed	1	6	8	314390	11	3	3	1	0	833	14	0	600	137
fixed	1	6	9	315439	10	1	1	1	0	1049	14	0	750	138
fixed	2	0	0	316939	9	2	2	1	0	1147	14	0	1000	139
fixed	2	0	1	317888	12	1	1	1	0	949	14	0	500	140
fixed	2	0	2	318987	11	0	0	1	0	1100	14	0	650	141
fixed	2	0	3	320004	14	2	2	1	0	1017	14	0	900	142
fixed	2	0	4	320004	10	3	3	1	0	932	14	0	1000	143
fixed	2	0	5	322020	12	1	1	1	0	1015	14	0	400	144
fixed	2	0	6	322987	13	2	2	1	0	967	14	0	550	145
fixed	2	0	7	324003	11	0	0	1	0	1016	14	0	800	146
fixed	2	0	8	325087	10	3	3	1	0	1083	14	0	600	147
fixed	2	0	9	326237	9	1	1	1	0	1150	14	0	750	148
fixed	2	1	0	326237	9	2	2	1	0	867	14	0	1000	149
fixed	2	1	1	328435	12	1	1	1	0	833	14	0	500	150
fixed	2	1	2	329451	11	0	0	1	0	1015	14	0	650	151
fixed	2	1	3	330450	14	2	2	1	0	1000	14	0	900	152
fixed	2	1	4	331650	10	3	3	1	0	1199	14	0	1000	153
fixed	2	1	5	332684	12	1	1	1	0	1034	14	0	400	154
fixed	2	1	6	333650	13	2	2	1	0	966	14	0	550	155
fixed	2	1	7	334782	11	0	0	1	0	1133	14	0	800	156
fixed	2	1	8	335949	10	3	3	1	0	1167	14	0	600	157
fixed	2	1	9	337198	9	1	1	1	0	1249	14	0	750	158
fixed	2	2	0	337198	9	2	2	1	0	816	14	0	1000	159
fixed	2	2	1	339431	12	1	1	1	0	866	14	0	500	160
fixed	2	2	2	340464	11	0	0	1	0	1033	14	0	650	161
fixed	2	2	3	341431	14	2	2	1	0	966	14	0	900	162
fixed	2	2	4	342563	10	3	3	1	0	1132	14	0	1000	163
fixed	2	2	5	343563	12	1	1	1	0	1000	14	0	400	164
fixed	2	2	6	344613	13	2	2	1	0	1050	14	0	550	165
fixed	2	2	7	345679	11	0	0	1	0	1066	14	0	800	166
fixed	2	2	8	346878	10	3	3	1	0	1199	14	0	600	167
fixed	2	2	9	348062	9	1	1	1	0	1184	14	0	750	168
fixed	2	3	0	348062	9	2	2	1	0	915	14	0	1000	169
fixed	2	3	1	350344	12	1	1	1	0	917	14	0	500	170
fixed	2	3	2	351344	11	0	0	1	0	999	14	0	650	171
fixed	2	3	3	351344	14	2	2	1	0	833	14	0	900	172
fixed	2	3	4	351344	10	3	3	1	0	916	14	0	1000	173
fixed	2	3	5	354260	12	1	1	1	0	985	14	0	400	174
fixed	2	3	6	355126	13	2	2	1	0	866	14	0	550	175
fixed	2	3	7	356108	11	0	0	1	0	982	14	0	800	176
fixed	2	3	8	357074	10	3	3	1	0	966	14	0	600	177
fixed	2	3	9	358157	9	1	1	1	0	1082	14	0	750	178
fixed	2	4	0	358157	9	2	2	1	0	884	14	0	1000	179
fixed	2	4	1	360490	12	1	1	1	0	966	14	0	500	180
fixed	2	4	2	361457	11	0	0	1	0	967	14	0	650	181
fixed	2	4	3	362473	14	2	2	1	0	1016	14	0	900	182
fixed	2	4	4	363539	10	3	3	1	0	1066	14	0	1000	183
fixed	2	4	5	364606	12	1	1	1	0	1067	14	0	400	184
fixed	2	4	6	365523	13	2	2	1	0	917	14	0	550	185
fixed	2	4	7	366506	11	0	0	1	0	983	14	0	800	186
fixed	2	4	8	367488	10	3	3	1	0	982	14	0	600	187
fixed	2	4	9	368620	9	1	1	1	0	1132	14	0	750	188
fixed	2	5	0	368620	9	2	2	1	0	815	14	0	1000	189
fixed	2	5	1	370869	12	1	1	1	0	899	14	0	500	190
fixed	2	5	2	371904	11	0	0	1	0	1034	14	0	650	191
fixed	2	5	3	373069	14	2	2	1	0	1165	14	0	900	192
fixed	2	5	4	374120	10	3	3	1	0	1050	14	0	1000	193
fixed	2	5	5	375236	12	1	1	1	0	1116	14	0	400	194
fixed	2	5	6	376085	13	2	2	1	0	849	14	0	550	195
fixed	2	5	7	377118	11	0	0	1	0	1033	14	0	800	196
fixed	2	5	8	377934	10	3	3	1	0	815	14	0	600	197
fixed	2	5	9	378968	9	1	1	1	0	1034	14	0	750	198
fixed	2	6	0	378968	9	2	2	1	0	798	14	0	1000	199
fixed	2	6	1	381149	12	1	1	1	0	816	14	0	500	200
fixed	2	6	2	382200	11	0	0	1	0	1051	14	0	650	201
fixed	2	6	3	383216	14	2	2	1	0	1016	14	0	900	202
fixed	2	6	4	384515	10	3	3	1	0	1298	14	0	1000	203
fixed	2	6	5	385666	12	1	1	1	0	1150	14	0	400	204
fixed	2	6	6	386681	13	2	2	1	0	1015	14	0	550	205
fixed	2	6	7	388032	11	0	0	1	0	1351	14	0	800	206
fixed	2	6	8	389232	10	3	3	1	0	1200	14	0	600	207
fixed	2	6	9	390297	9	1	1	1	0	1065	14	0	750	208
fixed	3	0	0	391847	8	2	2	1	0	1214	14	0	1000	209
fixed	3	0	1	393596	11	1	1	1	0	1748	14	0	500	210
fixed	3	0	2	394797	10	0	0	1	0	1201	14	0	650	211
fixed	3	0	3	395829	13	2	2	1	0	1032	14	0	900	212
fixed	3	0	4	397061	9	3	3	1	0	1232	14	0	1000	213
fixed	3	0	5	398211	11	1	1	1	0	1150	14	0	400	214
fixed	3	0	6	399261	12	2	2	1	0	1049	14	0	550	215
fixed	3	0	7	400577	10	0	0	1	0	1316	14	0	800	216
fixed	3	0	8	401876	9	3	3	1	0	1299	14	0	600	217
fixed	3	0	9	402977	8	1	1	1	0	1101	14	0	750	218
fixed	3	1	0	404842	8	2	2	1	0	1517	14	0	1000	219
fixed	3	1	1	406624	11	1	1	1	0	1782	14	0	500	220
fixed	3	1	2	407675	10	0	0	1	0	1051	14	0	650	221
fixed	3	1	3	407675	13	2	3	1	0	898	14	0	900	221
fixed	3	1	4	409774	9	3	3	1	0	1184	14	0	1000	222
fixed	3	1	5	410890	11	1	1	1	0	1116	14	0	400	223
fixed	3	1	6	411923	12	2	2	1	0	1033	14	0	550	224
fixed	3	1	7	412956	10	0	0	1	0	1033	14	0	800	225
fixed	3	1	8	414105	9	3	3	1	0	1149	14	0	600	226
fixed	3	1	9	415439	8	1	1	1	0	1334	14	0	750	227
fixed	3	2	0	415439	8	2	2	1	0	983	14	0	1000	228
fixed	3	2	1	417805	11	1	1	1	0	984	14	0	500	229
fixed	3	2	2	418970	10	0	0	1	0	1166	14	0	650	230
fixed	3	2	3	420437	13	2	2	1	0	1467	14	0	900	231
fixed	3	2	4	420437	9	3	3	1	0	799	14	0	1000	232
fixed	3	2	5	422352	11	1	1	1	0	899	14	0	400	233
fixed	3	2	6	423453	12	2	2	1	0	1101	14	0	550	234
fixed	3	2	7	424602	10	0	0	1	0	1149	14	0	800	235
fixed	3	2	8	425852	9	3	3	1	0	1250	14	0	600	236
fixed	3	2	9	426935	8	1	1	1	0	1084	14	0	750	237
fixed	3	3	0	426935	8	2	3	1	0	949	14	0	1000	237
fixed	3	3	1	429417	11	1	1	1	0	1116	14	0	500	238
fixed	3	3	2	430533	10	0	0	1	0	1116	14	0	650	239
fixed	3	3	3	431600	13	2	2	1	0	1066	14	0	900	240
fixed	3	3	4	431600	9	3	3	1	0	816	14	0	1000	241
fixed	3	3	5	433632	11	1	1	1	0	1015	14	0	400	242
fixed	3	3	6	434665	12	2	2	1	0	1033	14	0	550	243
fixed	3	3	7	435715	10	0	0	1	0	1050	14	0	800	244
fixed	3	3	8	436782	9	3	3	1	0	1067	14	0	600	245
fixed	3	3	9	437998	8	1	1	1	0	1216	14	0	750	246
fixed	3	4	0	437998	8	2	2	1	0	899	14	0	1000	247
fixed	3	4	1	440296	11	1	1	1	0	932	14	0	500	248
fixed	3	4	2	441330	10	0	0	1	0	1034	14	0	650	249
fixed	3	4	3	442297	13	2	2	1	0	966	14	0	900	250
fixed	3	4	4	443463	9	3	3	1	0	1166	14	0	1000	251
fixed	3	4	5	444428	11	1	1	1	0	966	14	0	400	252
fixed	3	4	6	445396	12	2	2	1	0	967	14	0	550	253
fixed	3	4	7	446444	10	0	0	1	0	1048	14	0	800	254
fixed	3	4	8	447628	9	3	3	1	0	1184	14	0	600	255
fixed	3	4	9	448660	8	1	1	1	0	1032	14	0	750	256
fixed	3	5	0	448660	8	2	2	1	0	948	14	0	1000	257
fixed	3	5	1	450759	11	1	1	1	0	748	14	0	500	258
fixed	3	5	2	451742	10	0	0	1	0	982	14	0	650	259
fixed	3	5	3	451742	13	2	2	1	0	900	14	0	900	260
fixed	3	5	4	453726	9	3	3	1	0	1084	14	0	1000	261
fixed	3	5	5	454642	11	1	1	1	0	916	14	0	400	262
fixed	3	5	6	455624	12	2	2	1	0	982	14	0	550	263
fixed	3	5	7	456657	10	0	0	1	0	1033	14	0	800	264
fixed	3	5	8	457708	9	3	3	1	0	1051	14	0	600	265
fixed	3	5	9	458707	8	1	1	1	0	998	14	0	750	266
fixed	3	6	0	458707	8	2	2	1	0	984	14	0	1000	267
fixed	3	6	1	460890	11	1	1	1	0	833	14	0	500	268
fixed	3	6	2	461907	10	0	0	1	0	1017	14	0	650	269
fixed	3	6	3	461907	13	2	2	1	0	899	14	0	900	270
fixed	3	6	4	461907	9	3	3	1	0	784	14	0	1000	271
fixed	3	6	5	464806	11	1	1	1	0	967	14	0	400	272
fixed	3	6	6	465871	12	2	2	1	0	1065	14	0	550	273
fixed	3	6	7	466921	10	0	0	1	0	1050	14	0	800	274
fixed	3	6	8	467954	9	3	3	1	0	1033	14	0	600	275
fixed	3	6	9	469086	8	1	1	1	0	1132	14	0	750	276
fixed	4	0	0	469086	7	2	2	1	0	930	14	0	1000	277
fixed	4	0	1	471470	10	1	1	1	0	1033	14	0	500	278
fixed	4	0	2	472603	9	0	0	1	0	1132	14	0	650	279
fixed	4	0	3	472603	12	2	2	1	0	900	14	0	900	280
fixed	4	0	4	474768	8	3	3	1	0	1266	14	0	1000	281
fixed	4	0	5	475786	10	1	1	1	0	1017	14	0	400	282
fixed	4	0	6	476701	11	2	2	1	0	915	14	0	550	283
fixed	4	0	7	477667	9	0	0	1	0	967	14	0	800	284
fixed	4	0	8	478467	8	3	3	1	0	800	14	0	600	285
fixed	4	0	9	479550	7	1	1	1	0	1083	14	0	750	286
fixed	4	1	0	479550	7	2	2	1	0	882	14	0	1000	287
fixed	4	1	1	481865	10	1	1	1	0	965	14	0	500	288
fixed	4	1	2	482832	9	0	0	1	0	967	14	0	650	289
fixed	4	1	3	482832	12	2	2	1	0	816	14	0	900	290
fixed	4	1	4	482832	8	3	3	1	0	968	14	0	1000	291
fixed	4	1	5	485799	10	1	1	1	0	1035	14	0	400	292
fixed	4	1	6	486781	11	2	2	1	0	982	14	0	550	293
fixed	4	1	7	487713	9	0	0	1	0	932	14	0	800	294
fixed	4	1	8	488648	8	3	3	1	0	934	14	0	600	295
fixed	4	1	9	489663	7	1	1	1	0	1016	14	0	750	296
fixed	4	2	0	489663	7	2	2	1	0	883	14	0	1000	297
fixed	4	2	1	492229	10	1	1	1	0	1199	14	0	500	298
fixed	4	2	2	493262	9	0	0	1	0	1033	14	0	650	299
fixed	4	2	3	493262	12	2	2	1	0	850	14	0	900	300
fixed	4	2	4	493262	8	3	3	1	0	684	14	0	1000	301
fixed	4	2	5	496162	10	1	1	1	0	983	14	0	400	302
fixed	4	2	6	496994	11	2	2	1	0	833	14	0	550	303
fixed	4	2	7	497910	9	0	0	1	0	916	14	0	800	304
fixed	4	2	8	498978	8	3	3	1	0	1068	14	0	600	305
fixed	4	2	9	500043	7	1	1	1	0	1066	14	0	750	306
fixed	4	3	0	500043	7	2	2	1	0	817	14	0	1000	307
fixed	4	3	1	502376	10	1	1	1	0	983	14	0	500	308
fixed	4	3	2	503493	9	0	0	1	0	1117	14	0	650	309
fixed	4	3	3	503493	12	2	3	1	0	917	14	0	900	309
fixed	4	3	4	503493	8	3	3	1	0	766	14	0	1000	310
fixed	4	3	5	506425	10	1	1	1	0	1000	14	0	400	311
fixed	4	3	6	508440	11	2	2	1	0	2014	14	0	550	312
fixed	4	3	7	509607	9	0	0	1	0	1167	14	0	800	313
fixed	4	3	8	510806	8	3	3	1	0	1199	14	0	600	314
fixed	4	3	9	511789	7	1	1	1	0	983	14	0	750	315
fixed	4	4	0	511789	7	2	2	1	0	900	14	0	1000	316
fixed	4	4	1	513989	10	1	1	1	0	834	14	0	500	317
fixed	4	4	2	515122	9	0	0	1	0	1134	14	0	650	318
fixed	4	4	3	516172	12	2	2	1	0	1050	14	0	900	319
fixed	4	4	4	517221	8	3	3	1	0	1049	14	0	1000	320
fixed	4	4	5	518221	10	1	1	1	0	1000	14	0	400	321
fixed	4	4	6	519287	11	2	2	1	0	1065	14	0	550	322
fixed	4	4	7	520136	9	0	0	1	0	849	14	0	800	323
fixed	4	4	8	521353	8	3	3	1	0	1216	14	0	600	324
fixed	4	4	9	522252	7	1	1	1	0	899	14	0	750	325
fixed	4	5	0	522252	7	2	2	1	0	884	14	0	1000	326
fixed	4	5	1	524601	10	1	1	1	0	998	14	0	500	327
fixed	4	5	2	525634	9	0	0	1	0	1033	14	0	650	328
fixed	4	5	3	526617	12	2	2	1	0	983	14	0	900	329
fixed	4	5	4	526617	8	3	3	1	0	999	14	0	1000	330
fixed	4	5	5	528617	10	1	1	1	0	984	14	0	400	331
fixed	4	5	6	529701	11	2	2	1	0	1084	14	0	550	332
fixed	4	5	7	530732	9	0	0	1	0	1031	14	0	800	333
fixed	4	5	8	531799	8	3	3	1	0	1067	14	0	600	334
fixed	4	5	9	532949	7	1	1	1	0	1150	14	0	750	335
fixed	4	6	0	532949	7	2	2	1	0	867	14	0	1000	336
fixed	4	6	1	535181	10	1	1	1	0	866	14	0	500	337
fixed	4	6	2	536548	9	0	0	1	0	1367	14	0	650	338
fixed	4	6	3	536548	12	2	2	1	0	915	14	0	900	339
fixed	4	6	4	536548	8	3	3	1	0	966	14	0	1000	340
fixed	4	6	5	539397	10	1	1	1	0	933	14	0	400	341
fixed	4	6	6	540529	11	2	2	1	0	1132	14	0	550	342
fixed	4	6	7	541662	9	0	0	1	0	1133	14	0	800	343
fixed	4	6	8	542745	8	3	3	1	0	1082	14	0	600	344
fixed	4	6	9	543862	7	1	1	1	0	1117	14	0	750	345
fixed	5	0	0	543862	6	2	2	1	0	863	14	0	1000	346
fixed	5	0	1	546195	9	1	1	1	0	967	14	0	500	347
fixed	5	0	2	547243	8	0	0	1	0	1047	14	0	650	348
fixed	5	0	3	548242	11	2	2	1	0	1000	14	0	900	349
fixed	5	0	4	548242	7	3	3	1	0	784	14	0	1000	350
fixed	5	0	5	550243	9	1	1	1	0	983	14	0	400	351
fixed	5	0	6	551326	10	2	2	1	0	1083	14	0	550	352
fixed	5	0	7	552293	8	0	0	1	0	968	14	0	800	353
fixed	5	0	8	553457	7	3	3	1	0	1164	14	0	600	354
fixed	5	0	9	554576	6	1	1	1	0	1118	14	0	750	355
fixed	5	1	0	554576	6	2	2	1	0	801	14	0	1000	356
fixed	5	1	1	556741	9	1	1	1	0	817	14	0	500	357
fixed	5	1	2	557656	8	0	0	1	0	915	14	0	650	358
fixed	5	1	3	557656	11	2	2	1	0	834	14	0	900	359
fixed	5	1	4	559690	7	3	3	1	0	1134	14	0	1000	360
fixed	5	1	5	560622	9	1	1	1	0	931	14	0	400	361
fixed	5	1	6	561572	10	2	2	1	0	950	14	0	550	362
fixed	5	1	7	562655	8	0	0	1	0	1083	14	0	800	363
fixed	5	1	8	563822	7	3	3	1	0	1167	14	0	600	364
fixed	5	1	9	564871	6	1	1	1	0	1049	14	0	750	365
fixed	5	2	0	564871	6	2	2	1	0	934	14	0	1000	366
fixed	5	2	1	567104	9	1	3	1	0	883	14	0	500	366
fixed	5	2	2	568137	8	0	0	1	0	1033	14	0	650	367
fixed	5	2	3	568137	11	2	3	1	0	867	14	0	900	367
fixed	5	2	4	570104	7	3	3	1	0	1052	14	0	1000	368
fixed	5	2	5	571135	9	1	1	1	0	1031	14	0	400	369
fixed	5	2	6	572170	10	2	2	1	0	1034	14	0	550	370
fixed	5	2	7	573868	8	0	0	1	0	1698	14	0	800	371
fixed	5	2	8	575017	7	3	3	1	0	1149	14	0	600	372
fixed	5	2	9	576217	6	1	1	1	0	1200	14	0	750	373
fixed	5	3	0	577733	6	2	2	1	0	1183	14	0	1000	374
fixed	5	3	1	578834	9	1	1	1	0	1101	14	0	500	375
fixed	5	3	2	579866	8	0	0	1	0	1032	14	0	650	376
fixed	5	3	3	581633	11	2	2	1	0	1767	14	0	900	377
fixed	5	3	4	582765	7	3	3	1	0	1132	14	0	1000	378
fixed	5	3	5	583633	9	1	1	1	0	867	14	0	400	379
fixed	5	3	6	584564	10	2	2	1	0	931	14	0	550	380
fixed	5	3	7	585646	8	0	0	1	0	1082	14	0	800	381
fixed	5	3	8	586730	7	3	3	1	0	1084	14	0	600	382
fixed	5	3	9	587680	6	1	1	1	0	950	14	0	750	383
fixed	5	4	0	589080	6	2	1	1	0	1050	14	0	1000	383
fixed	5	4	1	589980	9	1	1	1	0	900	14	0	500	384
fixed	5	4	2	591030	8	0	0	1	0	1050	14	0	650	385
fixed	5	4	3	592012	11	2	2	1	0	982	14	0	900	386
fixed	5	4	4	592012	7	3	3	1	0	850	14	0	1000	387
fixed	5	4	5	594062	9	1	1	1	0	1034	14	0	400	388
fixed	5	4	6	595028	10	2	3	1	0	966	14	0	550	388
fixed	5	4	7	596012	8	0	0	1	0	983	14	0	800	389
fixed	5	4	8	596994	7	3	3	1	0	982	14	0	600	390
fixed	5	4	9	597893	6	1	1	1	0	899	14	0	750	391
fixed	5	5	0	597893	6	2	2	1	0	883	14	0	1000	392
fixed	5	5	1	600159	9	1	1	1	0	915	14	0	500	393
fixed	5	5	2	601275	8	0	0	1	0	1116	14	0	650	394
fixed	5	5	3	602542	11	2	2	1	0	1267	14	0	900	395
fixed	5	5	4	603574	7	3	3	1	0	1032	14	0	1000	396
fixed	5	5	5	604591	9	1	1	1	0	1017	14	0	400	397
fixed	5	5	6	605792	10	2	3	1	0	1201	14	0	550	397
fixed	5	5	7	607073	8	0	0	1	0	1281	14	0	800	398
fixed	5	5	8	608506	7	3	3	1	0	1433	14	0	600	399
fixed	5	5	9	609473	6	1	1	1	0	968	14	0	750	400
fixed	5	6	0	611289	6	2	2	1	0	1433	14	0	1000	401
fixed	5	6	1	612338	9	1	1	1	0	1048	14	0	500	402
fixed	5	6	2	613287	8	0	0	1	0	949	14	0	650	403
fixed	5	6	3	613287	11	2	2	1	0	884	14	0	900	404
fixed	5	6	4	615254	7	3	3	1	0	1066	14	0	1000	405
fixed	5	6	5	616320	9	1	1	1	0	1066	14	0	400	406
fixed	5	6	6	617354	10	2	2	1	0	1034	14	0	550	407
fixed	5	6	7	618386	8	0	0	1	0	1033	14	0	800	408
fixed	5	6	8	619569	7	3	3	1	0	1183	14	0	600	409
fixed	5	6	9	620703	6	1	1	1	0	1133	14	0	750	410
random	6	0	0	622118	6	3	3	1	0	1062	14	0	1000	411
random	6	0	1	622951	9	1	3	1	0	833	14	0	550	411
random	6	0	2	624036	6	3	3	1	0	1084	14	0	900	412
random	6	0	3	625151	7	0	0	1	0	1116	14	0	750	413
random	6	0	4	626234	10	2	2	1	0	1083	14	0	600	414
random	6	0	5	627384	5	0	0	1	0	1151	14	0	300	415
random	6	0	6	628499	8	1	1	1	0	1115	14	0	400	416
random	6	0	7	629566	5	2	2	1	0	1067	14	0	1000	417
random	6	0	8	630600	9	3	3	1	0	1033	14	0	500	418
random	6	0	9	631566	8	2	2	1	0	966	14	0	800	419
random	6	1	0	632764	9	3	2	1	0	848	14	0	650	419
random	6	1	1	633998	10	2	2	1	0	1234	14	0	600	420
random	6	1	2	635064	7	1	1	1	0	1066	14	0	300	421
random	6	1	3	636097	6	2	2	1	0	1032	14	0	1000	422
random	6	1	4	637047	10	1	1	1	0	950	14	0	900	423
random	6	1	5	638230	5	0	0	1	0	1183	14	0	800	424
random	6	1	6	639345	6	3	3	1	0	1115	14	0	750	425
random	6	1	7	640328	5	2	2	1	0	983	14	0	400	426
random	6	1	8	641362	8	1	1	1	0	1033	14	0	1000	427
random	6	1	9	642377	7	0	0	1	0	1015	14	0	500	428
random	6	2	0	643828	5	1	1	1	0	1101	14	0	900	429
random	6	2	1	644762	9	0	0	1	0	933	14	0	300	430
random	6	2	2	645876	10	3	3	1	0	1115	14	0	1000	431
random	6	2	3	646961	8	0	0	1	0	1084	14	0	550	432
random	6	2	4	648094	7	2	2	1	0	1133	14	0	1000	433
random	6	2	5	648960	6	1	1	1	0	866	14	0	400	434
random	6	2	6	650009	7	3	3	1	0	1049	14	0	600	435
random	6	2	7	651060	9	2	2	1	0	1051	14	0	500	436
random	6	2	8	652108	5	3	3	1	0	1048	14	0	750	437
random	6	2	9	653159	10	2	2	1	0	1051	14	0	650	438
random	6	3	0	654892	5	0	0	1	0	1383	14	0	900	439
random	6	3	1	655939	9	2	2	1	0	1048	14	0	300	440
random	6	3	2	657057	10	1	1	1	0	1117	14	0	1000	441
random	6	3	3	658174	8	3	3	1	0	1117	14	0	550	442
random	6	3	4	658174	7	1	1	1	0	948	14	0	1000	443
random	6	3	5	660206	6	0	0	1	0	1017	14	0	400	444
random	6	3	6	661405	7	3	3	1	0	1199	14	0	600	445
random	6	3	7	662372	9	2	2	1	0	967	14	0	500	446
random	6	3	8	663437	5	1	1	1	0	1065	14	0	750	447
random	6	3	9	664470	10	2	2	1	0	1033	14	0	650	448
random	6	4	0	665670	6	3	2	1	0	849	14	0	500	448
random	6	4	1	666587	10	2	2	1	0	917	14	0	600	449
random	6	4	2	667520	7	1	1	1	0	933	14	0	900	450
random	6	4	3	668536	10	0	0	1	0	1016	14	0	1000	451
random	6	4	4	669951	9	3	3	1	0	1415	14	0	650	452
random	6	4	5	671051	5	1	1	1	0	1100	14	0	550	453
random	6	4	6	671885	8	3	3	1	0	834	14	0	800	454
random	6	4	7	672885	7	0	0	1	0	1000	14	0	700	455
random	6	4	8	672885	9	2	2	1	0	983	14	0	1000	456
random	6	4	9	674735	6	1	1	1	0	835	14	0	300	457
random	6	5	0	674735	7	0	0	1	0	982	14	0	1000	458
random	6	5	1	677050	9	2	2	1	0	950	14	0	400	459
random	6	5	2	678050	5	3	3	1	0	1000	14	0	750	460
random	6	5	3	679049	9	1	1	1	0	1000	14	0	900	461
random	6	5	4	680100	6	2	2	1	0	1051	14	0	300	462
random	6	5	5	681148	5	3	3	1	0	1048	14	0	650	463
random	6	5	6	682048	8	0	0	1	0	900	14	0	550	464
random	6	5	7	683014	10	2	2	1	0	966	14	0	800	465
random	6	5	8	684048	8	1	1	1	0	1033	14	0	500	466
random	6	5	9	684048	7	0	0	1	0	999	14	0	1000	467
random	6	6	0	684048	10	0	0	1	0	817	14	0	1000	468
random	6	6	1	687662	7	2	2	1	0	1231	14	0	650	469
random	6	6	2	688614	10	1	1	1	0	952	14	0	900	470
random	6	6	3	689696	9	2	2	1	0	1082	14	0	600	471
random	6	6	4	690446	7	0	3	1	0	750	14	0	400	471
random	6	6	5	691362	9	3	3	1	0	916	14	0	300	472
random	6	6	6	692378	6	1	1	1	0	1016	14	0	700	473
random	6	6	7	693295	5	3	3	1	0	917	14	0	750	474
random	6	6	8	694278	8	1	1	1	0	983	14	0	500	475
random	6	6	9	694278	6	2	2	1	0	999	14	0	1000	476
fixed	7	0	0	696744	4	2	2	1	0	1096	14	0	1000	477
fixed	7	0	1	697926	7	1	1	1	0	1183	14	0	500	478
fixed	7	0	2	698859	6	0	0	1	0	933	14	0	650	479
fixed	7	0	3	700193	9	2	2	1	0	1334	14	0	900	480
fixed	7	0	4	700193	5	3	3	1	0	764	14	0	1000	481
fixed	7	0	5	702091	7	1	1	1	0	883	14	0	400	482
fixed	7	0	6	703475	8	2	2	1	0	1384	14	0	550	483
fixed	7	0	7	704423	6	0	0	1	0	948	14	0	800	484
fixed	7	0	8	705575	5	3	3	1	0	1151	14	0	600	485
fixed	7	0	9	706557	4	1	1	1	0	982	14	0	750	486
fixed	7	1	0	706557	4	2	2	1	0	865	14	0	1000	487
fixed	7	1	1	708856	7	1	1	1	0	917	14	0	500	488
fixed	7	1	2	709889	6	0	0	1	0	1033	14	0	650	489
fixed	7	1	3	711022	9	2	2	1	0	1134	14	0	900	490
fixed	7	1	4	712171	5	3	3	1	0	1149	14	0	1000	491
fixed	7	1	5	713120	7	1	1	1	0	949	14	0	400	492
fixed	7	1	6	714136	8	2	2	1	0	1015	14	0	550	493
fixed	7	1	7	715120	6	0	0	1	0	984	14	0	800	494
fixed	7	1	8	716235	5	3	3	1	0	1115	14	0	600	495
fixed	7	1	9	717237	4	1	1	1	0	1001	14	0	750	496
fixed	7	2	0	717237	4	2	2	1	0	951	14	0	1000	497
fixed	7	2	1	719470	7	1	1	1	0	867	14	0	500	498
fixed	7	2	2	720451	6	0	0	1	0	981	14	0	650	499
fixed	7	2	3	721452	9	2	2	1	0	1001	14	0	900	500
fixed	7	2	4	721452	5	3	3	1	0	866	14	0	1000	501
fixed	7	2	5	723301	7	1	1	1	0	833	14	0	400	502
fixed	7	2	6	724301	8	2	2	1	0	1000	14	0	550	503
fixed	7	2	7	725333	6	0	0	1	0	1032	14	0	800	504
fixed	7	2	8	726333	5	3	2	1	0	1001	14	0	600	504
fixed	7	2	9	727349	4	1	1	1	0	1016	14	0	750	505
fixed	7	3	0	727349	4	2	2	1	0	968	14	0	1000	506
fixed	7	3	1	729549	7	1	1	1	0	834	14	0	500	507
fixed	7	3	2	730598	6	0	0	1	0	1049	14	0	650	508
fixed	7	3	3	731535	9	2	2	1	0	936	14	0	900	509
fixed	7	3	4	731535	5	3	3	1	0	912	14	0	1000	510
fixed	7	3	5	733415	7	1	1	1	0	867	14	0	400	511
fixed	7	3	6	734381	8	2	2	1	0	967	14	0	550	512
fixed	7	3	7	735229	6	0	0	1	0	848	14	0	800	513
fixed	7	3	8	736346	5	3	3	1	0	1117	14	0	600	514
fixed	7	3	9	737229	4	1	1	1	0	883	14	0	750	515
fixed	7	4	0	737229	4	2	2	1	0	867	14	0	1000	516
fixed	7	4	1	739479	7	1	1	1	0	916	14	0	500	517
fixed	7	4	2	740496	6	0	0	1	0	1017	14	0	650	518
fixed	7	4	3	741461	9	2	2	1	0	965	14	0	900	519
fixed	7	4	4	741461	5	3	3	1	0	1001	14	0	1000	520
fixed	7	4	5	743511	7	1	1	1	0	1049	14	0	400	521
fixed	7	4	6	744478	8	2	2	1	0	967	14	0	550	522
fixed	7	4	7	744478	6	0	0	1	0	765	14	0	800	523
fixed	7	4	8	746543	5	3	3	1	0	1250	14	0	600	524
fixed	7	4	9	747526	4	1	1	1	0	982	14	0	750	525
fixed	7	5	0	747526	4	2	2	1	0	1000	14	0	1000	526
fixed	7	5	1	749709	7	1	1	1	0	817	14	0	500	527
fixed	7	5	2	750875	6	0	0	1	0	1166	14	0	650	528
fixed	7	5	3	750875	9	2	3	1	0	883	14	0	900	528
fixed	7	5	4	750875	5	3	3	1	0	717	14	0	1000	529
fixed	7	5	5	753874	7	1	1	1	0	1083	14	0	400	530
fixed	7	5	6	755007	8	2	2	1	0	1133	14	0	550	531
fixed	7	5	7	756173	6	0	0	1	0	1166	14	0	800	532
fixed	7	5	8	757589	5	3	3	1	0	1416	14	0	600	533
fixed	7	5	9	758672	4	1	1	1	0	1082	14	0	750	534
fixed	7	6	0	758672	4	2	2	1	0	949	14	0	1000	535
fixed	7	6	1	760972	7	1	1	1	0	950	14	0	500	536
fixed	7	6	2	762020	6	0	0	1	0	1049	14	0	650	537
fixed	7	6	3	763088	9	2	2	1	0	1068	14	0	900	538
fixed	7	6	4	763088	5	3	3	1	0	966	14	0	1000	539
fixed	7	6	5	765003	7	1	1	1	0	899	14	0	400	540
fixed	7	6	6	766053	8	2	2	1	0	1050	14	0	550	541
fixed	7	6	7	767069	6	0	0	1	0	1016	14	0	800	542
fixed	7	6	8	768436	5	3	3	1	0	1366	14	0	600	543
fixed	7	6	9	769319	4	1	1	1	0	883	14	0	750	544
