type	block	sequ.	trial	time	Pos.	Color	Button	NumRsp	Resp_1	RT_1	R_Code	Resp_2	RT_2	Trigg.	n_hit	n_inc	n_miss	score_%
random	0	0	0	54415	13	3	3	1	0	1097	14	0	1000	1
random	0	0	1	55380	16	1	1	1	0	966	14	0	550	2
random	0	0	2	55380	13	3	3	1	0	785	14	0	900	3
random	0	0	3	55380	14	0	0	1	0	733	14	0	750	4
random	0	0	4	57931	17	2	2	1	0	900	14	0	600	5
random	0	0	5	58981	12	0	0	1	0	1050	14	0	300	6
random	0	0	6	60213	15	1	1	1	0	1232	14	0	400	7
random	0	0	7	61263	12	2	2	1	0	1050	14	0	1000	8
random	0	0	8	62163	16	3	3	1	0	899	14	0	500	9
random	0	0	9	63228	15	2	2	1	0	1066	14	0	800	10
random	0	1	0	64660	16	3	3	1	0	1084	14	0	650	11
random	0	1	1	65578	17	2	2	1	0	917	14	0	600	12
random	0	1	2	66511	14	1	1	1	0	934	14	0	300	13
random	0	1	3	66511	13	2	2	1	0	883	14	0	1000	14
random	0	1	4	66511	17	1	1	1	0	916	14	0	900	15
random	0	1	5	66511	12	0	0	1	0	816	14	0	800	16
random	0	1	6	70042	13	3	3	1	0	783	14	0	750	17
random	0	1	7	70910	12	2	2	1	0	868	14	0	400	18
random	0	1	8	70910	15	1	1	1	0	883	14	0	1000	19
random	0	1	9	72609	14	0	0	1	0	683	14	0	500	20
random	0	2	0	72609	12	1	2	1	0	783	14	0	900	20
random	0	2	1	74824	16	0	0	1	0	933	14	0	300	21
random	0	2	2	74824	17	3	3	1	0	936	14	0	1000	22
random	0	2	3	76807	15	0	0	1	0	982	14	0	550	23
random	0	2	4	76807	14	2	2	1	0	967	14	0	1000	24
random	0	2	5	78639	13	1	1	1	0	816	14	0	400	25
random	0	2	6	79591	14	3	3	1	0	951	14	0	600	26
random	0	2	7	80390	16	2	1	1	0	799	14	0	500	26
random	0	2	8	81456	12	3	3	1	0	1066	14	0	750	27
random	0	2	9	82289	17	2	2	1	0	833	14	0	650	28
random	0	3	0	84138	12	0	0	1	0	1499	14	0	900	29
random	0	3	1	85087	16	2	2	1	0	949	14	0	300	30
random	0	3	2	85087	17	1	1	1	0	918	14	0	1000	31
random	0	3	3	86871	15	3	3	1	0	768	14	0	550	32
random	0	3	4	86871	14	1	1	1	0	849	14	0	1000	33
random	0	3	5	88737	13	0	0	1	0	850	14	0	400	34
random	0	3	6	89786	14	3	3	1	0	1050	14	0	600	35
random	0	3	7	90686	16	2	2	1	0	900	14	0	500	36
random	0	3	8	91519	12	1	1	1	0	833	14	0	750	37
random	0	3	9	92451	17	2	2	1	0	932	14	0	650	38
random	0	4	0	93569	13	3	3	1	0	766	14	0	500	39
random	0	4	1	94417	17	2	2	1	0	848	14	0	600	40
random	0	4	2	95385	14	1	1	1	0	967	14	0	900	41
random	0	4	3	95385	17	0	0	1	0	931	14	0	1000	42
random	0	4	4	97434	16	3	3	1	0	1034	14	0	650	43
random	0	4	5	98383	12	1	1	1	0	949	14	0	550	44
random	0	4	6	99250	15	3	3	1	0	867	14	0	800	45
random	0	4	7	99998	14	0	0	1	0	748	14	0	700	46
random	0	4	8	99998	16	2	2	1	0	902	14	0	1000	47
random	0	4	9	101999	13	1	1	1	0	1000	14	0	300	48
random	0	5	0	101999	14	0	0	1	0	917	14	0	1000	49
random	0	5	1	104232	16	2	2	1	0	850	14	0	400	50
random	0	5	2	104232	12	3	3	1	0	732	14	0	750	51
random	0	5	3	104232	16	1	1	1	0	900	14	0	900	52
random	0	5	4	106930	13	2	2	1	0	1015	14	0	300	53
random	0	5	5	107845	12	3	3	1	0	915	14	0	650	54
random	0	5	6	108763	15	0	0	1	0	918	14	0	550	55
random	0	5	7	109647	17	2	2	1	0	883	14	0	800	56
random	0	5	8	110546	15	1	1	1	0	900	14	0	500	57
random	0	5	9	110546	14	0	0	1	0	966	14	0	1000	58
random	0	6	0	110546	17	0	0	1	0	683	14	0	1000	59
random	0	6	1	113844	14	2	1	1	0	949	14	0	650	59
random	0	6	2	114777	17	1	1	1	0	933	14	0	900	60
random	0	6	3	115512	16	2	2	1	0	734	14	0	600	61
random	0	6	4	116477	14	0	0	1	0	966	14	0	400	62
random	0	6	5	117343	16	3	3	1	0	866	14	0	300	63
random	0	6	6	118225	13	1	0	1	0	882	14	0	700	63
random	0	6	7	118225	12	3	1	1	0	17	14	0	750	63
random	0	6	8	118225	15	1	3	1	0	316	14	0	500	63
random	0	6	9	118225	13	2	1	1	0	500	14	0	1000	63
fixed	1	0	0	118225	11	2	2	1	0	685	14	0	1000	64
fixed	1	0	1	122807	14	1	1	1	0	914	14	0	500	65
fixed	1	0	2	123774	13	0	0	1	0	967	14	0	650	66
fixed	1	0	3	123774	16	2	2	1	0	817	14	0	900	67
fixed	1	0	4	123774	12	3	3	1	0	933	14	0	1000	68
fixed	1	0	5	126574	14	1	1	1	0	899	14	0	400	69
fixed	1	0	6	127424	15	2	2	1	0	850	14	0	550	70
fixed	1	0	7	127424	13	0	0	1	0	733	14	0	800	71
fixed	1	0	8	129024	12	3	3	1	0	784	14	0	600	72
fixed	1	0	9	129972	11	1	1	1	0	948	14	0	750	73
fixed	1	1	0	129972	11	2	2	1	0	834	14	0	1000	74
fixed	1	1	1	132089	14	1	1	1	0	750	14	0	500	75
fixed	1	1	2	132905	13	0	0	1	0	816	14	0	650	76
fixed	1	1	3	132905	16	2	2	1	0	832	14	0	900	77
fixed	1	1	4	132905	12	3	3	1	0	800	14	0	1000	78
fixed	1	1	5	135688	14	1	1	1	0	849	14	0	400	79
fixed	1	1	6	136537	15	2	2	1	0	849	14	0	550	80
fixed	1	1	7	137453	13	0	0	1	0	916	14	0	800	81
fixed	1	1	8	138419	12	3	3	1	0	966	14	0	600	82
fixed	1	1	9	139385	11	1	1	1	0	966	14	0	750	83
fixed	1	2	0	139385	11	2	2	1	0	931	14	0	1000	84
fixed	1	2	1	141501	14	1	1	1	0	765	14	0	500	85
fixed	1	2	2	142535	13	0	0	1	0	1034	14	0	650	86
fixed	1	2	3	143468	16	2	2	1	0	934	14	0	900	87
fixed	1	2	4	143468	12	3	3	1	0	816	14	0	1000	88
fixed	1	2	5	145384	14	1	1	1	0	901	14	0	400	89
fixed	1	2	6	146317	15	2	2	1	0	933	14	0	550	90
fixed	1	2	7	146317	13	0	0	1	0	816	14	0	800	91
fixed	1	2	8	148216	12	3	3	1	0	1083	14	0	600	92
fixed	1	2	9	149149	11	1	1	1	0	933	14	0	750	93
fixed	1	3	0	149149	11	2	2	1	0	784	14	0	1000	94
fixed	1	3	1	151997	14	1	1	1	0	1482	14	0	500	95
fixed	1	3	2	152782	13	0	0	1	0	784	14	0	650	96
fixed	1	3	3	153732	16	2	2	1	0	950	14	0	900	97
fixed	1	3	4	153732	12	3	3	1	0	733	14	0	1000	98
fixed	1	3	5	155564	14	1	1	1	0	818	14	0	400	99
fixed	1	3	6	156398	15	2	2	1	0	833	14	0	550	100
fixed	1	3	7	157346	13	0	0	1	0	948	14	0	800	101
fixed	1	3	8	158329	12	3	3	1	0	983	14	0	600	102
fixed	1	3	9	159247	11	1	1	1	0	917	14	0	750	103
fixed	1	4	0	159247	11	2	2	1	0	799	14	0	1000	104
fixed	1	4	1	161527	14	1	1	1	0	881	14	0	500	105
fixed	1	4	2	162495	13	0	0	1	0	968	14	0	650	106
fixed	1	4	3	162495	16	2	2	1	0	766	14	0	900	107
fixed	1	4	4	162495	12	3	3	1	0	782	14	0	1000	108
fixed	1	4	5	165311	14	1	1	1	0	883	14	0	400	109
fixed	1	4	6	166127	15	2	2	1	0	815	14	0	550	110
fixed	1	4	7	166960	13	0	0	1	0	834	14	0	800	111
fixed	1	4	8	167877	12	3	3	1	0	916	14	0	600	112
fixed	1	4	9	168793	11	1	1	1	0	916	14	0	750	113
fixed	1	5	0	168793	11	2	2	1	0	866	14	0	1000	114
fixed	1	5	1	170976	14	1	1	1	0	801	14	0	500	115
fixed	1	5	2	171958	13	0	0	1	0	983	14	0	650	116
fixed	1	5	3	171958	16	2	2	1	0	832	14	0	900	117
fixed	1	5	4	171958	12	3	3	1	0	767	14	0	1000	118
fixed	1	5	5	174690	14	1	1	1	0	797	14	0	400	119
fixed	1	5	6	175556	15	2	2	1	0	866	14	0	550	120
fixed	1	5	7	176423	13	0	0	1	0	867	14	0	800	121
fixed	1	5	8	177573	12	3	3	1	0	1150	14	0	600	122
fixed	1	5	9	178656	11	1	1	1	0	1083	14	0	750	123
fixed	1	6	0	178656	11	2	2	1	0	784	14	0	1000	124
fixed	1	6	1	180772	14	1	1	1	0	733	14	0	500	125
fixed	1	6	2	181771	13	0	0	1	0	999	14	0	650	126
fixed	1	6	3	182721	16	2	2	1	0	950	14	0	900	127
fixed	1	6	4	183821	12	3	3	1	0	1100	14	0	1000	128
fixed	1	6	5	184703	14	1	1	1	0	882	14	0	400	129
fixed	1	6	6	185653	15	2	2	1	0	950	14	0	550	130
fixed	1	6	7	186536	13	0	0	1	0	883	14	0	800	131
fixed	1	6	8	187520	12	3	3	1	0	984	14	0	600	132
fixed	1	6	9	188452	11	1	1	1	0	932	14	0	750	133
fixed	2	0	0	188452	10	2	2	1	0	699	14	0	1000	134
fixed	2	0	1	190685	13	1	1	1	0	883	14	0	500	135
fixed	2	0	2	191617	12	0	0	1	0	932	14	0	650	136
fixed	2	0	3	191617	15	2	2	1	0	784	14	0	900	137
fixed	2	0	4	191617	11	3	3	1	0	785	14	0	1000	138
fixed	2	0	5	194384	13	1	1	1	0	834	14	0	400	139
fixed	2	0	6	195217	14	2	2	1	0	833	14	0	550	140
fixed	2	0	7	196116	12	0	0	1	0	899	14	0	800	141
fixed	2	0	8	197000	11	3	3	1	0	884	14	0	600	142
fixed	2	0	9	197933	10	1	1	1	0	933	14	0	750	143
fixed	2	1	0	197933	10	2	2	1	0	666	14	0	1000	144
fixed	2	1	1	200048	13	1	1	1	0	748	14	0	500	145
fixed	2	1	2	200781	12	0	0	1	0	733	14	0	650	146
fixed	2	1	3	200781	15	2	2	1	0	785	14	0	900	147
fixed	2	1	4	200781	11	3	3	1	0	650	14	0	1000	148
fixed	2	1	5	203563	13	1	1	1	0	866	14	0	400	149
fixed	2	1	6	204413	14	2	2	1	0	850	14	0	550	150
fixed	2	1	7	204413	12	0	3	1	0	250	14	0	800	150
fixed	2	1	8	204413	11	3	0	1	0	133	14	0	600	150
fixed	2	1	9	204413	10	1	3	1	0	83	14	0	750	150
fixed	2	2	0	204413	10	2	2	1	0	817	14	0	1000	151
fixed	2	2	1	208779	13	1	1	1	0	816	14	0	500	152
fixed	2	2	2	209762	12	0	0	1	0	983	14	0	650	153
fixed	2	2	3	209762	15	2	2	1	0	901	14	0	900	154
fixed	2	2	4	209762	11	3	3	1	0	748	14	0	1000	155
fixed	2	2	5	212528	13	1	1	1	0	849	14	0	400	156
fixed	2	2	6	213378	14	2	2	1	0	850	14	0	550	157
fixed	2	2	7	213378	12	0	0	1	0	732	14	0	800	158
fixed	2	2	8	214893	11	3	3	1	0	699	14	0	600	159
fixed	2	2	9	215892	10	1	1	1	0	999	14	0	750	160
fixed	2	3	0	215892	10	2	2	1	0	669	14	0	1000	161
fixed	2	3	1	217960	13	1	1	1	0	701	14	0	500	162
fixed	2	3	2	218942	12	0	0	1	0	982	14	0	650	163
fixed	2	3	3	218942	15	2	2	1	0	800	14	0	900	164
fixed	2	3	4	218942	11	3	3	1	0	848	14	0	1000	165
fixed	2	3	5	221675	13	1	1	1	0	817	14	0	400	166
fixed	2	3	6	222491	14	2	2	1	0	816	14	0	550	167
fixed	2	3	7	223358	12	0	0	1	0	867	14	0	800	168
fixed	2	3	8	224174	11	3	2	1	0	816	14	0	600	168
fixed	2	3	9	225156	10	1	1	1	0	981	14	0	750	169
fixed	2	4	0	225156	10	2	3	1	0	698	14	0	1000	169
fixed	2	4	1	227322	13	1	1	1	0	816	14	0	500	170
fixed	2	4	2	228339	12	0	0	1	0	1017	14	0	650	171
fixed	2	4	3	229271	15	2	2	1	0	932	14	0	900	172
fixed	2	4	4	229271	11	3	3	1	0	934	14	0	1000	173
fixed	2	4	5	231171	13	1	1	1	0	883	14	0	400	174
fixed	2	4	6	232122	14	2	2	1	0	951	14	0	550	175
fixed	2	4	7	233088	12	0	0	1	0	966	14	0	800	176
fixed	2	4	8	234103	11	3	3	1	0	1015	14	0	600	177
fixed	2	4	9	234986	10	1	0	1	0	882	14	0	750	177
fixed	2	5	0	234986	10	2	2	1	0	801	14	0	1000	178
fixed	2	5	1	237153	13	1	1	1	0	817	14	0	500	179
fixed	2	5	2	238119	12	0	0	1	0	966	14	0	650	180
fixed	2	5	3	238119	15	2	2	1	0	849	14	0	900	181
fixed	2	5	4	238119	11	3	3	1	0	866	14	0	1000	182
fixed	2	5	5	240885	13	1	1	1	0	850	14	0	400	183
fixed	2	5	6	241768	14	2	2	1	0	883	14	0	550	184
fixed	2	5	7	242801	12	0	0	1	0	1033	14	0	800	185
fixed	2	5	8	243567	11	3	3	1	0	765	14	0	600	186
fixed	2	5	9	244517	10	1	1	1	0	950	14	0	750	187
fixed	2	6	0	244517	10	2	2	1	0	934	14	0	1000	188
fixed	2	6	1	246750	13	1	1	1	0	868	14	0	500	189
fixed	2	6	2	247783	12	0	0	1	0	1033	14	0	650	190
fixed	2	6	3	248733	15	2	2	1	0	950	14	0	900	191
fixed	2	6	4	248733	11	3	3	1	0	833	14	0	1000	192
fixed	2	6	5	250582	13	1	1	1	0	833	14	0	400	193
fixed	2	6	6	251431	14	2	2	1	0	849	14	0	550	194
fixed	2	6	7	251431	12	0	1	1	0	50	14	0	800	194
fixed	2	6	8	251431	11	3	0	1	0	117	14	0	600	194
fixed	2	6	9	251431	10	1	3	1	0	333	14	0	750	194
fixed	3	0	0	251431	9	2	2	1	0	714	14	0	1000	195
fixed	3	0	1	255863	12	1	1	1	0	851	14	0	500	196
fixed	3	0	2	256612	11	0	0	1	0	749	14	0	650	197
fixed	3	0	3	256612	14	2	2	1	0	832	14	0	900	198
fixed	3	0	4	256612	10	3	3	1	0	800	14	0	1000	199
fixed	3	0	5	259378	12	1	1	1	0	849	14	0	400	200
fixed	3	0	6	260261	13	2	2	1	0	883	14	0	550	201
fixed	3	0	7	261161	11	0	0	1	0	900	14	0	800	202
fixed	3	0	8	262093	10	3	3	1	0	931	14	0	600	203
fixed	3	0	9	262978	9	1	1	1	0	885	14	0	750	204
fixed	3	1	0	264360	9	2	2	1	0	1032	14	0	1000	205
fixed	3	1	1	265194	12	1	1	1	0	835	14	0	500	206
fixed	3	1	2	266092	11	0	0	1	0	897	14	0	650	207
fixed	3	1	3	266092	14	2	2	1	0	833	14	0	900	208
fixed	3	1	4	266092	10	3	3	1	0	834	14	0	1000	209
fixed	3	1	5	268908	12	1	1	1	0	900	14	0	400	210
fixed	3	1	6	269791	13	2	2	1	0	882	14	0	550	211
fixed	3	1	7	270724	11	0	0	1	0	933	14	0	800	212
fixed	3	1	8	271691	10	3	3	1	0	967	14	0	600	213
fixed	3	1	9	272656	9	1	1	1	0	966	14	0	750	214
fixed	3	2	0	272656	9	2	2	1	0	699	14	0	1000	215
fixed	3	2	1	274840	12	1	1	1	0	816	14	0	500	216
fixed	3	2	2	275756	11	0	0	1	0	916	14	0	650	217
fixed	3	2	3	276706	14	2	2	1	0	950	14	0	900	218
fixed	3	2	4	276706	10	3	3	1	0	899	14	0	1000	219
fixed	3	2	5	278655	12	1	1	1	0	947	14	0	400	220
fixed	3	2	6	279522	13	2	2	1	0	867	14	0	550	221
fixed	3	2	7	280422	11	0	0	1	0	900	14	0	800	222
fixed	3	2	8	281221	10	3	3	1	0	800	14	0	600	223
fixed	3	2	9	282004	9	1	1	1	0	783	14	0	750	224
fixed	3	3	0	282004	9	2	2	1	0	734	14	0	1000	225
fixed	3	3	1	284236	12	1	1	1	0	849	14	0	500	226
fixed	3	3	2	285087	11	0	0	1	0	850	14	0	650	227
fixed	3	3	3	286085	14	2	2	1	0	999	14	0	900	228
fixed	3	3	4	286085	10	3	3	1	0	868	14	0	1000	229
fixed	3	3	5	288019	12	1	1	1	0	932	14	0	400	230
fixed	3	3	6	288851	13	2	2	1	0	832	14	0	550	231
fixed	3	3	7	289934	11	0	0	1	0	1083	14	0	800	232
fixed	3	3	8	290986	10	3	3	1	0	1052	14	0	600	233
fixed	3	3	9	291933	9	1	1	1	0	947	14	0	750	234
fixed	3	4	0	291933	9	2	2	1	0	717	14	0	1000	235
fixed	3	4	1	294099	12	1	1	1	0	815	14	0	500	236
fixed	3	4	2	295167	11	0	0	1	0	1068	14	0	650	237
fixed	3	4	3	295167	14	2	2	1	0	816	14	0	900	238
fixed	3	4	4	295167	10	3	3	1	0	767	14	0	1000	239
fixed	3	4	5	297966	12	1	1	1	0	868	14	0	400	240
fixed	3	4	6	298848	13	2	2	1	0	882	14	0	550	241
fixed	3	4	7	299932	11	0	0	1	0	1084	14	0	800	242
fixed	3	4	8	300814	10	3	3	1	0	882	14	0	600	243
fixed	3	4	9	301664	9	1	1	1	0	850	14	0	750	244
fixed	3	5	0	301664	9	2	2	1	0	784	14	0	1000	245
fixed	3	5	1	303913	12	1	1	1	0	899	14	0	500	246
fixed	3	5	2	304946	11	0	0	1	0	1033	14	0	650	247
fixed	3	5	3	304946	14	2	2	1	0	800	14	0	900	248
fixed	3	5	4	304946	10	3	3	1	0	698	14	0	1000	249
fixed	3	5	5	307662	12	1	1	1	0	783	14	0	400	250
fixed	3	5	6	308577	13	2	2	1	0	916	14	0	550	251
fixed	3	5	7	308577	11	0	0	1	0	752	14	0	800	252
fixed	3	5	8	310127	10	3	3	1	0	748	14	0	600	253
fixed	3	5	9	311028	9	1	1	1	0	900	14	0	750	254
fixed	3	6	0	311028	9	2	2	1	0	834	14	0	1000	255
fixed	3	6	1	313210	12	1	1	1	0	816	14	0	500	256
fixed	3	6	2	314126	11	0	0	1	0	916	14	0	650	257
fixed	3	6	3	314126	14	2	2	1	0	901	14	0	900	258
fixed	3	6	4	314126	10	3	3	1	0	617	14	0	1000	259
fixed	3	6	5	316843	12	1	1	1	0	799	14	0	400	260
fixed	3	6	6	317807	13	2	2	1	0	965	14	0	550	261
fixed	3	6	7	317807	11	0	0	1	0	802	14	0	800	262
fixed	3	6	8	319590	10	3	3	1	0	981	14	0	600	263
fixed	3	6	9	320390	9	1	1	1	0	800	14	0	750	264
fixed	4	0	0	320390	8	2	2	1	0	729	14	0	1000	265
fixed	4	0	1	322574	11	1	1	1	0	833	14	0	500	266
fixed	4	0	2	323324	10	0	0	1	0	750	14	0	650	267
fixed	4	0	3	323324	13	2	2	1	0	832	14	0	900	268
fixed	4	0	4	323324	9	3	3	1	0	699	14	0	1000	269
fixed	4	0	5	326006	11	1	1	1	0	766	14	0	400	270
fixed	4	0	6	326889	12	2	2	1	0	883	14	0	550	271
fixed	4	0	7	327739	10	0	0	1	0	850	14	0	800	272
fixed	4	0	8	328623	9	3	2	1	0	883	14	0	600	272
fixed	4	0	9	329539	8	1	1	1	0	916	14	0	750	273
fixed	4	1	0	329539	8	2	2	1	0	849	14	0	1000	274
fixed	4	1	1	331771	11	1	1	1	0	866	14	0	500	275
fixed	4	1	2	332571	10	0	0	1	0	800	14	0	650	276
fixed	4	1	3	333504	13	2	2	1	0	933	14	0	900	277
fixed	4	1	4	333504	9	3	3	1	0	616	14	0	1000	278
fixed	4	1	5	335369	11	1	1	1	0	850	14	0	400	279
fixed	4	1	6	336303	12	2	2	1	0	934	14	0	550	280
fixed	4	1	7	337453	10	0	0	1	0	1150	14	0	800	281
fixed	4	1	8	338402	9	3	3	1	0	949	14	0	600	282
fixed	4	1	9	339452	8	1	1	1	0	1050	14	0	750	283
fixed	4	2	0	339452	8	2	2	1	0	932	14	0	1000	284
fixed	4	2	1	341667	11	1	1	1	0	833	14	0	500	285
fixed	4	2	2	342400	10	0	0	1	0	733	14	0	650	286
fixed	4	2	3	342400	13	2	2	1	0	900	14	0	900	287
fixed	4	2	4	342400	9	3	3	1	0	602	14	0	1000	288
fixed	4	2	5	345216	11	1	1	1	0	901	14	0	400	289
fixed	4	2	6	346098	12	2	2	1	0	882	14	0	550	290
fixed	4	2	7	346098	10	0	0	1	0	668	14	0	800	291
fixed	4	2	8	347866	9	3	3	1	0	952	14	0	600	292
fixed	4	2	9	348897	8	1	1	1	0	1031	14	0	750	293
fixed	4	3	0	348897	8	2	2	1	0	734	14	0	1000	294
fixed	4	3	1	351065	11	1	1	1	0	800	14	0	500	295
fixed	4	3	2	351947	10	0	0	1	0	883	14	0	650	296
fixed	4	3	3	351947	13	2	2	1	0	816	14	0	900	297
fixed	4	3	4	351947	9	3	3	1	0	849	14	0	1000	298
fixed	4	3	5	354695	11	1	1	1	0	815	14	0	400	299
fixed	4	3	6	355479	12	2	0	1	0	783	14	0	550	299
fixed	4	3	7	356296	10	0	0	1	0	818	14	0	800	300
fixed	4	3	8	357162	9	3	3	1	0	865	14	0	600	301
fixed	4	3	9	358077	8	1	1	1	0	916	14	0	750	302
fixed	4	4	0	358077	8	2	2	1	0	867	14	0	1000	303
fixed	4	4	1	360145	11	1	1	1	0	700	14	0	500	304
fixed	4	4	2	360145	10	0	3	1	0	665	14	0	650	304
fixed	4	4	3	362027	13	2	2	1	0	1216	14	0	900	305
fixed	4	4	4	362027	9	3	3	1	0	834	14	0	1000	306
fixed	4	4	5	363993	11	1	1	1	0	950	14	0	400	307
fixed	4	4	6	364925	12	2	2	1	0	932	14	0	550	308
fixed	4	4	7	365809	10	0	0	1	0	884	14	0	800	309
fixed	4	4	8	366743	9	3	3	1	0	933	14	0	600	310
fixed	4	4	9	367776	8	1	1	1	0	1033	14	0	750	311
fixed	4	5	0	367776	8	2	2	1	0	782	14	0	1000	312
fixed	4	5	1	370024	11	1	1	1	0	900	14	0	500	313
fixed	4	5	2	370891	10	0	0	1	0	867	14	0	650	314
fixed	4	5	3	370891	13	2	2	1	0	900	14	0	900	315
fixed	4	5	4	370891	9	3	3	1	0	717	14	0	1000	316
fixed	4	5	5	373691	11	1	1	1	0	883	14	0	400	317
fixed	4	5	6	374605	12	2	2	1	0	915	14	0	550	318
fixed	4	5	7	374605	10	0	0	1	0	735	14	0	800	319
fixed	4	5	8	376240	9	3	3	1	0	817	14	0	600	320
fixed	4	5	9	377105	8	1	1	1	0	865	14	0	750	321
fixed	4	6	0	377105	8	2	2	1	0	833	14	0	1000	322
fixed	4	6	1	379220	11	1	0	1	0	748	14	0	500	322
fixed	4	6	2	379989	10	0	0	1	0	768	14	0	650	323
fixed	4	6	3	379989	13	2	2	1	0	865	14	0	900	324
fixed	4	6	4	379989	9	3	3	1	0	833	14	0	1000	325
fixed	4	6	5	382738	11	1	1	1	0	818	14	0	400	326
fixed	4	6	6	383654	12	2	3	1	0	916	14	0	550	326
fixed	4	6	7	384637	10	0	0	1	0	983	14	0	800	327
fixed	4	6	8	385587	9	3	3	1	0	950	14	0	600	328
fixed	4	6	9	386502	8	1	1	1	0	915	14	0	750	329
fixed	5	0	0	386502	7	2	2	1	0	764	14	0	1000	330
fixed	5	0	1	388668	10	1	1	1	0	800	14	0	500	331
fixed	5	0	2	389668	9	0	0	1	0	1000	14	0	650	332
fixed	5	0	3	389668	12	2	2	1	0	882	14	0	900	333
fixed	5	0	4	389668	8	3	3	1	0	898	14	0	1000	334
fixed	5	0	5	392518	10	1	1	1	0	916	14	0	400	335
fixed	5	0	6	393399	11	2	2	1	0	882	14	0	550	336
fixed	5	0	7	393399	9	0	0	1	0	751	14	0	800	337
fixed	5	0	8	395049	8	3	3	1	0	833	14	0	600	338
fixed	5	0	9	395932	7	1	1	1	0	883	14	0	750	339
fixed	5	1	0	395932	7	2	2	1	0	783	14	0	1000	340
fixed	5	1	1	398015	10	1	1	1	0	733	14	0	500	341
fixed	5	1	2	398831	9	0	0	1	0	816	14	0	650	342
fixed	5	1	3	398831	12	2	2	1	0	832	14	0	900	343
fixed	5	1	4	400897	8	3	3	1	0	1149	14	0	1000	344
fixed	5	1	5	401731	10	1	1	1	0	834	14	0	400	345
fixed	5	1	6	402613	11	2	2	1	0	882	14	0	550	346
fixed	5	1	7	403430	9	0	0	1	0	817	14	0	800	347
fixed	5	1	8	404281	8	3	2	1	0	850	14	0	600	347
fixed	5	1	9	405145	7	1	1	1	0	865	14	0	750	348
fixed	5	2	0	405145	7	2	2	1	0	932	14	0	1000	349
fixed	5	2	1	407213	10	1	1	1	0	702	14	0	500	350
fixed	5	2	2	408328	9	0	0	1	0	1115	14	0	650	351
fixed	5	2	3	409328	12	2	2	1	0	1000	14	0	900	352
fixed	5	2	4	409328	8	3	3	1	0	1016	14	0	1000	353
fixed	5	2	5	411744	10	1	1	1	0	1400	14	0	400	354
fixed	5	2	6	412660	11	2	2	1	0	916	14	0	550	355
fixed	5	2	7	414160	9	0	0	1	0	1500	14	0	800	356
fixed	5	2	8	415209	8	3	3	1	0	1049	14	0	600	357
fixed	5	2	9	416093	7	1	1	1	0	884	14	0	750	358
fixed	5	3	0	416093	7	2	2	1	0	767	14	0	1000	359
fixed	5	3	1	418225	10	1	1	1	0	751	14	0	500	360
fixed	5	3	2	419090	9	0	0	1	0	865	14	0	650	361
fixed	5	3	3	419090	12	2	2	1	0	801	14	0	900	362
fixed	5	3	4	419090	8	3	3	1	0	733	14	0	1000	363
fixed	5	3	5	421790	10	1	1	1	0	799	14	0	400	364
fixed	5	3	6	422690	11	2	2	1	0	900	14	0	550	365
fixed	5	3	7	422690	9	0	0	1	0	765	14	0	800	366
fixed	5	3	8	424290	8	3	2	1	0	800	14	0	600	366
fixed	5	3	9	425122	7	1	1	1	0	832	14	0	750	367
fixed	5	4	0	425122	7	2	3	1	0	683	14	0	1000	367
fixed	5	4	1	427388	10	1	1	1	0	900	14	0	500	368
fixed	5	4	2	428337	9	0	0	1	0	950	14	0	650	369
fixed	5	4	3	428337	12	2	2	1	0	884	14	0	900	370
fixed	5	4	4	428337	8	3	3	1	0	784	14	0	1000	371
fixed	5	4	5	431037	10	1	1	1	0	783	14	0	400	372
fixed	5	4	6	432004	11	2	2	1	0	967	14	0	550	373
fixed	5	4	7	432852	9	0	0	1	0	848	14	0	800	374
fixed	5	4	8	433904	8	3	3	1	0	1051	14	0	600	375
fixed	5	4	9	434820	7	1	1	1	0	916	14	0	750	376
fixed	5	5	0	434820	7	2	2	1	0	732	14	0	1000	377
fixed	5	5	1	436935	10	1	0	1	0	733	14	0	500	377
fixed	5	5	2	437702	9	0	0	1	0	767	14	0	650	378
fixed	5	5	3	438717	12	2	2	1	0	1015	14	0	900	379
fixed	5	5	4	438717	8	3	3	1	0	901	14	0	1000	380
fixed	5	5	5	440468	10	1	1	1	0	749	14	0	400	381
fixed	5	5	6	441401	11	2	2	1	0	933	14	0	550	382
fixed	5	5	7	442350	9	0	0	1	0	949	14	0	800	383
fixed	5	5	8	443200	8	3	3	1	0	850	14	0	600	384
fixed	5	5	9	444133	7	1	1	1	0	933	14	0	750	385
fixed	5	6	0	444133	7	2	2	1	0	733	14	0	1000	386
fixed	5	6	1	446366	10	1	1	1	0	867	14	0	500	387
fixed	5	6	2	447232	9	0	0	1	0	866	14	0	650	388
fixed	5	6	3	447232	12	2	2	1	0	849	14	0	900	389
fixed	5	6	4	447232	8	3	3	1	0	867	14	0	1000	390
fixed	5	6	5	449998	10	1	1	1	0	833	14	0	400	391
fixed	5	6	6	450881	11	2	2	1	0	883	14	0	550	392
fixed	5	6	7	451746	9	0	0	1	0	865	14	0	800	393
fixed	5	6	8	452579	8	3	3	1	0	833	14	0	600	394
fixed	5	6	9	453528	7	1	1	1	0	949	14	0	750	395
random	6	0	0	453528	7	3	3	1	0	1012	14	0	1000	396
random	6	0	1	455596	10	1	1	1	0	716	14	0	550	397
random	6	0	2	455596	7	3	3	1	0	800	14	0	900	398
random	6	0	3	455596	8	0	0	1	0	715	14	0	750	399
random	6	0	4	458094	11	2	2	1	0	833	14	0	600	400
random	6	0	5	459061	6	0	0	1	0	967	14	0	300	401
random	6	0	6	459928	9	1	1	1	0	867	14	0	400	402
random	6	0	7	459928	6	2	3	1	0	966	14	0	1000	402
random	6	0	8	461761	10	3	3	1	0	818	14	0	500	403
random	6	0	9	462593	9	2	1	1	0	832	14	0	800	403
random	6	1	0	464010	10	3	3	1	0	1050	14	0	650	404
random	6	1	1	464893	11	2	2	1	0	883	14	0	600	405
random	6	1	2	465925	8	1	1	1	0	1031	14	0	300	406
random	6	1	3	467259	7	2	2	1	0	1334	14	0	1000	407
random	6	1	4	468208	11	1	1	1	0	949	14	0	900	408
random	6	1	5	468208	6	0	0	1	0	733	14	0	800	409
random	6	1	6	470023	7	3	3	1	0	1015	14	0	750	410
random	6	1	7	470957	6	2	2	1	0	934	14	0	400	411
random	6	1	8	470957	9	1	1	1	0	1017	14	0	1000	412
random	6	1	9	472991	8	0	0	1	0	1016	14	0	500	413
random	6	2	0	474473	6	1	1	1	0	1133	14	0	900	414
random	6	2	1	475456	10	0	0	1	0	983	14	0	300	415
random	6	2	2	475456	11	3	2	1	0	783	14	0	1000	415
random	6	2	3	475456	9	0	3	1	0	384	14	0	550	415
random	6	2	4	478091	8	2	2	1	0	1068	14	0	1000	416
random	6	2	5	478989	7	1	1	1	0	898	14	0	400	417
random	6	2	6	480071	8	3	3	1	0	1082	14	0	600	418
random	6	2	7	481037	10	2	2	1	0	967	14	0	500	419
random	6	2	8	482069	6	3	3	1	0	1032	14	0	750	420
random	6	2	9	483087	11	2	2	1	0	1018	14	0	650	421
random	6	3	0	483087	6	0	0	1	0	901	14	0	900	422
random	6	3	1	485252	10	2	2	1	0	899	14	0	300	423
random	6	3	2	485252	11	1	1	1	0	916	14	0	1000	424
random	6	3	3	487268	9	3	3	1	0	999	14	0	550	425
random	6	3	4	487268	8	1	1	1	0	932	14	0	1000	426
random	6	3	5	489151	7	0	0	1	0	867	14	0	400	427
random	6	3	6	490051	8	3	3	1	0	900	14	0	600	428
random	6	3	7	490984	10	2	2	1	0	933	14	0	500	429
random	6	3	8	491967	6	1	1	1	0	983	14	0	750	430
random	6	3	9	492933	11	2	2	1	0	966	14	0	650	431
random	6	4	0	494050	7	3	3	1	0	783	14	0	500	432
random	6	4	1	494983	11	2	2	1	0	933	14	0	600	433
random	6	4	2	494983	8	1	1	1	0	767	14	0	900	434
random	6	4	3	494983	11	0	0	1	0	784	14	0	1000	435
random	6	4	4	497881	10	3	3	1	0	983	14	0	650	436
random	6	4	5	498881	6	1	1	1	0	1000	14	0	550	437
random	6	4	6	498881	9	3	3	1	0	800	14	0	800	438
random	6	4	7	500530	8	0	0	1	0	848	14	0	700	439
random	6	4	8	500530	10	2	2	1	0	867	14	0	1000	440
random	6	4	9	502380	7	1	1	1	0	850	14	0	300	441
random	6	5	0	502380	8	0	0	1	0	916	14	0	1000	442
random	6	5	1	504863	10	2	2	1	0	1133	14	0	400	443
random	6	5	2	505846	6	3	3	1	0	983	14	0	750	444
random	6	5	3	505846	10	1	1	1	0	899	14	0	900	445
random	6	5	4	507845	7	2	2	1	0	1083	14	0	300	446
random	6	5	5	509094	6	3	3	1	0	1249	14	0	650	447
random	6	5	6	510095	9	0	0	1	0	1001	14	0	550	448
random	6	5	7	511010	11	2	2	1	0	915	14	0	800	449
random	6	5	8	512060	9	1	1	1	0	1050	14	0	500	450
random	6	5	9	512060	8	0	0	1	0	866	14	0	1000	451
random	6	6	0	512060	11	0	0	1	0	716	14	0	1000	452
random	6	6	1	515276	8	2	2	1	0	832	14	0	650	453
random	6	6	2	515276	11	1	1	1	0	899	14	0	900	454
random	6	6	3	517074	10	2	2	1	0	882	14	0	600	455
random	6	6	4	517991	8	0	0	1	0	917	14	0	400	456
random	6	6	5	518992	10	3	3	1	0	1000	14	0	300	457
random	6	6	6	519841	7	1	1	1	0	849	14	0	700	458
random	6	6	7	520806	6	3	3	1	0	966	14	0	750	459
random	6	6	8	521690	9	1	1	1	0	883	14	0	500	460
random	6	6	9	521690	7	2	2	1	0	867	14	0	1000	461
fixed	7	0	0	524172	5	2	2	1	0	1095	14	0	1000	462
fixed	7	0	1	526022	8	1	1	1	0	1849	14	0	500	463
fixed	7	0	2	526920	7	0	0	1	0	898	14	0	650	464
fixed	7	0	3	526920	10	2	2	1	0	901	14	0	900	465
fixed	7	0	4	526920	6	3	3	1	0	783	14	0	1000	466
fixed	7	0	5	529654	8	1	1	1	0	816	14	0	400	467
fixed	7	0	6	530571	9	2	2	1	0	917	14	0	550	468
fixed	7	0	7	530571	7	0	0	1	0	799	14	0	800	469
fixed	7	0	8	532220	6	3	3	1	0	833	14	0	600	470
fixed	7	0	9	533136	5	1	1	1	0	916	14	0	750	471
fixed	7	1	0	533136	5	2	2	1	0	833	14	0	1000	472
fixed	7	1	1	535386	8	1	1	1	0	900	14	0	500	473
fixed	7	1	2	536186	7	0	0	1	0	800	14	0	650	474
fixed	7	1	3	536186	10	2	2	1	0	816	14	0	900	475
fixed	7	1	4	536186	6	3	3	1	0	949	14	0	1000	476
fixed	7	1	5	538967	8	1	1	1	0	850	14	0	400	477
fixed	7	1	6	539852	9	2	2	1	0	885	14	0	550	478
fixed	7	1	7	539852	7	0	0	1	0	815	14	0	800	479
fixed	7	1	8	541584	6	3	3	1	0	917	14	0	600	480
fixed	7	1	9	542417	5	1	1	1	0	833	14	0	750	481
fixed	7	2	0	542417	5	2	2	1	0	983	14	0	1000	482
fixed	7	2	1	544666	8	1	1	1	0	866	14	0	500	483
fixed	7	2	2	545649	7	0	0	1	0	983	14	0	650	484
fixed	7	2	3	545649	10	2	2	1	0	915	14	0	900	485
fixed	7	2	4	545649	6	3	3	1	0	684	14	0	1000	486
fixed	7	2	5	548414	8	1	1	1	0	849	14	0	400	487
fixed	7	2	6	549330	9	2	2	1	0	915	14	0	550	488
fixed	7	2	7	550198	7	0	0	1	0	868	14	0	800	489
fixed	7	2	8	551247	6	3	3	1	0	1049	14	0	600	490
fixed	7	2	9	552180	5	1	1	1	0	933	14	0	750	491
fixed	7	3	0	552180	5	2	2	1	0	802	14	0	1000	492
fixed	7	3	1	554329	8	1	1	1	0	767	14	0	500	493
fixed	7	3	2	555145	7	0	0	1	0	816	14	0	650	494
fixed	7	3	3	556078	10	2	2	1	0	933	14	0	900	495
fixed	7	3	4	556078	6	3	3	1	0	667	14	0	1000	496
fixed	7	3	5	557877	8	1	1	1	0	799	14	0	400	497
fixed	7	3	6	558828	9	2	2	1	0	951	14	0	550	498
fixed	7	3	7	559710	7	0	0	1	0	882	14	0	800	499
fixed	7	3	8	560727	6	3	3	1	0	1017	14	0	600	500
fixed	7	3	9	561676	5	1	1	1	0	949	14	0	750	501
fixed	7	4	0	561676	5	2	2	1	0	766	14	0	1000	502
fixed	7	4	1	564009	8	1	1	1	0	966	14	0	500	503
fixed	7	4	2	564809	7	0	0	1	0	800	14	0	650	504
fixed	7	4	3	564809	10	2	2	1	0	815	14	0	900	505
fixed	7	4	4	564809	6	3	3	1	0	582	14	0	1000	506
fixed	7	4	5	567658	8	1	1	1	0	917	14	0	400	507
fixed	7	4	6	568674	9	2	2	1	0	1016	14	0	550	508
fixed	7	4	7	568674	7	0	0	1	0	750	14	0	800	509
fixed	7	4	8	570257	6	3	3	1	0	783	14	0	600	510
fixed	7	4	9	571256	5	1	1	1	0	998	14	0	750	511
fixed	7	5	0	571256	5	2	2	1	0	783	14	0	1000	512
fixed	7	5	1	573373	8	1	1	1	0	750	14	0	500	513
fixed	7	5	2	574289	7	0	0	1	0	916	14	0	650	514
fixed	7	5	3	574289	10	2	2	1	0	883	14	0	900	515
fixed	7	5	4	574289	6	3	3	1	0	833	14	0	1000	516
fixed	7	5	5	577021	8	1	1	1	0	815	14	0	400	517
fixed	7	5	6	577821	9	2	2	1	0	800	14	0	550	518
fixed	7	5	7	577821	7	0	0	1	0	815	14	0	800	519
fixed	7	5	8	579421	6	3	3	1	0	784	14	0	600	520
fixed	7	5	9	580270	5	1	1	1	0	849	14	0	750	521
fixed	7	6	0	580270	5	2	2	1	0	799	14	0	1000	522
fixed	7	6	1	582337	8	1	1	1	0	717	14	0	500	523
fixed	7	6	2	583269	7	0	0	1	0	932	14	0	650	524
fixed	7	6	3	583269	10	2	2	1	0	884	14	0	900	525
fixed	7	6	4	583269	6	3	3	1	0	851	14	0	1000	526
fixed	7	6	5	586052	8	1	1	1	0	867	14	0	400	527
fixed	7	6	6	586986	9	2	2	1	0	933	14	0	550	528
fixed	7	6	7	586986	7	0	0	1	0	716	14	0	800	529
fixed	7	6	8	588567	6	3	3	1	0	767	14	0	600	530
fixed	7	6	9	589616	5	1	1	1	0	1049	14	0	750	531
