type	block	sequ.	trial	time	Pos.	Color	Button	NumRsp	Resp_1	RT_1	R_Code	Resp_2	RT_2	Trigg.	n_hit	n_inc	n_miss	score_%
random	0	0	0	31068	11	3	3	1	0	1100	14	0	1000	1
random	0	0	1	31830	14	1	1	1	0	761	14	0	550	2
random	0	0	2	32765	11	3	3	1	0	934	14	0	900	3
random	0	0	3	33593	12	0	0	1	0	828	14	0	750	4
random	0	0	4	34411	15	2	2	1	0	817	14	0	600	5
random	0	0	5	35248	10	0	0	1	0	837	14	0	300	6
random	0	0	6	36379	13	1	3	1	0	1131	14	0	400	6
random	0	0	7	36379	10	2	0	1	0	839	14	0	1000	6
random	0	0	8	39419	14	3	3	1	0	2040	14	0	500	7
random	0	0	9	40530	13	2	2	1	0	1110	14	0	800	8
random	0	1	0	42021	14	3	3	1	0	1107	14	0	650	9
random	0	1	1	43063	15	2	2	1	0	1042	14	0	600	10
random	0	1	2	44172	12	1	1	1	0	1108	14	0	300	11
random	0	1	3	45183	11	2	2	1	0	1011	14	0	1000	12
random	0	1	4	46135	15	1	1	1	0	952	14	0	900	13
random	0	1	5	46135	10	0	0	1	0	781	14	0	800	14
random	0	1	6	47884	11	3	3	1	0	944	14	0	750	15
random	0	1	7	48609	10	2	2	1	0	726	14	0	400	16
random	0	1	8	48609	13	1	1	1	0	842	14	0	1000	17
random	0	1	9	50286	12	0	0	1	0	667	14	0	500	18
random	0	2	0	52344	10	1	1	1	0	1668	14	0	900	19
random	0	2	1	53322	14	0	0	1	0	979	14	0	300	20
random	0	2	2	54414	15	3	3	1	0	1091	14	0	1000	21
random	0	2	3	55423	13	0	0	1	0	1009	14	0	550	22
random	0	2	4	56481	12	2	2	1	0	1057	14	0	1000	23
random	0	2	5	57547	11	1	1	1	0	1067	14	0	400	24
random	0	2	6	58747	12	3	3	1	0	1200	14	0	600	25
random	0	2	7	59815	14	2	2	1	0	1067	14	0	500	26
random	0	2	8	60618	10	3	3	1	0	803	14	0	750	27
random	0	2	9	61595	15	2	2	1	0	977	14	0	650	28
random	0	3	0	61595	10	0	0	1	0	871	14	0	900	29
random	0	3	1	63987	14	2	2	1	0	1123	14	0	300	30
random	0	3	2	63987	15	1	1	1	0	962	14	0	1000	31
random	0	3	3	65617	13	3	3	1	0	621	14	0	550	32
random	0	3	4	65617	12	1	1	1	0	870	14	0	1000	33
random	0	3	5	67249	11	0	0	1	0	628	14	0	400	34
random	0	3	6	68555	12	3	3	1	0	1306	14	0	600	35
random	0	3	7	69434	14	2	2	1	0	878	14	0	500	36
random	0	3	8	69434	10	1	1	1	0	701	14	0	750	37
random	0	3	9	71341	15	2	2	1	0	1140	14	0	650	38
random	0	4	0	72675	11	3	3	1	0	935	14	0	500	39
random	0	4	1	73585	15	2	2	1	0	910	14	0	600	40
random	0	4	2	74542	12	1	1	1	0	957	14	0	900	41
random	0	4	3	74542	15	0	0	1	0	735	14	0	1000	42
random	0	4	4	76343	14	3	3	1	0	791	14	0	650	43
random	0	4	5	77220	10	1	1	1	0	877	14	0	550	44
random	0	4	6	78041	13	3	2	1	0	821	14	0	800	44
random	0	4	7	79430	12	0	0	1	0	1389	14	0	700	45
random	0	4	8	81943	14	2	-1	1	0	2500	14	0	1000	45
random	0	4	9	83083	11	1	1	1	0	1140	14	0	300	46
random	0	5	0	83083	12	0	0	1	0	1003	14	0	1000	47
random	0	5	1	85361	14	2	2	1	0	878	14	0	400	48
random	0	5	2	85361	10	3	3	1	0	724	14	0	750	49
random	0	5	3	85361	14	1	1	1	0	881	14	0	900	50
random	0	5	4	87861	11	2	2	1	0	844	14	0	300	51
random	0	5	5	88788	10	3	1	1	0	927	14	0	650	51
random	0	5	6	89652	13	0	0	1	0	864	14	0	550	52
random	0	5	7	90721	15	2	2	1	0	1068	14	0	800	53
random	0	5	8	91749	13	1	1	1	0	1028	14	0	500	54
random	0	5	9	91749	12	0	0	1	0	882	14	0	1000	55
random	0	6	0	91749	15	0	0	1	0	952	14	0	1000	56
random	0	6	1	95102	12	2	2	1	0	935	14	0	650	57
random	0	6	2	95102	15	1	1	1	0	681	14	0	900	58
random	0	6	3	96974	14	2	2	1	0	957	14	0	600	59
random	0	6	4	98160	12	0	0	1	0	1186	14	0	400	60
random	0	6	5	99105	14	3	3	1	0	944	14	0	300	61
random	0	6	6	100072	11	1	1	1	0	968	14	0	700	62
random	0	6	7	100957	10	3	2	1	0	884	14	0	750	62
random	0	6	8	102191	13	1	0	1	0	1234	14	0	500	62
random	0	6	9	103547	11	2	2	1	0	1356	14	0	1000	63
fixed	1	0	0	103547	9	2	2	1	0	849	14	0	1000	64
fixed	1	0	1	105911	12	1	1	1	0	967	14	0	500	65
fixed	1	0	2	106834	11	0	0	1	0	923	14	0	650	66
fixed	1	0	3	107794	14	2	2	1	0	960	14	0	900	67
fixed	1	0	4	108895	10	3	3	1	0	1101	14	0	1000	68
fixed	1	0	5	109898	12	1	1	1	0	1003	14	0	400	69
fixed	1	0	6	110803	13	2	2	1	0	905	14	0	550	70
fixed	1	0	7	111649	11	0	0	1	0	846	14	0	800	71
fixed	1	0	8	112632	10	3	3	1	0	984	14	0	600	72
fixed	1	0	9	113781	9	1	1	1	0	1149	14	0	750	73
fixed	1	1	0	115201	9	2	2	1	0	1069	14	0	1000	74
fixed	1	1	1	116140	12	1	1	1	0	939	14	0	500	75
fixed	1	1	2	116874	11	0	0	1	0	734	14	0	650	76
fixed	1	1	3	117837	14	2	2	1	0	963	14	0	900	77
fixed	1	1	4	117837	10	3	3	1	0	750	14	0	1000	78
fixed	1	1	5	119787	12	1	1	1	0	934	14	0	400	79
fixed	1	1	6	120755	13	2	2	1	0	968	14	0	550	80
fixed	1	1	7	121694	11	0	0	1	0	938	14	0	800	81
fixed	1	1	8	122695	10	3	3	1	0	1001	14	0	600	82
fixed	1	1	9	123823	9	1	1	1	0	1129	14	0	750	83
fixed	1	2	0	123823	9	2	2	1	0	934	14	0	1000	84
fixed	1	2	1	126308	12	1	1	1	0	1134	14	0	500	85
fixed	1	2	2	127057	11	0	0	1	0	749	14	0	650	86
fixed	1	2	3	127057	14	2	2	1	0	919	14	0	900	87
fixed	1	2	4	127057	10	3	3	1	0	972	14	0	1000	88
fixed	1	2	5	129879	12	1	1	1	0	886	14	0	400	89
fixed	1	2	6	130977	13	2	2	1	0	1098	14	0	550	90
fixed	1	2	7	130977	11	0	0	1	0	691	14	0	800	91
fixed	1	2	8	132681	10	3	3	1	0	902	14	0	600	92
fixed	1	2	9	133562	9	1	1	1	0	881	14	0	750	93
fixed	1	3	0	134987	9	2	2	1	0	1040	14	0	1000	94
fixed	1	3	1	135848	12	1	1	1	0	861	14	0	500	95
fixed	1	3	2	135848	11	0	0	1	0	572	14	0	650	96
fixed	1	3	3	135848	14	2	3	1	0	734	14	0	900	96
fixed	1	3	4	135848	10	3	3	1	0	729	14	0	1000	97
fixed	1	3	5	139285	12	1	1	1	0	862	14	0	400	98
fixed	1	3	6	139285	13	2	2	1	0	84	14	0	550	99
fixed	1	3	7	140856	11	0	0	1	0	1005	14	0	800	100
fixed	1	3	8	142258	10	3	3	1	0	1402	14	0	600	101
fixed	1	3	9	143258	9	1	1	1	0	1000	14	0	750	102
fixed	1	4	0	144771	9	2	2	1	0	1112	14	0	1000	103
fixed	1	4	1	145394	12	1	1	1	0	623	14	0	500	104
fixed	1	4	2	145394	11	0	0	1	0	523	14	0	650	105
fixed	1	4	3	145394	14	2	2	1	0	619	14	0	900	106
fixed	1	4	4	145394	10	3	3	1	0	434	14	0	1000	107
fixed	1	4	5	148407	12	1	1	1	0	455	14	0	400	108
fixed	1	4	6	149242	13	2	2	1	0	835	14	0	550	109
fixed	1	4	7	149242	11	0	0	1	0	768	14	0	800	110
fixed	1	4	8	151354	10	3	3	1	0	1301	14	0	600	111
fixed	1	4	9	152256	9	1	1	1	0	901	14	0	750	112
fixed	1	5	0	152256	9	2	2	1	0	979	14	0	1000	113
fixed	1	5	1	154190	12	1	1	1	0	546	14	0	500	114
fixed	1	5	2	154190	11	0	0	1	0	433	14	0	650	115
fixed	1	5	3	154190	14	2	3	1	0	430	14	0	900	115
fixed	1	5	4	154190	10	3	3	1	0	825	14	0	1000	116
fixed	1	5	5	157878	12	1	1	1	0	1120	14	0	400	117
fixed	1	5	6	158516	13	2	2	1	0	637	14	0	550	118
fixed	1	5	7	158516	11	0	0	1	0	736	14	0	800	119
fixed	1	5	8	160346	10	3	3	1	0	1020	14	0	600	120
fixed	1	5	9	161280	9	1	1	1	0	934	14	0	750	121
fixed	1	6	0	162779	9	2	2	1	0	1099	14	0	1000	122
fixed	1	6	1	164004	12	1	1	1	0	1224	14	0	500	123
fixed	1	6	2	165013	11	0	0	1	0	1010	14	0	650	124
fixed	1	6	3	165013	14	2	2	1	0	854	14	0	900	125
fixed	1	6	4	165013	10	3	3	1	0	666	14	0	1000	126
fixed	1	6	5	167785	12	1	1	1	0	869	14	0	400	127
fixed	1	6	6	168653	13	2	2	1	0	867	14	0	550	128
fixed	1	6	7	168653	11	0	0	1	0	622	14	0	800	129
fixed	1	6	8	170501	10	3	3	1	0	1028	14	0	600	130
fixed	1	6	9	170501	9	1	1	1	0	657	14	0	750	131
fixed	2	0	0	172837	8	2	2	1	0	1176	14	0	1000	132
fixed	2	0	1	173389	11	1	1	1	0	552	14	0	500	133
fixed	2	0	2	173389	10	0	0	1	0	617	14	0	650	134
fixed	2	0	3	173389	13	2	2	1	0	579	14	0	900	135
fixed	2	0	4	173389	9	3	3	1	0	417	14	0	1000	136
fixed	2	0	5	173389	11	1	1	1	0	339	14	0	400	137
fixed	2	0	6	177214	12	2	2	1	0	834	14	0	550	138
fixed	2	0	7	177214	10	0	0	1	0	561	14	0	800	139
fixed	2	0	8	178990	9	3	3	1	0	974	14	0	600	140
fixed	2	0	9	179844	8	1	1	1	0	854	14	0	750	141
fixed	2	1	0	181378	8	2	2	1	0	1162	14	0	1000	142
fixed	2	1	1	182013	11	1	1	1	0	635	14	0	500	143
fixed	2	1	2	182698	10	0	0	1	0	685	14	0	650	144
fixed	2	1	3	183832	13	2	2	1	0	1134	14	0	900	145
fixed	2	1	4	183832	9	3	3	1	0	647	14	0	1000	146
fixed	2	1	5	185866	11	1	1	1	0	1028	14	0	400	147
fixed	2	1	6	186705	12	2	2	1	0	840	14	0	550	148
fixed	2	1	7	186705	10	0	0	1	0	596	14	0	800	149
fixed	2	1	8	188386	9	3	3	1	0	869	14	0	600	150
fixed	2	1	9	188386	8	1	1	1	0	616	14	0	750	151
fixed	2	2	0	188386	8	2	2	1	0	993	14	0	1000	152
fixed	2	2	1	191308	11	1	1	1	0	774	14	0	500	153
fixed	2	2	2	192359	10	0	0	1	0	1051	14	0	650	154
fixed	2	2	3	192359	13	2	2	1	0	644	14	0	900	155
fixed	2	2	4	192359	9	3	3	1	0	493	14	0	1000	156
fixed	2	2	5	192359	11	1	1	1	0	239	14	0	400	157
fixed	2	2	6	195271	12	2	2	1	0	586	14	0	550	158
fixed	2	2	7	196189	10	0	0	1	0	918	14	0	800	159
fixed	2	2	8	197308	9	3	3	1	0	1119	14	0	600	160
fixed	2	2	9	198192	8	1	1	1	0	883	14	0	750	161
fixed	2	3	0	199680	8	2	2	1	0	1140	14	0	1000	162
fixed	2	3	1	200392	11	1	1	1	0	712	14	0	500	163
fixed	2	3	2	200392	10	0	0	1	0	550	14	0	650	164
fixed	2	3	3	200392	13	2	2	1	0	395	14	0	900	165
fixed	2	3	4	200392	9	3	1	1	0	794	14	0	1000	165
fixed	2	3	5	203595	11	1	2	1	0	629	14	0	400	165
fixed	2	3	6	204835	12	2	0	1	0	1239	14	0	550	165
fixed	2	3	7	206117	10	0	0	1	0	1283	14	0	800	166
fixed	2	3	8	207320	9	3	3	1	0	1203	14	0	600	167
fixed	2	3	9	208399	8	1	1	1	0	1079	14	0	750	168
fixed	2	4	0	208399	8	2	2	1	0	789	14	0	1000	169
fixed	2	4	1	210348	11	1	1	1	0	533	14	0	500	170
fixed	2	4	2	211366	10	0	0	1	0	1017	14	0	650	171
fixed	2	4	3	211366	13	2	2	1	0	885	14	0	900	172
fixed	2	4	4	211366	9	3	3	1	0	650	14	0	1000	173
fixed	2	4	5	211366	11	1	1	1	0	314	14	0	400	174
fixed	2	4	6	214625	12	2	2	1	0	951	14	0	550	175
fixed	2	4	7	214625	10	0	0	1	0	600	14	0	800	176
fixed	2	4	8	216203	9	3	2	1	0	750	14	0	600	176
fixed	2	4	9	217061	8	1	1	1	0	857	14	0	750	177
fixed	2	5	0	218911	8	2	2	1	0	1450	14	0	1000	178
fixed	2	5	1	219571	11	1	1	1	0	661	14	0	500	179
fixed	2	5	2	220461	10	0	0	1	0	890	14	0	650	180
fixed	2	5	3	221557	13	2	2	1	0	1096	14	0	900	181
fixed	2	5	4	222647	9	3	3	1	0	1090	14	0	1000	182
fixed	2	5	5	223792	11	1	1	1	0	1145	14	0	400	183
fixed	2	5	6	224574	12	2	2	1	0	782	14	0	550	184
fixed	2	5	7	224574	10	0	0	1	0	650	14	0	800	185
fixed	2	5	8	226411	9	3	3	1	0	1018	14	0	600	186
fixed	2	5	9	226411	8	1	1	1	0	633	14	0	750	187
fixed	2	6	0	226411	8	2	2	1	0	949	14	0	1000	188
fixed	2	6	1	229102	11	1	1	1	0	573	14	0	500	189
fixed	2	6	2	229102	10	0	0	1	0	593	14	0	650	190
fixed	2	6	3	230729	13	2	2	1	0	967	14	0	900	191
fixed	2	6	4	231847	9	3	3	1	0	1118	14	0	1000	192
fixed	2	6	5	232554	11	1	1	1	0	706	14	0	400	193
fixed	2	6	6	233465	12	2	2	1	0	912	14	0	550	194
fixed	2	6	7	233465	10	0	0	1	0	556	14	0	800	195
fixed	2	6	8	235567	9	3	3	1	0	1278	14	0	600	196
fixed	2	6	9	235567	8	1	1	1	0	550	14	0	750	197
fixed	3	0	0	235567	7	2	2	1	0	910	14	0	1000	198
fixed	3	0	1	238669	10	1	1	1	0	951	14	0	500	199
fixed	3	0	2	239624	9	0	0	1	0	955	14	0	650	200
fixed	3	0	3	239624	12	2	2	1	0	646	14	0	900	201
fixed	3	0	4	239624	8	3	3	1	0	472	14	0	1000	202
fixed	3	0	5	239624	10	1	1	1	0	198	14	0	400	203
fixed	3	0	6	239624	11	2	2	1	0	545	14	0	550	204
fixed	3	0	7	239624	9	0	0	1	0	559	14	0	800	205
fixed	3	0	8	239624	8	3	3	1	0	423	14	0	600	206
fixed	3	0	9	239624	7	1	1	1	0	543	14	0	750	207
fixed	3	1	0	239624	7	2	2	1	0	301	14	0	1000	208
fixed	3	1	1	247560	10	1	1	1	0	1437	14	0	500	209
fixed	3	1	2	248442	9	0	0	1	0	882	14	0	650	210
fixed	3	1	3	249492	12	2	2	1	0	1051	14	0	900	211
fixed	3	1	4	250843	8	3	3	1	0	1351	14	0	1000	212
fixed	3	1	5	251610	10	1	1	1	0	767	14	0	400	213
fixed	3	1	6	252342	11	2	2	1	0	732	14	0	550	214
fixed	3	1	7	252342	9	0	0	1	0	710	14	0	800	215
fixed	3	1	8	254081	8	3	3	1	0	935	14	0	600	216
fixed	3	1	9	254081	7	1	1	1	0	731	14	0	750	217
fixed	3	2	0	256286	7	2	2	1	0	1105	14	0	1000	218
fixed	3	2	1	257365	10	1	1	1	0	1079	14	0	500	219
fixed	3	2	2	258248	9	0	0	1	0	882	14	0	650	220
fixed	3	2	3	259515	12	2	2	1	0	1267	14	0	900	221
fixed	3	2	4	259515	8	3	3	1	0	734	14	0	1000	222
fixed	3	2	5	261424	10	1	1	1	0	907	14	0	400	223
fixed	3	2	6	262485	11	2	2	1	0	1060	14	0	550	224
fixed	3	2	7	263386	9	0	0	1	0	901	14	0	800	225
fixed	3	2	8	264437	8	3	3	1	0	1051	14	0	600	226
fixed	3	2	9	265386	7	1	1	1	0	950	14	0	750	227
fixed	3	3	0	267088	7	2	2	1	0	1320	14	0	1000	228
fixed	3	3	1	267821	10	1	1	1	0	733	14	0	500	229
fixed	3	3	2	268773	9	0	0	1	0	952	14	0	650	230
fixed	3	3	3	270468	12	2	2	1	0	1696	14	0	900	231
fixed	3	3	4	270468	8	3	3	1	0	638	14	0	1000	232
fixed	3	3	5	272175	10	1	1	1	0	702	14	0	400	233
fixed	3	3	6	272930	11	2	2	1	0	755	14	0	550	234
fixed	3	3	7	272930	9	0	0	1	0	595	14	0	800	235
fixed	3	3	8	274609	8	3	2	1	0	866	14	0	600	235
fixed	3	3	9	275534	7	1	1	1	0	925	14	0	750	236
fixed	3	4	0	277211	7	2	2	1	0	1299	14	0	1000	237
fixed	3	4	1	277902	10	1	1	1	0	691	14	0	500	238
fixed	3	4	2	278696	9	0	0	1	0	794	14	0	650	239
fixed	3	4	3	278696	12	2	2	1	0	851	14	0	900	240
fixed	3	4	4	278696	8	3	3	1	0	634	14	0	1000	241
fixed	3	4	5	281836	10	1	1	1	0	1223	14	0	400	242
fixed	3	4	6	282821	11	2	2	1	0	985	14	0	550	243
fixed	3	4	7	282821	9	0	0	1	0	593	14	0	800	244
fixed	3	4	8	282821	8	3	3	1	0	500	14	0	600	245
fixed	3	4	9	282821	7	1	1	1	0	450	14	0	750	246
fixed	3	5	0	282821	7	2	2	1	0	817	14	0	1000	247
fixed	3	5	1	287217	10	1	1	1	0	799	14	0	500	248
fixed	3	5	2	288002	9	0	0	1	0	785	14	0	650	249
fixed	3	5	3	289021	12	2	2	1	0	1018	14	0	900	250
fixed	3	5	4	289021	8	3	3	1	0	898	14	0	1000	251
fixed	3	5	5	290993	10	1	1	1	0	956	14	0	400	252
fixed	3	5	6	291772	11	2	2	1	0	778	14	0	550	253
fixed	3	5	7	292772	9	0	0	1	0	1000	14	0	800	254
fixed	3	5	8	292772	8	3	3	1	0	518	14	0	600	255
fixed	3	5	9	292772	7	1	1	1	0	468	14	0	750	256
fixed	3	6	0	292772	7	2	2	1	0	740	14	0	1000	257
fixed	3	6	1	296876	10	1	1	1	0	1329	14	0	500	258
fixed	3	6	2	297693	9	0	0	1	0	817	14	0	650	259
fixed	3	6	3	297693	12	2	2	1	0	617	14	0	900	260
fixed	3	6	4	299926	8	3	3	1	0	1327	14	0	1000	261
fixed	3	6	5	300576	10	1	1	1	0	650	14	0	400	262
fixed	3	6	6	301228	11	2	2	1	0	651	14	0	550	263
fixed	3	6	7	302211	9	0	0	1	0	983	14	0	800	264
fixed	3	6	8	303382	8	3	3	1	0	1171	14	0	600	265
fixed	3	6	9	303382	7	1	1	1	0	520	14	0	750	266
fixed	4	0	0	305748	6	2	2	1	0	1269	14	0	1000	267
fixed	4	0	1	307248	9	1	1	1	0	1500	14	0	500	268
fixed	4	0	2	308099	8	0	0	1	0	851	14	0	650	269
fixed	4	0	3	308099	11	2	2	1	0	834	14	0	900	270
fixed	4	0	4	308099	7	3	3	1	0	616	14	0	1000	271
fixed	4	0	5	311023	9	1	1	1	0	1000	14	0	400	272
fixed	4	0	6	311924	10	2	2	1	0	900	14	0	550	273
fixed	4	0	7	312769	8	0	0	1	0	845	14	0	800	274
fixed	4	0	8	313537	7	3	3	1	0	768	14	0	600	275
fixed	4	0	9	313537	6	1	1	1	0	484	14	0	750	276
fixed	4	1	0	313537	6	2	2	1	0	885	14	0	1000	277
fixed	4	1	1	316522	9	1	1	1	0	828	14	0	500	278
fixed	4	1	2	317223	8	0	0	1	0	701	14	0	650	279
fixed	4	1	3	317223	11	2	2	1	0	801	14	0	900	280
fixed	4	1	4	317223	7	3	3	1	0	635	14	0	1000	281
fixed	4	1	5	319559	9	1	2	1	0	418	14	0	400	281
fixed	4	1	6	320609	10	2	2	1	0	1050	14	0	550	282
fixed	4	1	7	321707	8	0	0	1	0	1098	14	0	800	283
fixed	4	1	8	322743	7	3	1	1	0	1036	14	0	600	283
fixed	4	1	9	323595	6	1	1	1	0	852	14	0	750	284
fixed	4	2	0	325127	6	2	2	1	0	1150	14	0	1000	285
fixed	4	2	1	325812	9	1	1	1	0	685	14	0	500	286
fixed	4	2	2	326680	8	0	0	1	0	867	14	0	650	287
fixed	4	2	3	327619	11	2	2	1	0	939	14	0	900	288
fixed	4	2	4	327619	7	3	3	1	0	845	14	0	1000	289
fixed	4	2	5	329621	9	1	1	1	0	993	14	0	400	290
fixed	4	2	6	330382	10	2	2	1	0	761	14	0	550	291
fixed	4	2	7	330382	8	0	0	1	0	717	14	0	800	292
fixed	4	2	8	332105	7	3	3	1	0	923	14	0	600	293
fixed	4	2	9	332105	6	1	2	1	0	645	14	0	750	293
fixed	4	3	0	334618	6	2	2	1	0	1362	14	0	1000	294
fixed	4	3	1	335402	9	1	1	1	0	784	14	0	500	295
fixed	4	3	2	336240	8	0	0	1	0	838	14	0	650	296
fixed	4	3	3	337359	11	2	2	1	0	1118	14	0	900	297
fixed	4	3	4	337359	7	3	3	1	0	828	14	0	1000	298
fixed	4	3	5	338955	9	1	1	1	0	578	14	0	400	299
fixed	4	3	6	340104	10	2	2	1	0	1149	14	0	550	300
fixed	4	3	7	341090	8	0	0	1	0	986	14	0	800	301
fixed	4	3	8	342074	7	3	3	1	0	984	14	0	600	302
fixed	4	3	9	342841	6	1	2	1	0	767	14	0	750	302
fixed	4	4	0	342841	6	2	1	1	0	642	14	0	1000	302
fixed	4	4	1	346276	9	1	1	1	0	2020	14	0	500	303
fixed	4	4	2	347226	8	0	0	1	0	951	14	0	650	304
fixed	4	4	3	347226	11	2	2	1	0	899	14	0	900	305
fixed	4	4	4	347226	7	3	3	1	0	545	14	0	1000	306
fixed	4	4	5	347226	9	1	1	1	0	292	14	0	400	307
fixed	4	4	6	347226	10	2	2	1	0	449	14	0	550	308
fixed	4	4	7	352063	8	0	0	1	0	1936	14	0	800	309
fixed	4	4	8	353214	7	3	3	1	0	1150	14	0	600	310
fixed	4	4	9	353214	6	1	2	1	0	499	14	0	750	310
fixed	4	5	0	353214	6	2	2	1	0	635	14	0	1000	311
fixed	4	5	1	356549	9	1	1	1	0	1168	14	0	500	312
fixed	4	5	2	357650	8	0	0	1	0	1101	14	0	650	313
fixed	4	5	3	358589	11	2	2	1	0	939	14	0	900	314
fixed	4	5	4	361103	7	3	-1	1	0	2500	14	0	1000	314
fixed	4	5	5	363605	9	1	-1	1	0	2500	14	0	400	314
fixed	4	5	6	364923	10	2	2	1	0	1317	14	0	550	315
fixed	4	5	7	365736	8	0	0	1	0	813	14	0	800	316
fixed	4	5	8	366691	7	3	3	1	0	955	14	0	600	317
fixed	4	5	9	366691	6	1	1	1	0	466	14	0	750	318
fixed	4	6	0	369076	6	2	2	1	0	1286	14	0	1000	319
fixed	4	6	1	370189	9	1	1	1	0	1112	14	0	500	320
fixed	4	6	2	370993	8	0	0	1	0	804	14	0	650	321
fixed	4	6	3	372016	11	2	2	1	0	1022	14	0	900	322
fixed	4	6	4	372016	7	3	3	1	0	627	14	0	1000	323
fixed	4	6	5	372016	9	1	1	1	0	94	14	0	400	324
fixed	4	6	6	372016	10	2	2	1	0	161	14	0	550	325
fixed	4	6	7	372016	8	0	0	1	0	84	14	0	800	326
fixed	4	6	8	376618	7	3	3	1	0	1824	14	0	600	327
fixed	4	6	9	376618	6	1	1	1	0	495	14	0	750	328
fixed	5	0	0	376618	5	2	2	1	0	869	14	0	1000	329
fixed	5	0	1	376618	8	1	1	1	0	382	14	0	500	330
fixed	5	0	2	376618	7	0	0	1	0	534	14	0	650	331
fixed	5	0	3	376618	10	2	2	1	0	450	14	0	900	332
fixed	5	0	4	376618	6	3	1	1	0	676	14	0	1000	332
fixed	5	0	5	376618	8	1	2	1	0	112	14	0	400	332
fixed	5	0	6	376618	9	2	0	1	0	261	14	0	550	332
fixed	5	0	7	376618	7	0	3	1	0	255	14	0	800	332
fixed	5	0	8	384452	6	3	1	1	0	845	14	0	600	332
fixed	5	0	9	385837	5	1	1	1	0	1384	14	0	750	333
fixed	5	1	0	385837	5	2	2	1	0	885	14	0	1000	334
fixed	5	1	1	388361	8	1	1	1	0	1167	14	0	500	335
fixed	5	1	2	389073	7	0	0	1	0	712	14	0	650	336
fixed	5	1	3	390188	10	2	2	1	0	1115	14	0	900	337
fixed	5	1	4	390188	6	3	3	1	0	958	14	0	1000	338
fixed	5	1	5	391787	8	1	1	1	0	596	14	0	400	339
fixed	5	1	6	392424	9	2	2	1	0	637	14	0	550	340
fixed	5	1	7	393425	7	0	0	1	0	1001	14	0	800	341
fixed	5	1	8	394758	6	3	3	1	0	1333	14	0	600	342
fixed	5	1	9	394758	5	1	1	1	0	601	14	0	750	343
fixed	5	2	0	396911	5	2	2	1	0	1018	14	0	1000	344
fixed	5	2	1	397600	8	1	1	1	0	689	14	0	500	345
fixed	5	2	2	397600	7	0	0	1	0	546	14	0	650	346
fixed	5	2	3	399363	10	2	2	1	0	1113	14	0	900	347
fixed	5	2	4	399363	6	3	3	1	0	664	14	0	1000	348
fixed	5	2	5	401164	8	1	1	1	0	795	14	0	400	349
fixed	5	2	6	401862	9	2	2	1	0	699	14	0	550	350
fixed	5	2	7	401862	7	0	0	1	0	653	14	0	800	351
fixed	5	2	8	401862	6	3	3	1	0	523	14	0	600	352
fixed	5	2	9	401862	5	1	1	1	0	518	14	0	750	353
fixed	5	3	0	405751	5	2	2	1	0	1337	14	0	1000	354
fixed	5	3	1	405751	8	1	1	1	0	455	14	0	500	355
fixed	5	3	2	405751	7	0	0	1	0	667	14	0	650	356
fixed	5	3	3	405751	10	2	2	1	0	712	14	0	900	357
fixed	5	3	4	405751	6	3	3	1	0	551	14	0	1000	358
fixed	5	3	5	409553	8	1	1	1	0	685	14	0	400	359
fixed	5	3	6	410644	9	2	2	1	0	1090	14	0	550	360
fixed	5	3	7	411522	7	0	0	1	0	878	14	0	800	361
fixed	5	3	8	413278	6	3	3	1	0	1756	14	0	600	362
fixed	5	3	9	413278	5	1	1	1	0	624	14	0	750	363
fixed	5	4	0	413278	5	2	2	1	0	862	14	0	1000	364
fixed	5	4	1	413278	8	1	1	1	0	516	14	0	500	365
fixed	5	4	2	413278	7	0	0	1	0	585	14	0	650	366
fixed	5	4	3	413278	10	2	2	1	0	540	14	0	900	367
fixed	5	4	4	413278	6	3	3	1	0	328	14	0	1000	368
fixed	5	4	5	413278	8	1	1	1	0	28	14	0	400	369
fixed	5	4	6	413278	9	2	2	1	0	531	14	0	550	370
fixed	5	4	7	420407	7	0	0	1	0	914	14	0	800	371
fixed	5	4	8	421450	6	3	3	1	0	1043	14	0	600	372
fixed	5	4	9	421450	5	1	2	1	0	560	14	0	750	372
fixed	5	5	0	423813	5	2	2	1	0	1214	14	0	1000	373
fixed	5	5	1	424435	8	1	1	1	0	621	14	0	500	374
fixed	5	5	2	425248	7	0	0	1	0	813	14	0	650	375
fixed	5	5	3	425248	10	2	2	1	0	850	14	0	900	376
fixed	5	5	4	425248	6	3	3	1	0	551	14	0	1000	377
fixed	5	5	5	425248	8	1	1	1	0	284	14	0	400	378
fixed	5	5	6	428571	9	2	2	1	0	990	14	0	550	379
fixed	5	5	7	428571	7	0	0	1	0	796	14	0	800	380
fixed	5	5	8	428571	6	3	3	1	0	499	14	0	600	381
fixed	5	5	9	428571	5	1	1	1	0	301	14	0	750	382
fixed	5	6	0	428571	5	2	2	1	0	866	14	0	1000	383
fixed	5	6	1	428571	8	1	1	1	0	336	14	0	500	384
fixed	5	6	2	428571	7	0	0	1	0	266	14	0	650	385
fixed	5	6	3	428571	10	2	3	1	0	105	14	0	900	385
fixed	5	6	4	435341	6	3	3	1	0	1104	14	0	1000	386
fixed	5	6	5	436204	8	1	1	1	0	863	14	0	400	387
fixed	5	6	6	437121	9	2	2	1	0	917	14	0	550	388
fixed	5	6	7	438094	7	0	0	1	0	972	14	0	800	389
fixed	5	6	8	439312	6	3	3	1	0	1219	14	0	600	390
fixed	5	6	9	439312	5	1	1	1	0	426	14	0	750	391
random	6	0	0	441924	5	3	3	1	0	1469	14	0	1000	392
random	6	0	1	443193	8	1	1	1	0	1269	14	0	550	393
random	6	0	2	443193	5	3	3	1	0	772	14	0	900	394
random	6	0	3	445027	6	0	0	1	0	929	14	0	750	395
random	6	0	4	445945	9	2	2	1	0	917	14	0	600	396
random	6	0	5	446951	4	0	0	1	0	1006	14	0	300	397
random	6	0	6	448196	7	1	1	1	0	1245	14	0	400	398
random	6	0	7	448196	4	2	2	1	0	968	14	0	1000	399
random	6	0	8	450415	8	3	3	1	0	1202	14	0	500	400
random	6	0	9	450415	7	2	2	1	0	730	14	0	800	401
random	6	1	0	452849	8	3	3	1	0	1267	14	0	650	402
random	6	1	1	453948	9	2	2	1	0	1099	14	0	600	403
random	6	1	2	455085	6	1	1	1	0	1137	14	0	300	404
random	6	1	3	456257	5	2	2	1	0	1172	14	0	1000	405
random	6	1	4	457191	9	1	1	1	0	933	14	0	900	406
random	6	1	5	457191	4	0	0	1	0	728	14	0	800	407
random	6	1	6	458851	5	3	2	1	0	848	14	0	750	407
random	6	1	7	460069	4	2	1	1	0	1218	14	0	400	407
random	6	1	8	461454	7	1	1	1	0	1385	14	0	1000	408
random	6	1	9	462355	6	0	0	1	0	901	14	0	500	409
random	6	2	0	463880	4	1	1	1	0	1153	14	0	900	410
random	6	2	1	464974	8	0	0	1	0	1094	14	0	300	411
random	6	2	2	464974	9	3	3	1	0	884	14	0	1000	412
random	6	2	3	467125	7	0	0	1	0	1134	14	0	550	413
random	6	2	4	468393	6	2	2	1	0	1268	14	0	1000	414
random	6	2	5	469851	5	1	1	1	0	1457	14	0	400	415
random	6	2	6	470667	6	3	2	1	0	816	14	0	600	415
random	6	2	7	471769	8	2	2	1	0	1101	14	0	500	416
random	6	2	8	472726	4	3	3	1	0	957	14	0	750	417
random	6	2	9	473729	9	2	2	1	0	1003	14	0	650	418
random	6	3	0	475166	4	0	0	1	0	1052	14	0	900	419
random	6	3	1	476265	8	2	2	1	0	1100	14	0	300	420
random	6	3	2	477615	9	1	1	1	0	1350	14	0	1000	421
random	6	3	3	478399	7	3	3	1	0	783	14	0	550	422
random	6	3	4	478399	6	1	0	1	0	985	14	0	1000	422
random	6	3	5	480084	5	0	0	1	0	683	14	0	400	423
random	6	3	6	481191	6	3	3	1	0	1107	14	0	600	424
random	6	3	7	482102	8	2	2	1	0	911	14	0	500	425
random	6	3	8	482986	4	1	2	1	0	883	14	0	750	425
random	6	3	9	485221	9	2	2	1	0	2235	14	0	650	426
random	6	4	0	487355	5	3	3	1	0	1750	14	0	500	427
random	6	4	1	488439	9	2	2	1	0	1084	14	0	600	428
random	6	4	2	489590	6	1	1	1	0	1151	14	0	900	429
random	6	4	3	489590	9	0	0	1	0	881	14	0	1000	430
random	6	4	4	491960	8	3	3	1	0	1352	14	0	650	431
random	6	4	5	493016	4	1	1	1	0	1057	14	0	550	432
random	6	4	6	494161	7	3	3	1	0	1145	14	0	800	433
random	6	4	7	495276	6	0	0	1	0	1115	14	0	700	434
random	6	4	8	495276	8	2	2	1	0	970	14	0	1000	435
random	6	4	9	497029	5	1	1	1	0	728	14	0	300	436
random	6	5	0	497029	6	0	0	1	0	990	14	0	1000	437
random	6	5	1	499598	8	2	2	1	0	1202	14	0	400	438
random	6	5	2	500599	4	3	3	1	0	1001	14	0	750	439
random	6	5	3	500599	8	1	1	1	0	871	14	0	900	440
random	6	5	4	502382	5	2	2	1	0	866	14	0	300	441
random	6	5	5	503313	4	3	1	1	0	931	14	0	650	441
random	6	5	6	504884	7	0	0	1	0	1571	14	0	550	442
random	6	5	7	506152	9	2	2	1	0	1268	14	0	800	443
random	6	5	8	507182	7	1	1	1	0	1029	14	0	500	444
random	6	5	9	507182	6	0	0	1	0	1003	14	0	1000	445
random	6	6	0	507182	9	0	0	1	0	752	14	0	1000	446
random	6	6	1	510523	6	2	2	1	0	963	14	0	650	447
random	6	6	2	511514	9	1	1	1	0	991	14	0	900	448
random	6	6	3	512563	8	2	2	1	0	1048	14	0	600	449
random	6	6	4	513424	6	0	0	1	0	860	14	0	400	450
random	6	6	5	514242	8	3	3	1	0	818	14	0	300	451
random	6	6	6	515158	5	1	1	1	0	916	14	0	700	452
random	6	6	7	516494	4	3	3	1	0	1336	14	0	750	453
random	6	6	8	517499	7	1	1	1	0	1005	14	0	500	454
random	6	6	9	518534	5	2	2	1	0	1035	14	0	1000	455
fixed	7	0	0	518534	3	2	2	1	0	950	14	0	1000	456
fixed	7	0	1	521028	6	1	0	1	0	1133	14	0	500	456
fixed	7	0	2	522069	5	0	0	1	0	1042	14	0	650	457
fixed	7	0	3	523081	8	2	2	1	0	1011	14	0	900	458
fixed	7	0	4	523081	4	3	3	1	0	799	14	0	1000	459
fixed	7	0	5	524982	6	1	1	1	0	885	14	0	400	460
fixed	7	0	6	526340	7	2	2	1	0	1358	14	0	550	461
fixed	7	0	7	527283	5	0	0	1	0	944	14	0	800	462
fixed	7	0	8	528056	4	3	3	1	0	772	14	0	600	463
fixed	7	0	9	528056	3	1	1	1	0	501	14	0	750	464
fixed	7	1	0	528056	3	2	2	1	0	1012	14	0	1000	465
fixed	7	1	1	531342	6	1	1	1	0	1107	14	0	500	466
fixed	7	1	2	532592	5	0	0	1	0	1250	14	0	650	467
fixed	7	1	3	533771	8	2	2	1	0	1179	14	0	900	468
fixed	7	1	4	535289	4	3	3	1	0	1518	14	0	1000	469
fixed	7	1	5	536339	6	1	1	1	0	1050	14	0	400	470
fixed	7	1	6	537607	7	2	2	1	0	1269	14	0	550	471
fixed	7	1	7	538781	5	0	0	1	0	1174	14	0	800	472
fixed	7	1	8	538781	4	3	3	1	0	599	14	0	600	473
fixed	7	1	9	538781	3	1	1	1	0	527	14	0	750	474
fixed	7	2	0	538781	3	2	2	1	0	995	14	0	1000	475
fixed	7	2	1	542295	6	1	1	1	0	737	14	0	500	476
fixed	7	2	2	543001	5	0	0	1	0	706	14	0	650	477
fixed	7	2	3	544044	8	2	2	1	0	1043	14	0	900	478
fixed	7	2	4	544044	4	3	3	1	0	724	14	0	1000	479
fixed	7	2	5	545513	6	1	1	1	0	461	14	0	400	480
fixed	7	2	6	546203	7	2	0	1	0	690	14	0	550	480
fixed	7	2	7	546203	5	0	0	1	0	760	14	0	800	481
fixed	7	2	8	547931	4	3	3	1	0	919	14	0	600	482
fixed	7	2	9	547931	3	1	1	1	0	515	14	0	750	483
fixed	7	3	0	550172	3	2	2	1	0	1084	14	0	1000	484
fixed	7	3	1	551338	6	1	1	1	0	1166	14	0	500	485
fixed	7	3	2	551338	5	0	0	1	0	630	14	0	650	486
fixed	7	3	3	551338	8	2	2	1	0	675	14	0	900	487
fixed	7	3	4	551338	4	3	3	1	0	467	14	0	1000	488
fixed	7	3	5	554835	6	1	1	1	0	916	14	0	400	489
fixed	7	3	6	555509	7	2	2	1	0	674	14	0	550	490
fixed	7	3	7	555509	5	0	0	1	0	628	14	0	800	491
fixed	7	3	8	555509	4	3	3	1	0	534	14	0	600	492
fixed	7	3	9	555509	3	1	1	1	0	568	14	0	750	493
fixed	7	4	0	559961	3	2	2	1	0	1902	14	0	1000	494
fixed	7	4	1	560946	6	1	1	1	0	984	14	0	500	495
fixed	7	4	2	561779	5	0	0	1	0	833	14	0	650	496
fixed	7	4	3	562725	8	2	2	1	0	946	14	0	900	497
fixed	7	4	4	562725	4	3	3	1	0	985	14	0	1000	498
fixed	7	4	5	564647	6	1	1	1	0	900	14	0	400	499
fixed	7	4	6	565610	7	2	2	1	0	962	14	0	550	500
fixed	7	4	7	566449	5	0	0	1	0	839	14	0	800	501
fixed	7	4	8	567110	4	3	3	1	0	661	14	0	600	502
fixed	7	4	9	567110	3	1	1	1	0	606	14	0	750	503
fixed	7	5	0	569497	3	2	2	1	0	1263	14	0	1000	504
fixed	7	5	1	570629	6	1	1	1	0	1132	14	0	500	505
fixed	7	5	2	571369	5	0	0	1	0	740	14	0	650	506
fixed	7	5	3	572448	8	2	2	1	0	1079	14	0	900	507
fixed	7	5	4	572448	4	3	3	1	0	633	14	0	1000	508
fixed	7	5	5	572448	6	1	1	1	0	350	14	0	400	509
fixed	7	5	6	574731	7	2	2	1	0	866	14	0	550	510
fixed	7	5	7	575684	5	0	0	1	0	953	14	0	800	511
fixed	7	5	8	576408	4	3	3	1	0	724	14	0	600	512
fixed	7	5	9	577402	3	1	1	1	0	994	14	0	750	513
fixed	7	6	0	578803	3	2	2	1	0	1020	14	0	1000	514
fixed	7	6	1	579852	6	1	1	1	0	1049	14	0	500	515
fixed	7	6	2	580793	5	0	0	1	0	941	14	0	650	516
fixed	7	6	3	581754	8	2	2	1	0	961	14	0	900	517
fixed	7	6	4	581754	4	3	3	1	0	740	14	0	1000	518
fixed	7	6	5	583287	6	1	1	1	0	526	14	0	400	519
fixed	7	6	6	584112	7	2	2	1	0	825	14	0	550	520
fixed	7	6	7	585194	5	0	0	1	0	1083	14	0	800	521
fixed	7	6	8	585194	4	3	1	1	0	512	14	0	600	521
fixed	7	6	9	587107	3	1	1	1	0	1294	14	0	750	522
