type	block	sequ.	trial	time	Pos.	Color	Button	NumRsp	Resp_1	RT_1	R_Code	Resp_2	RT_2	Trigg.	n_hit	n_inc	n_miss	score_%
random	0	0	0	301910	11	3	3	1	0	2212	14	0	1000	1
random	0	0	1	304446	14	1	-1	1	0	2500	14	0	550	1
random	0	0	2	304446	11	3	1	1	0	203	14	0	900	1
random	0	0	3	306213	12	0	3	1	0	861	14	0	750	1
random	0	0	4	308194	15	2	2	1	0	1982	14	0	600	2
random	0	0	5	309678	10	0	0	1	0	1483	14	0	300	3
random	0	0	6	311059	13	1	1	1	0	1380	14	0	400	4
random	0	0	7	312662	10	2	2	1	0	1603	14	0	1000	5
random	0	0	8	313824	14	3	3	1	0	1162	14	0	500	6
random	0	0	9	314897	13	2	2	1	0	1072	14	0	800	7
random	0	1	0	317638	14	3	3	1	0	2381	14	0	650	8
random	0	1	1	319106	15	2	2	1	0	1467	14	0	600	9
random	0	1	2	320188	12	1	1	1	0	1081	14	0	300	10
random	0	1	3	321725	11	2	2	1	0	1537	14	0	1000	11
random	0	1	4	322967	15	1	1	1	0	1241	14	0	900	12
random	0	1	5	323881	10	0	0	1	0	913	14	0	800	13
random	0	1	6	325182	11	3	3	1	0	1301	14	0	750	14
random	0	1	7	326565	10	2	2	1	0	1383	14	0	400	15
random	0	1	8	327651	13	1	1	1	0	1086	14	0	1000	16
random	0	1	9	328627	12	0	0	1	0	975	14	0	500	17
random	0	2	0	330943	10	1	1	1	0	1959	14	0	900	18
random	0	2	1	332338	14	0	3	1	0	1395	14	0	300	18
random	0	2	2	334391	15	3	3	1	0	2053	14	0	1000	19
random	0	2	3	335626	13	0	0	1	0	1236	14	0	550	20
random	0	2	4	335626	12	2	2	1	0	897	14	0	1000	21
random	0	2	5	337708	11	1	1	1	0	1070	14	0	400	22
random	0	2	6	338912	12	3	3	1	0	1204	14	0	600	23
random	0	2	7	339834	14	2	2	1	0	922	14	0	500	24
random	0	2	8	341490	10	3	3	1	0	1655	14	0	750	25
random	0	2	9	342700	15	2	2	1	0	1210	14	0	650	26
random	0	3	0	344384	10	0	0	1	0	1308	14	0	900	27
random	0	3	1	345992	14	2	2	1	0	1608	14	0	300	28
random	0	3	2	347074	15	1	1	1	0	1082	14	0	1000	29
random	0	3	3	348079	13	3	3	1	0	1005	14	0	550	30
random	0	3	4	349891	12	1	1	1	0	1812	14	0	1000	31
random	0	3	5	351032	11	0	0	1	0	1140	14	0	400	32
random	0	3	6	352769	12	3	3	1	0	1737	14	0	600	33
random	0	3	7	353533	14	2	2	1	0	764	14	0	500	34
random	0	3	8	354785	10	1	1	1	0	1252	14	0	750	35
random	0	3	9	355992	15	2	3	1	0	1207	14	0	650	35
random	0	4	0	358059	11	3	3	1	0	1718	14	0	500	36
random	0	4	1	359235	15	2	2	1	0	1176	14	0	600	37
random	0	4	2	360342	12	1	1	1	0	1106	14	0	900	38
random	0	4	3	360342	15	0	0	1	0	783	14	0	1000	39
random	0	4	4	362708	14	3	3	1	0	1365	14	0	650	40
random	0	4	5	363868	10	1	1	1	0	1160	14	0	550	41
random	0	4	6	365195	13	3	3	1	0	1326	14	0	800	42
random	0	4	7	366258	12	0	0	1	0	1063	14	0	700	43
random	0	4	8	366258	14	2	2	1	0	857	14	0	1000	44
random	0	4	9	368566	11	1	1	1	0	1303	14	0	300	45
random	0	5	0	370586	12	0	0	1	0	1648	14	0	1000	46
random	0	5	1	372103	14	2	2	1	0	1516	14	0	400	47
random	0	5	2	372939	10	3	3	1	0	835	14	0	750	48
random	0	5	3	374014	14	1	1	1	0	1074	14	0	900	49
random	0	5	4	375091	11	2	2	1	0	1077	14	0	300	50
random	0	5	5	375907	10	3	3	1	0	816	14	0	650	51
random	0	5	6	377093	13	0	0	1	0	1186	14	0	550	52
random	0	5	7	378457	15	2	2	1	0	1363	14	0	800	53
random	0	5	8	379425	13	1	1	1	0	968	14	0	500	54
random	0	5	9	380555	12	0	0	1	0	1129	14	0	1000	55
random	0	6	0	380555	15	0	0	1	0	881	14	0	1000	56
random	0	6	1	383508	12	2	2	1	0	1514	14	0	650	57
random	0	6	2	384616	15	1	1	1	0	1108	14	0	900	58
random	0	6	3	385691	14	2	2	1	0	1075	14	0	600	59
random	0	6	4	386646	12	0	0	1	0	955	14	0	400	60
random	0	6	5	387690	14	3	3	1	0	1043	14	0	300	61
random	0	6	6	388782	11	1	1	1	0	1092	14	0	700	62
random	0	6	7	390481	10	3	3	1	0	1699	14	0	750	63
random	0	6	8	391755	13	1	1	1	0	1273	14	0	500	64
random	0	6	9	392862	11	2	2	1	0	1108	14	0	1000	65
fixed	1	0	0	392862	9	2	2	1	0	994	14	0	1000	66
fixed	1	0	1	395385	12	1	1	1	0	1094	14	0	500	67
fixed	1	0	2	396221	11	0	0	1	0	836	14	0	650	68
fixed	1	0	3	397624	14	2	2	1	0	1403	14	0	900	69
fixed	1	0	4	397624	10	3	3	1	0	781	14	0	1000	70
fixed	1	0	5	400082	12	1	1	1	0	1434	14	0	400	71
fixed	1	0	6	401625	13	2	1	1	0	1543	14	0	550	71
fixed	1	0	7	402925	11	0	0	1	0	1299	14	0	800	72
fixed	1	0	8	404058	10	3	3	1	0	1133	14	0	600	73
fixed	1	0	9	405505	9	1	1	1	0	1446	14	0	750	74
fixed	1	1	0	407339	9	2	2	1	0	1435	14	0	1000	75
fixed	1	1	1	408745	12	1	1	1	0	1406	14	0	500	76
fixed	1	1	2	409632	11	0	0	1	0	887	14	0	650	77
fixed	1	1	3	410799	14	2	2	1	0	1166	14	0	900	78
fixed	1	1	4	412127	10	3	3	1	0	1328	14	0	1000	79
fixed	1	1	5	413507	12	1	1	1	0	1380	14	0	400	80
fixed	1	1	6	414872	13	2	2	1	0	1364	14	0	550	81
fixed	1	1	7	416295	11	0	0	1	0	1423	14	0	800	82
fixed	1	1	8	417473	10	3	3	1	0	1177	14	0	600	83
fixed	1	1	9	418868	9	1	1	1	0	1395	14	0	750	84
fixed	1	2	0	420550	9	2	2	1	0	1277	14	0	1000	85
fixed	1	2	1	421815	12	1	1	1	0	1264	14	0	500	86
fixed	1	2	2	423613	11	0	0	1	0	1798	14	0	650	87
fixed	1	2	3	424709	14	2	2	1	0	1095	14	0	900	88
fixed	1	2	4	424709	10	3	3	1	0	899	14	0	1000	89
fixed	1	2	5	426889	12	1	1	1	0	1174	14	0	400	90
fixed	1	2	6	428662	13	2	2	1	0	1772	14	0	550	91
fixed	1	2	7	429756	11	0	1	1	0	1094	14	0	800	91
fixed	1	2	8	431377	10	3	3	1	0	1620	14	0	600	92
fixed	1	2	9	432510	9	1	1	1	0	1133	14	0	750	93
fixed	1	3	0	434056	9	2	2	1	0	1103	14	0	1000	94
fixed	1	3	1	436159	12	1	1	1	0	2103	14	0	500	95
fixed	1	3	2	437324	11	0	0	1	0	1165	14	0	650	96
fixed	1	3	3	438355	14	2	2	1	0	1030	14	0	900	97
fixed	1	3	4	438355	10	3	3	1	0	802	14	0	1000	98
fixed	1	3	5	440746	12	1	1	1	0	1390	14	0	400	99
fixed	1	3	6	442019	13	2	2	1	0	1273	14	0	550	100
fixed	1	3	7	443785	11	0	0	1	0	1765	14	0	800	101
fixed	1	3	8	445771	10	3	3	1	0	1986	14	0	600	102
fixed	1	3	9	447025	9	1	1	1	0	1254	14	0	750	103
fixed	1	4	0	448658	9	2	2	1	0	1249	14	0	1000	104
fixed	1	4	1	449799	12	1	1	1	0	1140	14	0	500	105
fixed	1	4	2	450610	11	0	0	1	0	811	14	0	650	106
fixed	1	4	3	451746	14	2	2	1	0	1135	14	0	900	107
fixed	1	4	4	451746	10	3	3	1	0	892	14	0	1000	108
fixed	1	4	5	453857	12	1	1	1	0	1100	14	0	400	109
fixed	1	4	6	454939	13	2	2	1	0	1082	14	0	550	110
fixed	1	4	7	456082	11	0	0	1	0	1143	14	0	800	111
fixed	1	4	8	457296	10	3	3	1	0	1213	14	0	600	112
fixed	1	4	9	458422	9	1	1	1	0	1126	14	0	750	113
fixed	1	5	0	458422	9	2	2	1	0	994	14	0	1000	114
fixed	1	5	1	460900	12	1	1	1	0	995	14	0	500	115
fixed	1	5	2	461725	11	0	0	1	0	825	14	0	650	116
fixed	1	5	3	463632	14	2	2	1	0	1907	14	0	900	117
fixed	1	5	4	463632	10	3	3	1	0	744	14	0	1000	118
fixed	1	5	5	465813	12	1	1	1	0	1133	14	0	400	119
fixed	1	5	6	467413	13	2	2	1	0	1599	14	0	550	120
fixed	1	5	7	468471	11	0	0	1	0	1058	14	0	800	121
fixed	1	5	8	469326	10	3	3	1	0	855	14	0	600	122
fixed	1	5	9	470906	9	1	1	1	0	1579	14	0	750	123
fixed	1	6	0	470906	9	2	2	1	0	1011	14	0	1000	124
fixed	1	6	1	473709	12	1	1	1	0	1380	14	0	500	125
fixed	1	6	2	474565	11	0	0	1	0	856	14	0	650	126
fixed	1	6	3	475680	14	2	2	1	0	1114	14	0	900	127
fixed	1	6	4	475680	10	3	3	1	0	748	14	0	1000	128
fixed	1	6	5	477940	12	1	1	1	0	1239	14	0	400	129
fixed	1	6	6	479225	13	2	2	1	0	1285	14	0	550	130
fixed	1	6	7	480257	11	0	0	1	0	1031	14	0	800	131
fixed	1	6	8	481504	10	3	3	1	0	1247	14	0	600	132
fixed	1	6	9	482759	9	1	1	1	0	1255	14	0	750	133
fixed	2	0	0	484580	8	2	2	1	0	1406	14	0	1000	134
fixed	2	0	1	485939	11	1	1	1	0	1359	14	0	500	135
fixed	2	0	2	486972	10	0	0	1	0	1032	14	0	650	136
fixed	2	0	3	488206	13	2	2	1	0	1234	14	0	900	137
fixed	2	0	4	488206	9	3	3	1	0	742	14	0	1000	138
fixed	2	0	5	490196	11	1	1	1	0	954	14	0	400	139
fixed	2	0	6	491446	12	2	2	1	0	1249	14	0	550	140
fixed	2	0	7	492582	10	0	3	1	0	1136	14	0	800	140
fixed	2	0	8	493965	9	3	3	1	0	1382	14	0	600	141
fixed	2	0	9	495411	8	1	1	1	0	1445	14	0	750	142
fixed	2	1	0	496869	8	2	2	1	0	1060	14	0	1000	143
fixed	2	1	1	497809	11	1	1	1	0	940	14	0	500	144
fixed	2	1	2	498609	10	0	0	1	0	799	14	0	650	145
fixed	2	1	3	499855	13	2	2	1	0	1246	14	0	900	146
fixed	2	1	4	499855	9	3	3	1	0	715	14	0	1000	147
fixed	2	1	5	502683	11	1	1	1	0	1823	14	0	400	148
fixed	2	1	6	504696	12	2	2	1	0	2013	14	0	550	149
fixed	2	1	7	505730	10	0	0	1	0	1034	14	0	800	150
fixed	2	1	8	506918	9	3	3	1	0	1188	14	0	600	151
fixed	2	1	9	507976	8	1	1	1	0	1057	14	0	750	152
fixed	2	2	0	507976	8	2	2	1	0	940	14	0	1000	153
fixed	2	2	1	510372	11	1	1	1	0	912	14	0	500	154
fixed	2	2	2	511206	10	0	0	1	0	833	14	0	650	155
fixed	2	2	3	512289	13	2	2	1	0	1082	14	0	900	156
fixed	2	2	4	512289	9	3	3	1	0	786	14	0	1000	157
fixed	2	2	5	514391	11	1	1	1	0	1088	14	0	400	158
fixed	2	2	6	515756	12	2	2	1	0	1364	14	0	550	159
fixed	2	2	7	517388	10	0	0	1	0	1632	14	0	800	160
fixed	2	2	8	518958	9	3	3	1	0	1570	14	0	600	161
fixed	2	2	9	520107	8	1	1	1	0	1148	14	0	750	162
fixed	2	3	0	521737	8	2	2	1	0	1229	14	0	1000	163
fixed	2	3	1	522810	11	1	1	1	0	1073	14	0	500	164
fixed	2	3	2	523537	10	0	0	1	0	727	14	0	650	165
fixed	2	3	3	524927	13	2	2	1	0	1389	14	0	900	166
fixed	2	3	4	524927	9	3	3	1	0	688	14	0	1000	167
fixed	2	3	5	527087	11	1	1	1	0	1131	14	0	400	168
fixed	2	3	6	528545	12	2	2	1	0	1458	14	0	550	169
fixed	2	3	7	529639	10	0	0	1	0	1094	14	0	800	170
fixed	2	3	8	530731	9	3	2	1	0	1092	14	0	600	170
fixed	2	3	9	532109	8	1	1	1	0	1377	14	0	750	171
fixed	2	4	0	533650	8	2	2	1	0	1151	14	0	1000	172
fixed	2	4	1	534382	11	1	1	1	0	731	14	0	500	173
fixed	2	4	2	535121	10	0	0	1	0	739	14	0	650	174
fixed	2	4	3	536631	13	2	3	1	0	1509	14	0	900	174
fixed	2	4	4	538208	9	3	3	1	0	1577	14	0	1000	175
fixed	2	4	5	539660	11	1	1	1	0	1452	14	0	400	176
fixed	2	4	6	540947	12	2	2	1	0	1286	14	0	550	177
fixed	2	4	7	542174	10	0	0	1	0	1227	14	0	800	178
fixed	2	4	8	543410	9	3	3	1	0	1235	14	0	600	179
fixed	2	4	9	544626	8	1	1	1	0	1216	14	0	750	180
fixed	2	5	0	546241	8	2	2	1	0	1218	14	0	1000	181
fixed	2	5	1	547357	11	1	1	1	0	1116	14	0	500	182
fixed	2	5	2	548106	10	0	0	1	0	748	14	0	650	183
fixed	2	5	3	548106	13	2	2	1	0	870	14	0	900	184
fixed	2	5	4	548106	9	3	3	1	0	809	14	0	1000	185
fixed	2	5	5	551374	11	1	1	1	0	1331	14	0	400	186
fixed	2	5	6	552662	12	2	2	1	0	1288	14	0	550	187
fixed	2	5	7	553694	10	0	0	1	0	1032	14	0	800	188
fixed	2	5	8	554820	9	3	3	1	0	1126	14	0	600	189
fixed	2	5	9	556142	8	1	1	1	0	1322	14	0	750	190
fixed	2	6	0	557791	8	2	2	1	0	1243	14	0	1000	191
fixed	2	6	1	558525	11	1	1	1	0	734	14	0	500	192
fixed	2	6	2	559358	10	0	0	1	0	833	14	0	650	193
fixed	2	6	3	560891	13	2	2	1	0	1532	14	0	900	194
fixed	2	6	4	560891	9	3	3	1	0	827	14	0	1000	195
fixed	2	6	5	563494	11	1	1	1	0	1569	14	0	400	196
fixed	2	6	6	564784	12	2	2	1	0	1291	14	0	550	197
fixed	2	6	7	565858	10	0	0	1	0	1074	14	0	800	198
fixed	2	6	8	567009	9	3	3	1	0	1150	14	0	600	199
fixed	2	6	9	568372	8	1	1	1	0	1363	14	0	750	200
fixed	3	0	0	569911	7	2	2	1	0	1154	14	0	1000	201
fixed	3	0	1	570994	10	1	1	1	0	1083	14	0	500	202
fixed	3	0	2	571734	9	0	0	1	0	739	14	0	650	203
fixed	3	0	3	571734	12	2	2	1	0	773	14	0	900	204
fixed	3	0	4	574942	8	3	3	1	0	2263	14	0	1000	205
fixed	3	0	5	576200	10	1	1	1	0	1258	14	0	400	206
fixed	3	0	6	577394	11	2	2	1	0	1193	14	0	550	207
fixed	3	0	7	578507	9	0	0	1	0	1113	14	0	800	208
fixed	3	0	8	580842	8	3	3	1	0	2335	14	0	600	209
fixed	3	0	9	581820	7	1	1	1	0	977	14	0	750	210
fixed	3	1	0	581820	7	2	2	1	0	1021	14	0	1000	211
fixed	3	1	1	584078	10	1	1	1	0	867	14	0	500	212
fixed	3	1	2	584799	9	0	0	1	0	721	14	0	650	213
fixed	3	1	3	587007	12	2	2	1	0	2208	14	0	900	214
fixed	3	1	4	587007	8	3	3	1	0	726	14	0	1000	215
fixed	3	1	5	589309	10	1	1	1	0	1285	14	0	400	216
fixed	3	1	6	590016	11	2	2	1	0	706	14	0	550	217
fixed	3	1	7	591118	9	0	0	1	0	1102	14	0	800	218
fixed	3	1	8	592359	8	3	3	1	0	1241	14	0	600	219
fixed	3	1	9	593842	7	1	1	1	0	1482	14	0	750	220
fixed	3	2	0	595240	7	2	2	1	0	1056	14	0	1000	221
fixed	3	2	1	595930	10	1	1	1	0	688	14	0	500	222
fixed	3	2	2	596662	9	0	0	1	0	731	14	0	650	223
fixed	3	2	3	597818	12	2	2	1	0	1156	14	0	900	224
fixed	3	2	4	598907	8	3	3	1	0	1089	14	0	1000	225
fixed	3	2	5	600612	10	1	1	1	0	1705	14	0	400	226
fixed	3	2	6	601832	11	2	2	1	0	1219	14	0	550	227
fixed	3	2	7	603144	9	0	0	1	0	1312	14	0	800	228
fixed	3	2	8	604294	8	3	3	1	0	1150	14	0	600	229
fixed	3	2	9	605445	7	1	1	1	0	1150	14	0	750	230
fixed	3	3	0	605445	7	2	2	1	0	999	14	0	1000	231
fixed	3	3	1	607707	10	1	1	1	0	861	14	0	500	232
fixed	3	3	2	608499	9	0	0	1	0	793	14	0	650	233
fixed	3	3	3	610540	12	2	2	1	0	2041	14	0	900	234
fixed	3	3	4	610540	8	3	3	1	0	784	14	0	1000	235
fixed	3	3	5	612697	10	1	1	1	0	1140	14	0	400	236
fixed	3	3	6	614410	11	2	2	1	0	1713	14	0	550	237
fixed	3	3	7	615466	9	0	0	1	0	1056	14	0	800	238
fixed	3	3	8	616449	8	3	3	1	0	982	14	0	600	239
fixed	3	3	9	617534	7	1	1	1	0	1085	14	0	750	240
fixed	3	4	0	619639	7	2	2	1	0	1483	14	0	1000	241
fixed	3	4	1	620868	10	1	1	1	0	1228	14	0	500	242
fixed	3	4	2	621615	9	0	0	1	0	747	14	0	650	243
fixed	3	4	3	622994	12	2	2	1	0	1379	14	0	900	244
fixed	3	4	4	624066	8	3	3	1	0	1072	14	0	1000	245
fixed	3	4	5	625193	10	1	1	1	0	1127	14	0	400	246
fixed	3	4	6	627509	11	2	2	1	0	2315	14	0	550	247
fixed	3	4	7	628727	9	0	0	1	0	1218	14	0	800	248
fixed	3	4	8	629588	8	3	3	1	0	861	14	0	600	249
fixed	3	4	9	630442	7	1	1	1	0	853	14	0	750	250
fixed	3	5	0	632525	7	2	2	1	0	1682	14	0	1000	251
fixed	3	5	1	633554	10	1	1	1	0	1029	14	0	500	252
fixed	3	5	2	635142	9	0	0	1	0	1588	14	0	650	253
fixed	3	5	3	636577	12	2	2	1	0	1434	14	0	900	254
fixed	3	5	4	637743	8	3	3	1	0	1166	14	0	1000	255
fixed	3	5	5	639252	10	1	1	1	0	1508	14	0	400	256
fixed	3	5	6	640506	11	2	2	1	0	1252	14	0	550	257
fixed	3	5	7	641707	9	0	0	1	0	1201	14	0	800	258
fixed	3	5	8	643378	8	3	3	1	0	1671	14	0	600	259
fixed	3	5	9	644556	7	1	1	1	0	1177	14	0	750	260
fixed	3	6	0	646647	7	2	2	1	0	1670	14	0	1000	261
fixed	3	6	1	647798	10	1	1	1	0	1150	14	0	500	262
fixed	3	6	2	648624	9	0	0	1	0	826	14	0	650	263
fixed	3	6	3	649757	12	2	2	1	0	1133	14	0	900	264
fixed	3	6	4	651345	8	3	3	1	0	1587	14	0	1000	265
fixed	3	6	5	652504	10	1	1	1	0	1159	14	0	400	266
fixed	3	6	6	653612	11	2	2	1	0	1107	14	0	550	267
fixed	3	6	7	654767	9	0	0	1	0	1155	14	0	800	268
fixed	3	6	8	657276	8	3	-1	1	0	2500	14	0	600	268
fixed	3	6	9	658561	7	1	1	1	0	1284	14	0	750	269
fixed	4	0	0	660780	6	2	2	1	0	1789	14	0	1000	270
fixed	4	0	1	661928	9	1	1	1	0	1148	14	0	500	271
fixed	4	0	2	662695	8	0	0	1	0	767	14	0	650	272
fixed	4	0	3	663633	11	2	2	1	0	937	14	0	900	273
fixed	4	0	4	663633	7	3	3	1	0	672	14	0	1000	274
fixed	4	0	5	665600	9	1	1	1	0	942	14	0	400	275
fixed	4	0	6	666715	10	2	2	1	0	1114	14	0	550	276
fixed	4	0	7	667710	8	0	0	1	0	995	14	0	800	277
fixed	4	0	8	669047	7	3	3	1	0	1337	14	0	600	278
fixed	4	0	9	670156	6	1	1	1	0	1108	14	0	750	279
fixed	4	1	0	670156	6	2	2	1	0	802	14	0	1000	280
fixed	4	1	1	672381	9	1	1	1	0	780	14	0	500	281
fixed	4	1	2	673556	8	0	0	1	0	1174	14	0	650	282
fixed	4	1	3	675823	11	2	2	1	0	2267	14	0	900	283
fixed	4	1	4	675823	7	3	3	1	0	717	14	0	1000	284
fixed	4	1	5	677755	9	1	1	1	0	901	14	0	400	285
fixed	4	1	6	678724	10	2	2	1	0	969	14	0	550	286
fixed	4	1	7	679824	8	0	0	1	0	1099	14	0	800	287
fixed	4	1	8	681248	7	3	3	1	0	1424	14	0	600	288
fixed	4	1	9	682544	6	1	1	1	0	1296	14	0	750	289
fixed	4	2	0	684312	6	2	2	1	0	1362	14	0	1000	290
fixed	4	2	1	685523	9	1	1	1	0	1211	14	0	500	291
fixed	4	2	2	686328	8	0	0	1	0	804	14	0	650	292
fixed	4	2	3	687429	11	2	2	1	0	1101	14	0	900	293
fixed	4	2	4	689960	7	3	-1	1	0	2500	14	0	1000	293
fixed	4	2	5	689960	9	1	3	1	0	368	14	0	400	293
fixed	4	2	6	691827	10	2	2	1	0	1421	14	0	550	294
fixed	4	2	7	692986	8	0	0	1	0	1159	14	0	800	295
fixed	4	2	8	695237	7	3	3	1	0	2250	14	0	600	296
fixed	4	2	9	696110	6	1	1	1	0	873	14	0	750	297
fixed	4	3	0	697691	6	2	2	1	0	1166	14	0	1000	298
fixed	4	3	1	698599	9	1	1	1	0	907	14	0	500	299
fixed	4	3	2	698599	8	0	0	1	0	612	14	0	650	300
fixed	4	3	3	701115	11	2	2	1	0	1831	14	0	900	301
fixed	4	3	4	701115	7	3	3	1	0	727	14	0	1000	302
fixed	4	3	5	702873	9	1	1	1	0	734	14	0	400	303
fixed	4	3	6	704098	10	2	2	1	0	1224	14	0	550	304
fixed	4	3	7	705129	8	0	0	1	0	1031	14	0	800	305
fixed	4	3	8	706343	7	3	3	1	0	1214	14	0	600	306
fixed	4	3	9	706343	6	1	1	1	0	650	14	0	750	307
fixed	4	4	0	708702	6	2	2	1	0	1157	14	0	1000	308
fixed	4	4	1	709373	9	1	1	1	0	672	14	0	500	309
fixed	4	4	2	710233	8	0	0	1	0	859	14	0	650	310
fixed	4	4	3	711785	11	2	2	1	0	1551	14	0	900	311
fixed	4	4	4	711785	7	3	3	1	0	953	14	0	1000	312
fixed	4	4	5	713916	9	1	1	1	0	1118	14	0	400	313
fixed	4	4	6	715116	10	2	2	1	0	1200	14	0	550	314
fixed	4	4	7	715976	8	0	0	1	0	859	14	0	800	315
fixed	4	4	8	716879	7	3	3	1	0	903	14	0	600	316
fixed	4	4	9	716879	6	1	1	1	0	662	14	0	750	317
fixed	4	5	0	719183	6	2	2	1	0	1107	14	0	1000	318
fixed	4	5	1	719828	9	1	1	1	0	645	14	0	500	319
fixed	4	5	2	720605	8	0	0	1	0	777	14	0	650	320
fixed	4	5	3	722026	11	2	2	1	0	1420	14	0	900	321
fixed	4	5	4	722026	7	3	3	1	0	668	14	0	1000	322
fixed	4	5	5	724876	9	1	1	1	0	1842	14	0	400	323
fixed	4	5	6	726077	10	2	2	1	0	1201	14	0	550	324
fixed	4	5	7	727389	8	0	0	1	0	1312	14	0	800	325
fixed	4	5	8	728566	7	3	3	1	0	1176	14	0	600	326
fixed	4	5	9	729726	6	1	1	1	0	1160	14	0	750	327
fixed	4	6	0	731311	6	2	2	1	0	1205	14	0	1000	328
fixed	4	6	1	731992	9	1	1	1	0	680	14	0	500	329
fixed	4	6	2	732744	8	0	0	1	0	752	14	0	650	330
fixed	4	6	3	732744	11	2	2	1	0	765	14	0	900	331
fixed	4	6	4	732744	7	3	3	1	0	625	14	0	1000	332
fixed	4	6	5	735276	9	1	1	1	0	611	14	0	400	333
fixed	4	6	6	736540	10	2	2	1	0	1264	14	0	550	334
fixed	4	6	7	737734	8	0	0	1	0	1193	14	0	800	335
fixed	4	6	8	738791	7	3	3	1	0	1057	14	0	600	336
fixed	4	6	9	739843	6	1	1	1	0	1052	14	0	750	337
fixed	5	0	0	741489	5	2	2	1	0	1230	14	0	1000	338
fixed	5	0	1	742709	8	1	1	1	0	1219	14	0	500	339
fixed	5	0	2	743477	7	0	0	1	0	768	14	0	650	340
fixed	5	0	3	744678	10	2	2	1	0	1201	14	0	900	341
fixed	5	0	4	744678	6	3	3	1	0	808	14	0	1000	342
fixed	5	0	5	746773	8	1	1	1	0	1064	14	0	400	343
fixed	5	0	6	747698	9	2	1	1	0	924	14	0	550	343
fixed	5	0	7	748768	7	0	0	1	0	1070	14	0	800	344
fixed	5	0	8	750108	6	3	3	1	0	1339	14	0	600	345
fixed	5	0	9	751067	5	1	1	1	0	959	14	0	750	346
fixed	5	1	0	752840	5	2	2	1	0	1367	14	0	1000	347
fixed	5	1	1	754026	8	1	1	1	0	1186	14	0	500	348
fixed	5	1	2	754026	7	0	0	1	0	684	14	0	650	349
fixed	5	1	3	755704	10	2	2	1	0	994	14	0	900	350
fixed	5	1	4	755704	6	3	3	1	0	671	14	0	1000	351
fixed	5	1	5	757376	8	1	1	1	0	665	14	0	400	352
fixed	5	1	6	758394	9	2	2	1	0	1018	14	0	550	353
fixed	5	1	7	759484	7	0	0	1	0	1090	14	0	800	354
fixed	5	1	8	760814	6	3	3	1	0	1329	14	0	600	355
fixed	5	1	9	761962	5	1	1	1	0	1148	14	0	750	356
fixed	5	2	0	763571	5	2	2	1	0	1221	14	0	1000	357
fixed	5	2	1	764277	8	1	1	1	0	705	14	0	500	358
fixed	5	2	2	764277	7	0	0	1	0	662	14	0	650	359
fixed	5	2	3	765939	10	2	2	1	0	999	14	0	900	360
fixed	5	2	4	765939	6	3	3	1	0	693	14	0	1000	361
fixed	5	2	5	768226	8	1	1	1	0	1267	14	0	400	362
fixed	5	2	6	769393	9	2	2	1	0	1167	14	0	550	363
fixed	5	2	7	770377	7	0	0	1	0	984	14	0	800	364
fixed	5	2	8	771469	6	3	3	1	0	1091	14	0	600	365
fixed	5	2	9	772559	5	1	1	1	0	1090	14	0	750	366
fixed	5	3	0	774064	5	2	2	1	0	1143	14	0	1000	367
fixed	5	3	1	774706	8	1	1	1	0	642	14	0	500	368
fixed	5	3	2	774706	7	0	0	1	0	651	14	0	650	369
fixed	5	3	3	776725	10	2	2	1	0	1367	14	0	900	370
fixed	5	3	4	776725	6	3	3	1	0	716	14	0	1000	371
fixed	5	3	5	778956	8	1	1	1	0	1205	14	0	400	372
fixed	5	3	6	780010	9	2	2	1	0	1054	14	0	550	373
fixed	5	3	7	781138	7	0	0	1	0	1127	14	0	800	374
fixed	5	3	8	782522	6	3	3	1	0	1385	14	0	600	375
fixed	5	3	9	782522	5	1	1	1	0	672	14	0	750	376
fixed	5	4	0	784759	5	2	2	1	0	1134	14	0	1000	377
fixed	5	4	1	786005	8	1	1	1	0	1246	14	0	500	378
fixed	5	4	2	786005	7	0	0	1	0	661	14	0	650	379
fixed	5	4	3	786005	10	2	2	1	0	762	14	0	900	380
fixed	5	4	4	786005	6	3	3	1	0	608	14	0	1000	381
fixed	5	4	5	789185	8	1	1	1	0	615	14	0	400	382
fixed	5	4	6	790117	9	2	2	1	0	932	14	0	550	383
fixed	5	4	7	790117	7	0	0	1	0	709	14	0	800	384
fixed	5	4	8	792026	6	3	3	1	0	1090	14	0	600	385
fixed	5	4	9	792026	5	1	1	1	0	609	14	0	750	386
fixed	5	5	0	794360	5	2	2	1	0	1165	14	0	1000	387
fixed	5	5	1	795029	8	1	1	1	0	669	14	0	500	388
fixed	5	5	2	795029	7	0	0	1	0	676	14	0	650	389
fixed	5	5	3	796782	10	2	2	1	0	1076	14	0	900	390
fixed	5	5	4	796782	6	3	3	1	0	941	14	0	1000	391
fixed	5	5	5	798790	8	1	1	1	0	993	14	0	400	392
fixed	5	5	6	799944	9	2	2	1	0	1154	14	0	550	393
fixed	5	5	7	801186	7	0	0	1	0	1241	14	0	800	394
fixed	5	5	8	802459	6	3	3	1	0	1273	14	0	600	395
fixed	5	5	9	802459	5	1	1	1	0	552	14	0	750	396
fixed	5	6	0	805302	5	2	1	1	0	1701	14	0	1000	396
fixed	5	6	1	806541	8	1	1	1	0	1239	14	0	500	397
fixed	5	6	2	807257	7	0	0	1	0	716	14	0	650	398
fixed	5	6	3	808688	10	2	2	1	0	1431	14	0	900	399
fixed	5	6	4	808688	6	3	3	1	0	655	14	0	1000	400
fixed	5	6	5	810252	8	1	1	1	0	553	14	0	400	401
fixed	5	6	6	811127	9	2	2	1	0	875	14	0	550	402
fixed	5	6	7	811127	7	0	0	1	0	642	14	0	800	403
fixed	5	6	8	812758	6	3	3	1	0	824	14	0	600	404
fixed	5	6	9	812758	5	1	1	1	0	526	14	0	750	405
random	6	0	0	816027	5	3	3	1	0	2137	14	0	1000	406
random	6	0	1	817214	8	1	1	1	0	1186	14	0	550	407
random	6	0	2	818544	5	3	3	1	0	1330	14	0	900	408
random	6	0	3	819738	6	0	0	1	0	1194	14	0	750	409
random	6	0	4	820732	9	2	2	1	0	994	14	0	600	410
random	6	0	5	821992	4	0	0	1	0	1260	14	0	300	411
random	6	0	6	823520	7	1	1	1	0	1528	14	0	400	412
random	6	0	7	825078	4	2	2	1	0	1557	14	0	1000	413
random	6	0	8	826009	8	3	3	1	0	931	14	0	500	414
random	6	0	9	827357	7	2	2	1	0	1347	14	0	800	415
random	6	1	0	829047	8	3	3	1	0	1323	14	0	650	416
random	6	1	1	830126	9	2	2	1	0	1078	14	0	600	417
random	6	1	2	831255	6	1	1	1	0	1128	14	0	300	418
random	6	1	3	833065	5	2	3	1	0	1809	14	0	1000	418
random	6	1	4	834243	9	1	1	1	0	1178	14	0	900	419
random	6	1	5	835320	4	0	0	1	0	1076	14	0	800	420
random	6	1	6	837017	5	3	3	1	0	1697	14	0	750	421
random	6	1	7	838289	4	2	2	1	0	1272	14	0	400	422
random	6	1	8	838289	7	1	1	1	0	1012	14	0	1000	423
random	6	1	9	840256	6	0	0	1	0	954	14	0	500	424
random	6	2	0	841740	4	1	1	1	0	1078	14	0	900	425
random	6	2	1	843001	8	0	0	1	0	1261	14	0	300	426
random	6	2	2	844437	9	3	3	1	0	1436	14	0	1000	427
random	6	2	3	845612	7	0	0	1	0	1175	14	0	550	428
random	6	2	4	845612	6	2	2	1	0	1003	14	0	1000	429
random	6	2	5	847505	5	1	1	1	0	889	14	0	400	430
random	6	2	6	850015	6	3	-1	1	0	2500	14	0	600	430
random	6	2	7	851360	8	2	2	1	0	1345	14	0	500	431
random	6	2	8	853889	4	3	-1	1	0	2500	14	0	750	431
random	6	2	9	856410	9	2	-1	1	0	2500	14	0	650	431
random	6	3	0	858018	4	0	0	1	0	1182	14	0	900	432
random	6	3	1	859489	8	2	2	1	0	1471	14	0	300	433
random	6	3	2	860544	9	1	1	1	0	1055	14	0	1000	434
random	6	3	3	861315	7	3	3	1	0	770	14	0	550	435
random	6	3	4	862705	6	1	1	1	0	1389	14	0	1000	436
random	6	3	5	863685	5	0	0	1	0	980	14	0	400	437
random	6	3	6	864744	6	3	3	1	0	1058	14	0	600	438
random	6	3	7	865866	8	2	2	1	0	1122	14	0	500	439
random	6	3	8	867056	4	1	1	1	0	1189	14	0	750	440
random	6	3	9	868859	9	2	2	1	0	1803	14	0	650	441
random	6	4	0	870485	5	3	3	1	0	1219	14	0	500	442
random	6	4	1	871872	9	2	2	1	0	1386	14	0	600	443
random	6	4	2	872960	6	1	1	1	0	1088	14	0	900	444
random	6	4	3	874046	9	0	0	1	0	1083	14	0	1000	445
random	6	4	4	876550	8	3	3	1	0	2503	14	0	650	446
random	6	4	5	877742	4	1	1	1	0	1187	14	0	550	447
random	6	4	6	878760	7	3	3	1	0	1018	14	0	800	448
random	6	4	7	879644	6	0	0	1	0	884	14	0	700	449
random	6	4	8	879644	8	2	2	1	0	890	14	0	1000	450
random	6	4	9	881786	5	1	1	1	0	1113	14	0	300	451
random	6	5	0	883450	6	0	0	1	0	1228	14	0	1000	452
random	6	5	1	885147	8	2	2	1	0	1697	14	0	400	453
random	6	5	2	885980	4	3	3	1	0	833	14	0	750	454
random	6	5	3	887126	8	1	1	1	0	1146	14	0	900	455
random	6	5	4	888044	5	2	2	1	0	917	14	0	300	456
random	6	5	5	889268	4	3	3	1	0	1224	14	0	650	457
random	6	5	6	890357	7	0	0	1	0	1088	14	0	550	458
random	6	5	7	892257	9	2	2	1	0	1899	14	0	800	459
random	6	5	8	893457	7	1	1	1	0	1200	14	0	500	460
random	6	5	9	894567	6	0	3	1	0	1109	14	0	1000	460
random	6	6	0	894567	9	0	0	1	0	1029	14	0	1000	461
random	6	6	1	897306	6	2	2	1	0	1266	14	0	650	462
random	6	6	2	898376	9	1	1	1	0	1071	14	0	900	463
random	6	6	3	899623	8	2	2	1	0	1246	14	0	600	464
random	6	6	4	900692	6	0	0	1	0	1069	14	0	400	465
random	6	6	5	901811	8	3	3	1	0	1119	14	0	300	466
random	6	6	6	902882	5	1	1	1	0	1070	14	0	700	467
random	6	6	7	905385	4	3	-1	1	0	2500	14	0	750	467
random	6	6	8	906644	7	1	1	1	0	1259	14	0	500	468
random	6	6	9	908108	5	2	2	1	0	1463	14	0	1000	469
fixed	7	0	0	909955	3	2	2	1	0	1380	14	0	1000	470
fixed	7	0	1	911294	6	1	1	1	0	1338	14	0	500	471
fixed	7	0	2	912574	5	0	0	1	0	1280	14	0	650	472
fixed	7	0	3	913838	8	2	2	1	0	1263	14	0	900	473
fixed	7	0	4	913838	4	3	3	1	0	975	14	0	1000	474
fixed	7	0	5	916306	6	1	1	1	0	1463	14	0	400	475
fixed	7	0	6	917602	7	2	2	1	0	1296	14	0	550	476
fixed	7	0	7	918704	5	0	0	1	0	1102	14	0	800	477
fixed	7	0	8	919760	4	3	2	1	0	1055	14	0	600	477
fixed	7	0	9	920884	3	1	1	1	0	1124	14	0	750	478
fixed	7	1	0	922575	3	2	2	1	0	1260	14	0	1000	479
fixed	7	1	1	923806	6	1	1	1	0	1230	14	0	500	480
fixed	7	1	2	925027	5	0	0	1	0	1221	14	0	650	481
fixed	7	1	3	926189	8	2	2	1	0	1162	14	0	900	482
fixed	7	1	4	926189	4	3	3	1	0	784	14	0	1000	483
fixed	7	1	5	928223	6	1	1	1	0	1019	14	0	400	484
fixed	7	1	6	929310	7	2	2	1	0	1087	14	0	550	485
fixed	7	1	7	930253	5	0	0	1	0	941	14	0	800	486
fixed	7	1	8	931434	4	3	3	1	0	1181	14	0	600	487
fixed	7	1	9	932483	3	1	1	1	0	1049	14	0	750	488
fixed	7	2	0	934139	3	2	2	1	0	1261	14	0	1000	489
fixed	7	2	1	935089	6	1	1	1	0	950	14	0	500	490
fixed	7	2	2	935912	5	0	0	1	0	823	14	0	650	491
fixed	7	2	3	937009	8	2	2	1	0	1094	14	0	900	492
fixed	7	2	4	937009	4	3	3	1	0	847	14	0	1000	493
fixed	7	2	5	939065	6	1	1	1	0	1026	14	0	400	494
fixed	7	2	6	939956	7	2	2	1	0	890	14	0	550	495
fixed	7	2	7	940932	5	0	0	1	0	976	14	0	800	496
fixed	7	2	8	941760	4	3	3	1	0	828	14	0	600	497
fixed	7	2	9	942930	3	1	1	1	0	1169	14	0	750	498
fixed	7	3	0	942930	3	2	2	1	0	1052	14	0	1000	499
fixed	7	3	1	945531	6	1	1	1	0	1106	14	0	500	500
fixed	7	3	2	946393	5	0	0	1	0	863	14	0	650	501
fixed	7	3	3	947382	8	2	2	1	0	988	14	0	900	502
fixed	7	3	4	947382	4	3	3	1	0	754	14	0	1000	503
fixed	7	3	5	949732	6	1	1	1	0	1350	14	0	400	504
fixed	7	3	6	950892	7	2	2	1	0	1160	14	0	550	505
fixed	7	3	7	952042	5	0	0	1	0	1150	14	0	800	506
fixed	7	3	8	953393	4	3	3	1	0	1350	14	0	600	507
fixed	7	3	9	954410	3	1	1	1	0	1016	14	0	750	508
fixed	7	4	0	956243	3	2	2	1	0	1409	14	0	1000	509
fixed	7	4	1	957477	6	1	1	1	0	1233	14	0	500	510
fixed	7	4	2	958196	5	0	0	1	0	719	14	0	650	511
fixed	7	4	3	959436	8	2	2	1	0	1240	14	0	900	512
fixed	7	4	4	959436	4	3	3	1	0	699	14	0	1000	513
fixed	7	4	5	961417	6	1	1	1	0	943	14	0	400	514
fixed	7	4	6	962776	7	2	2	1	0	1359	14	0	550	515
fixed	7	4	7	964050	5	0	0	1	0	1273	14	0	800	516
fixed	7	4	8	966570	4	3	-1	1	0	2500	14	0	600	516
fixed	7	4	9	966570	3	1	1	1	0	735	14	0	750	517
fixed	7	5	0	969021	3	2	2	1	0	1276	14	0	1000	518
fixed	7	5	1	969788	6	1	1	1	0	766	14	0	500	519
fixed	7	5	2	970495	5	0	0	1	0	707	14	0	650	520
fixed	7	5	3	971507	8	2	2	1	0	1012	14	0	900	521
fixed	7	5	4	974028	4	3	-1	1	0	2500	14	0	1000	521
fixed	7	5	5	974977	6	1	1	1	0	949	14	0	400	522
fixed	7	5	6	976159	7	2	2	1	0	1181	14	0	550	523
fixed	7	5	7	977267	5	0	0	1	0	1108	14	0	800	524
fixed	7	5	8	978769	4	3	3	1	0	1502	14	0	600	525
fixed	7	5	9	979827	3	1	1	1	0	1057	14	0	750	526
fixed	7	6	0	981376	3	2	2	1	0	1190	14	0	1000	527
fixed	7	6	1	982400	6	1	1	1	0	1024	14	0	500	528
fixed	7	6	2	982400	5	0	0	1	0	676	14	0	650	529
fixed	7	6	3	984085	8	2	2	1	0	1009	14	0	900	530
fixed	7	6	4	986609	4	3	-1	1	0	2500	14	0	1000	530
fixed	7	6	5	987276	6	1	1	1	0	666	14	0	400	531
fixed	7	6	6	988378	7	2	2	1	0	1101	14	0	550	532
fixed	7	6	7	989546	5	0	0	1	0	1168	14	0	800	533
fixed	7	6	8	992052	4	3	-1	1	0	2500	14	0	600	533
fixed	7	6	9	994560	3	1	-1	1	0	2500	14	0	750	533
