type	block	sequ.	trial	time	Pos.	Color	Button	NumRsp	Resp_1	RT_1	R_Code	Resp_2	RT_2	Trigg.	n_hit	n_inc	n_miss	score_%

random	1	1	1	6333	6	1	1	1	0	857	1	4	0	8	1	0	0	100
random	1	1	2	7531	4	4	4	1	0	1007	1	4	0	32	2	0	0	100
random	1	1	3	9370	2	2	2	1	0	1041	1	4	0	16	3	0	0	100
random	1	1	4	11106	3	3	3	1	0	728	1	4	0	24	4	0	0	100
random	1	1	5	12664	5	2	2	1	0	966	1	4	0	16	5	0	0	100
random	1	1	6	13937	1	4	4	1	0	679	1	4	0	32	6	0	0	100
random	1	1	7	15497	6	1	1	1	0	1022	1	4	0	8	7	0	0	100
random	1	1	8	17198	2	3	3	1	0	885	1	4	0	24	8	0	0	100
random	1	1	9	19048	4	2	2	1	0	847	1	4	0	16	9	0	0	100
random	1	1	10	20533	1	1	1	1	0	736	1	4	0	8	10	0	0	100
random	1	1	11	21971	5	4	4	1	0	587	1	4	0	32	11	0	0	100
random	1	1	12	23082	3	3	3	1	0	1084	1	4	0	24	12	0	0	100
random	1	1	13	24746	5	2	2	1	0	869	1	4	0	16	13	0	0	100
random	1	1	14	26527	1	4	4	1	0	738	1	4	0	32	14	0	0	100
random	1	1	15	27991	3	1	1	1	0	764	1	4	0	8	15	0	0	100
random	1	1	16	29352	4	3	3	1	0	1035	1	4	0	24	16	0	0	100
random	1	1	17	30970	6	4	4	1	0	870	1	4	0	32	17	0	0	100
random	1	1	18	32164	2	1	1	1	0	875	1	4	0	8	18	0	0	100
random	1	1	19	33865	5	3	3	1	0	1180	1	4	0	24	19	0	0	100
random	1	1	20	35951	2	2	2	1	0	667	1	4	0	16	20	0	0	100
random	1	1	21	37405	3	3	3	1	0	942	1	4	0	24	21	0	0	100
random	1	1	22	38894	6	1	1	1	0	751	1	4	0	8	22	0	0	100
random	1	1	23	40081	4	2	2	1	0	861	1	4	0	16	23	0	0	100
random	1	1	24	41228	1	4	4	1	0	804	1	4	0	32	24	0	0	100
random	1	1	25	42942	4	3	0	1	2	0	3	4	0	24	24	0	1	96
random	1	1	26	46189	2	1	1	1	0	857	1	4	0	8	25	0	1	96
random	1	1	27	47443	5	2	2	1	0	908	1	4	0	16	26	0	1	96
random	1	1	28	48926	6	4	4	1	0	782	1	4	0	32	27	0	1	96
random	1	1	29	50445	1	3	3	1	0	885	1	4	0	24	28	0	1	97
random	1	1	30	52002	5	2	2	1	0	779	1	4	0	16	29	0	1	97
random	1	1	31	53136	2	1	1	1	0	811	1	4	0	8	30	0	1	97
random	1	1	32	54737	3	3	3	1	0	927	1	4	0	24	31	0	1	97
random	1	1	33	56470	6	4	4	1	0	750	1	4	0	32	32	0	1	97
random	1	1	34	57941	4	2	2	1	0	936	1	4	0	16	33	0	1	97
random	1	1	35	59174	3	4	4	1	0	876	1	4	0	32	34	0	1	97
random	1	1	36	61051	1	1	1	1	0	660	1	4	0	8	35	0	1	97
random	1	1	37	62373	3	4	4	1	0	1228	1	4	0	32	36	0	1	97
random	1	1	38	63900	5	3	3	1	0	955	1	4	0	24	37	0	1	97
random	1	1	39	65493	6	1	1	1	0	720	1	4	0	8	38	0	1	97
random	1	1	40	66753	1	2	2	1	0	882	1	4	0	16	39	0	1	98
random	1	1	41	67972	2	3	3	2	0	1335	2	4	0	24	40	0	1	98
random	1	1	42	70188	4	4	4	1	0	913	1	4	0	32	41	0	1	98
random	1	1	43	71831	1	2	2	1	0	1243	1	4	0	16	42	0	1	98
random	1	1	44	74110	6	3	3	1	0	1107	1	4	0	24	43	0	1	98
random	1	1	45	75934	3	1	1	1	0	774	1	4	0	8	44	0	1	98
random	1	1	46	77491	4	4	4	1	0	883	1	4	0	32	45	0	1	98
random	1	1	47	79175	2	2	2	1	0	933	1	4	0	16	46	0	1	98
random	1	1	48	81004	5	1	1	1	0	823	1	4	0	8	47	0	1	98
random	1	1	49	82456	2	3	3	1	0	969	1	4	0	24	48	0	1	98
random	1	1	50	83915	3	1	1	1	0	900	1	4	0	8	49	0	1	98
random	1	1	51	85554	1	4	4	1	0	678	1	4	0	32	50	0	1	98
random	1	1	52	87148	5	3	3	1	0	1090	1	4	0	24	51	0	1	98
random	1	1	53	88753	3	2	2	1	0	974	1	4	0	16	52	0	1	98
random	1	1	54	90085	6	4	4	1	0	822	1	4	0	32	53	0	1	98
random	1	1	55	91824	4	2	2	1	0	1333	1	4	0	16	54	0	1	98
random	1	1	56	93694	1	1	1	1	0	726	1	4	0	8	55	0	1	98
random	1	1	57	95316	5	4	4	1	0	921	1	4	0	32	56	0	1	98
random	1	1	58	96704	2	1	1	1	0	806	1	4	0	8	57	0	1	98
random	1	1	59	98037	6	2	2	1	0	982	1	4	0	16	58	0	1	98
random	1	1	60	99794	4	3	3	1	0	819	1	4	0	24	59	0	1	98
random	1	1	61	101435	1	2	2	1	0	917	1	4	0	16	60	0	1	98
random	1	1	62	103270	6	4	4	1	0	767	1	4	0	32	61	0	1	98
random	1	1	63	105017	4	1	1	1	0	766	1	4	0	8	62	0	1	98
random	1	1	64	106101	2	2	2	1	0	1016	1	4	0	16	63	0	1	98
random	1	1	65	108102	4	3	3	1	0	467	1	4	0	24	64	0	1	98
random	1	1	66	109347	3	1	1	1	0	831	1	4	0	8	65	0	1	98
random	1	1	67	110758	1	3	3	1	0	1050	1	4	0	24	66	0	1	99
random	1	1	68	112168	5	4	4	1	0	855	1	4	0	32	67	0	1	99
random	1	1	69	114063	2	2	2	1	0	999	1	4	0	16	68	0	1	99
random	1	1	70	115416	3	1	1	1	0	790	1	4	0	8	69	0	1	99
random	1	1	71	117234	5	4	4	1	0	841	1	4	0	32	70	0	1	99
random	1	1	72	118802	6	3	3	1	0	974	1	4	0	24	71	0	1	99
random	1	1	73	120850	2	1	1	1	0	863	1	4	0	8	72	0	1	99
random	1	1	74	122137	5	3	3	1	0	921	1	4	0	24	73	0	1	99
random	1	1	75	124016	1	4	4	1	0	745	1	4	0	32	74	0	1	99
random	1	1	76	125653	6	2	2	1	0	740	1	4	0	16	75	0	1	99
random	1	1	77	126985	2	1	1	1	0	987	1	4	0	8	76	0	1	99
random	1	1	78	128928	4	4	4	1	0	809	1	4	0	32	77	0	1	99
random	1	1	79	130683	3	2	2	1	0	847	1	4	0	16	78	0	1	99
random	1	1	80	132180	4	3	3	1	0	823	1	4	0	24	79	0	1	99
random	1	1	81	133498	1	4	4	1	0	879	1	4	0	32	80	0	1	99
random	1	1	82	134687	5	1	1	1	0	917	1	4	0	8	81	0	1	99
random	1	1	83	136102	3	2	2	1	0	929	1	4	0	16	82	0	1	99
random	1	1	84	137513	6	3	3	2	0	1805	2	4	0	24	83	0	1	99
random	1	1	85	140030	3	2	2	1	0	1259	1	4	0	16	84	0	1	99
random	1	1	86	141903	1	3	3	1	0	1323	1	4	0	24	85	0	1	99
random	1	1	87	144198	4	4	4	1	0	842	1	4	0	32	86	0	1	99
random	1	1	88	145487	2	1	1	1	0	740	1	4	0	8	87	0	1	99
random	1	1	89	147110	6	4	4	1	0	751	1	4	0	32	88	0	1	99
random	1	1	90	148308	3	3	3	1	0	1108	1	4	0	24	89	0	1	99
random	1	1	91	150250	5	4	4	1	0	1098	1	4	0	32	90	0	1	99
random	1	1	92	151662	1	2	2	1	0	1046	1	4	0	16	91	0	1	99
random	1	1	93	153105	5	1	1	1	0	825	1	4	0	8	92	0	1	99
random	1	1	94	154697	4	3	3	1	0	1005	1	4	0	24	93	0	1	99
random	1	1	95	156414	6	1	1	1	0	789	1	4	0	8	94	0	1	99
random	1	1	96	157691	2	2	2	1	0	895	1	4	0	16	95	0	1	99
random	1	1	97	159745	4	3	3	1	0	1240	1	4	0	24	96	0	1	99
random	1	1	98	161389	3	2	2	1	0	826	1	4	0	16	97	0	1	99
random	1	1	99	163058	6	3	3	1	0	979	1	4	0	24	98	0	1	99
random	1	1	100	164639	1	4	4	1	0	752	1	4	0	32	99	0	1	99
random	1	1	101	166379	4	1	1	1	0	775	1	4	0	8	100	0	1	99
random	1	1	102	168145	5	2	2	1	0	1044	1	4	0	16	101	0	1	99
random	1	1	103	169833	2	4	4	1	0	741	1	4	0	32	102	0	1	99
random	1	1	104	171454	3	1	1	1	0	880	1	4	0	8	103	0	1	99
random	1	1	105	172767	1	3	3	1	0	1016	1	4	0	24	104	0	1	99
random	1	1	106	174328	2	2	2	1	0	839	1	4	0	16	105	0	1	99
random	1	1	107	175762	5	4	4	1	0	578	1	4	0	32	106	0	1	99
random	1	1	108	176966	6	1	1	2	0	1159	2	4	0	8	107	0	1	99
random	1	1	109	179159	5	4	4	1	0	993	1	4	0	32	108	0	1	99
random	1	1	110	180770	6	3	3	1	0	1013	1	4	0	24	109	0	1	99
random	1	1	111	182539	2	2	2	1	0	866	1	4	0	16	110	0	1	99
random	1	1	112	183778	3	1	1	1	0	830	1	4	0	8	111	0	1	99
random	1	1	113	185056	1	2	2	1	0	1000	1	4	0	16	112	0	1	99
random	1	1	114	186895	2	3	3	1	0	1210	1	4	0	24	113	0	1	99
random	1	1	115	188488	3	1	1	1	0	895	1	4	0	8	114	0	1	99
random	1	1	116	189835	4	4	4	1	0	797	1	4	0	32	115	0	1	99
random	1	1	117	191022	6	1	1	1	0	1051	1	4	0	8	116	0	1	99
random	1	1	118	192785	5	3	3	1	0	961	1	4	0	24	117	0	1	99
random	1	1	119	194341	1	4	4	1	0	799	1	4	0	32	118	0	1	99
random	1	1	120	196126	4	2	2	1	0	699	1	4	0	16	119	0	1	99
fixed	2	1	1	197719	4	1	1	1	0	1031	1	4	0	40	1	0	0	100
fixed	2	1	2	199423	1	2	2	1	0	1264	1	4	0	48	2	0	0	100
fixed	2	1	3	201466	6	4	4	1	0	809	1	4	0	64	3	0	0	100
fixed	2	1	4	202991	2	1	1	1	0	752	1	4	0	40	4	0	0	100
fixed	2	1	5	204114	5	3	3	1	0	1169	1	4	0	56	5	0	0	100
fixed	2	1	6	205838	6	4	4	1	0	864	1	4	0	64	6	0	0	100
fixed	2	1	7	207723	3	1	1	1	0	912	1	4	0	40	7	0	0	100
fixed	2	1	8	209198	2	3	3	1	0	1233	1	4	0	56	8	0	0	100
fixed	2	1	9	211317	3	2	2	1	0	808	1	4	0	48	9	0	0	100
fixed	2	1	10	212719	1	4	4	1	0	692	1	4	0	64	10	0	0	100
fixed	2	1	11	214413	5	2	2	1	0	884	1	4	0	48	11	0	0	100
fixed	2	1	12	216064	4	3	3	2	0	1302	2	4	0	56	12	0	0	100
fixed	2	2	1	218072	4	1	1	1	0	825	1	4	0	40	13	0	0	100
fixed	2	2	2	219566	1	2	2	1	0	1146	1	4	0	48	14	0	0	100
fixed	2	2	3	221660	6	4	4	1	0	946	1	4	0	64	15	0	0	100
fixed	2	2	4	223182	2	1	1	1	0	881	1	4	0	40	16	0	0	100
fixed	2	2	5	225005	5	3	3	1	0	908	1	4	0	56	17	0	0	100
fixed	2	2	6	226771	6	4	4	1	0	793	1	4	0	64	18	0	0	100
fixed	2	2	7	228419	3	1	1	1	0	811	1	4	0	40	19	0	0	100
fixed	2	2	8	230089	2	3	3	1	0	1004	1	4	0	56	20	0	0	100
fixed	2	2	9	232008	3	2	2	1	0	803	1	4	0	48	21	0	0	100
fixed	2	2	10	233250	1	4	4	1	0	799	1	4	0	64	22	0	0	100
fixed	2	2	11	234398	5	2	2	1	0	926	1	4	0	48	23	0	0	100
fixed	2	2	12	235824	4	3	3	1	0	1018	1	4	0	56	24	0	0	100
fixed	2	3	1	237402	4	1	1	1	0	751	1	4	0	40	25	0	0	100
fixed	2	3	2	239063	1	2	2	1	0	904	1	4	0	48	26	0	0	100
fixed	2	3	3	240921	6	4	4	1	0	634	1	4	0	64	27	0	0	100
fixed	2	3	4	241857	2	1	1	1	0	826	1	4	0	40	28	0	0	100
fixed	2	3	5	243700	5	3	3	1	0	988	1	4	0	56	29	0	0	100
fixed	2	3	6	245343	6	4	4	1	0	798	1	4	0	64	30	0	0	100
fixed	2	3	7	247093	3	1	1	1	0	716	1	4	0	40	31	0	0	100
fixed	2	3	8	248473	2	3	3	1	0	1002	1	4	0	56	32	0	0	100
fixed	2	3	9	249784	3	2	2	1	0	802	1	4	0	48	33	0	0	100
fixed	2	3	10	251588	1	4	4	1	0	854	1	4	0	64	34	0	0	100
fixed	2	3	11	252793	5	2	2	1	0	1019	1	4	0	48	35	0	0	100
fixed	2	3	12	254116	4	3	3	1	0	1019	1	4	0	56	36	0	0	100
fixed	2	4	1	256065	4	1	1	1	0	616	1	4	0	40	37	0	0	100
fixed	2	4	2	257275	1	2	2	1	0	909	1	4	0	48	38	0	0	100
fixed	2	4	3	258982	6	4	4	1	0	661	1	4	0	64	39	0	0	100
fixed	2	4	4	260272	2	1	1	1	0	718	1	4	0	40	40	0	0	100
fixed	2	4	5	261840	5	3	3	1	0	916	1	4	0	56	41	0	0	100
fixed	2	4	6	263553	6	4	4	1	0	787	1	4	0	64	42	0	0	100
fixed	2	4	7	265221	3	1	1	1	0	748	1	4	0	40	43	0	0	100
fixed	2	4	8	266374	2	3	3	1	0	900	1	4	0	56	44	0	0	100
fixed	2	4	9	267580	3	2	2	1	0	745	1	4	0	48	45	0	0	100
fixed	2	4	10	268983	1	4	4	1	0	797	1	4	0	64	46	0	0	100
fixed	2	4	11	270776	5	2	2	1	0	937	1	4	0	48	47	0	0	100
fixed	2	4	12	272354	4	3	3	1	0	990	1	4	0	56	48	0	0	100
fixed	2	5	1	274543	4	1	1	1	0	841	1	4	0	40	49	0	0	100
fixed	2	5	2	276248	1	2	2	1	0	1113	1	4	0	48	50	0	0	100
fixed	2	5	3	277712	6	4	4	1	0	868	1	4	0	64	51	0	0	100
fixed	2	5	4	278919	2	1	1	1	0	912	1	4	0	40	52	0	0	100
fixed	2	5	5	280597	5	3	3	1	0	1313	1	4	0	56	53	0	0	100
fixed	2	5	6	282408	6	4	4	1	0	773	1	4	0	64	54	0	0	100
fixed	2	5	7	283781	3	1	1	1	0	778	1	4	0	40	55	0	0	100
fixed	2	5	8	285440	2	3	3	1	0	1252	1	4	0	56	56	0	0	100
fixed	2	5	9	287356	3	2	2	1	0	699	1	4	0	48	57	0	0	100
fixed	2	5	10	288589	1	4	4	1	0	743	1	4	0	64	58	0	0	100
fixed	2	5	11	290302	5	2	2	1	0	846	1	4	0	48	59	0	0	100
fixed	2	5	12	291739	4	3	3	1	0	1209	1	4	0	56	60	0	0	100
fixed	2	6	1	293724	4	1	1	1	0	653	1	4	0	40	61	0	0	100
fixed	2	6	2	294685	1	2	2	1	0	1101	1	4	0	48	62	0	0	100
fixed	2	6	3	296267	6	4	4	1	0	722	1	4	0	64	63	0	0	100
fixed	2	6	4	297562	2	1	1	1	0	731	1	4	0	40	64	0	0	100
fixed	2	6	5	299056	5	3	3	1	0	947	1	4	0	56	65	0	0	100
fixed	2	6	6	300952	6	4	4	1	0	827	1	4	0	64	66	0	0	100
fixed	2	6	7	302678	3	1	1	1	0	1202	1	4	0	40	67	0	0	100
fixed	2	6	8	304696	2	3	3	1	0	1005	1	4	0	56	68	0	0	100
fixed	2	6	9	306664	3	2	2	1	0	889	1	4	0	48	69	0	0	100
fixed	2	6	10	308061	1	4	4	1	0	934	1	4	0	64	70	0	0	100
fixed	2	6	11	309793	5	2	2	1	0	909	1	4	0	48	71	0	0	100
fixed	2	6	12	311194	4	3	3	1	0	994	1	4	0	56	72	0	0	100
fixed	2	7	1	313205	4	1	1	1	0	956	1	4	0	40	73	0	0	100
fixed	2	7	2	314545	1	2	2	1	0	971	1	4	0	48	74	0	0	100
fixed	2	7	3	315969	6	4	4	1	0	719	1	4	0	64	75	0	0	100
fixed	2	7	4	317276	2	1	1	1	0	896	1	4	0	40	76	0	0	100
fixed	2	7	5	318783	5	3	3	1	0	1352	1	4	0	56	77	0	0	100
fixed	2	7	6	320779	6	4	4	1	0	803	1	4	0	64	78	0	0	100
fixed	2	7	7	322195	3	1	1	1	0	831	1	4	0	40	79	0	0	100
fixed	2	7	8	323847	2	3	3	1	0	953	1	4	0	56	80	0	0	100
fixed	2	7	9	325816	3	2	2	1	0	678	1	4	0	48	81	0	0	100
fixed	2	7	10	327106	1	4	4	1	0	783	1	4	0	64	82	0	0	100
fixed	2	7	11	328537	5	2	2	1	0	859	1	4	0	48	83	0	0	100
fixed	2	7	12	330235	4	3	3	1	0	1139	1	4	0	56	84	0	0	100
fixed	2	8	1	332653	4	1	1	1	0	804	1	4	0	40	85	0	0	100
fixed	2	8	2	333973	1	2	2	1	0	956	1	4	0	48	86	0	0	100
fixed	2	8	3	335458	6	4	4	1	0	773	1	4	0	64	87	0	0	100
fixed	2	8	4	336589	2	1	1	1	0	870	1	4	0	40	88	0	0	100
fixed	2	8	5	338337	5	3	3	1	0	956	1	4	0	56	89	0	0	100
fixed	2	8	6	339905	6	4	4	1	0	745	1	4	0	64	90	0	0	100
fixed	2	8	7	341405	3	1	1	1	0	1009	1	4	0	40	91	0	0	100
fixed	2	8	8	343002	2	3	3	1	0	1278	1	4	0	56	92	0	0	100
fixed	2	8	9	344781	3	2	2	1	0	819	1	4	0	48	93	0	0	100
fixed	2	8	10	346271	1	4	4	1	0	940	1	4	0	64	94	0	0	100
fixed	2	8	11	348215	5	2	2	1	0	865	1	4	0	48	95	0	0	100
fixed	2	8	12	349926	4	3	3	1	0	1033	1	4	0	56	96	0	0	100
fixed	2	9	1	352100	4	1	1	1	0	677	1	4	0	40	97	0	0	100
fixed	2	9	2	353752	1	2	2	1	0	1022	1	4	0	48	98	0	0	100
fixed	2	9	3	355314	6	4	4	1	0	797	1	4	0	64	99	0	0	100
fixed	2	9	4	356917	2	1	1	1	0	849	1	4	0	40	100	0	0	100
fixed	2	9	5	358424	5	3	3	1	0	889	1	4	0	56	101	0	0	100
fixed	2	9	6	360091	6	4	4	1	0	810	1	4	0	64	102	0	0	100
fixed	2	9	7	361486	3	1	1	1	0	816	1	4	0	40	103	0	0	100
fixed	2	9	8	363257	2	3	3	2	0	1565	2	4	0	56	104	0	0	100
fixed	2	9	9	365534	3	2	2	1	0	868	1	4	0	48	105	0	0	100
fixed	2	9	10	366892	1	4	4	1	0	794	1	4	0	64	106	0	0	100
fixed	2	9	11	368475	5	2	2	1	0	887	1	4	0	48	107	0	0	100
fixed	2	9	12	369662	4	3	3	1	0	1061	1	4	0	56	108	0	0	100
fixed	2	10	1	371431	4	1	1	1	0	666	1	4	0	40	109	0	0	100
fixed	2	10	2	373025	1	2	2	1	0	815	1	4	0	48	110	0	0	100
fixed	2	10	3	374214	6	4	4	1	0	748	1	4	0	64	111	0	0	100
fixed	2	10	4	375454	2	1	1	1	0	736	1	4	0	40	112	0	0	100
fixed	2	10	5	376727	5	3	3	1	0	1121	1	4	0	56	113	0	0	100
fixed	2	10	6	378663	6	4	4	1	0	1055	1	4	0	64	114	0	0	100
fixed	2	10	7	380039	3	1	1	1	0	1021	1	4	0	40	115	0	0	100
fixed	2	10	8	381696	2	3	3	1	0	1111	1	4	0	56	116	0	0	100
fixed	2	10	9	383765	3	2	2	1	0	760	1	4	0	48	117	0	0	100
fixed	2	10	10	385558	1	4	4	1	0	732	1	4	0	64	118	0	0	100
fixed	2	10	11	387025	5	2	2	1	0	862	1	4	0	48	119	0	0	100
fixed	2	10	12	388332	4	3	3	2	0	1110	2	4	0	56	120	0	0	100
fixed	3	1	1	390626	4	1	1	1	0	1069	1	4	0	72	1	0	0	100
fixed	3	1	2	392747	1	2	2	1	0	987	1	4	0	80	2	0	0	100
fixed	3	1	3	394777	6	4	4	1	0	685	1	4	0	96	3	0	0	100
fixed	3	1	4	396491	2	1	1	1	0	940	1	4	0	72	4	0	0	100
fixed	3	1	5	398154	5	3	3	1	0	918	1	4	0	88	5	0	0	100
fixed	3	1	6	399894	6	4	4	1	0	813	1	4	0	96	6	0	0	100
fixed	3	1	7	401719	3	1	1	1	0	1056	1	4	0	72	7	0	0	100
fixed	3	1	8	403703	2	3	3	1	0	995	1	4	0	88	8	0	0	100
fixed	3	1	9	405668	3	2	2	1	0	1096	1	4	0	80	9	0	0	100
fixed	3	1	10	407535	1	4	4	1	0	841	1	4	0	96	10	0	0	100
fixed	3	1	11	408774	5	2	2	1	0	956	1	4	0	80	11	0	0	100
fixed	3	1	12	410039	4	3	3	1	0	1055	1	4	0	88	12	0	0	100
fixed	3	2	1	411847	4	1	1	1	0	674	1	4	0	72	13	0	0	100
fixed	3	2	2	413032	1	2	2	1	0	976	1	4	0	80	14	0	0	100
fixed	3	2	3	414616	6	4	4	1	0	741	1	4	0	96	15	0	0	100
fixed	3	2	4	415871	2	1	1	1	0	911	1	4	0	72	16	0	0	100
fixed	3	2	5	417120	5	3	3	1	0	971	1	4	0	88	17	0	0	100
fixed	3	2	6	418829	6	4	4	1	0	922	1	4	0	96	18	0	0	100
fixed	3	2	7	420467	3	1	1	1	0	853	1	4	0	72	19	0	0	100
fixed	3	2	8	422224	2	3	3	1	0	1059	1	4	0	88	20	0	0	100
fixed	3	2	9	424149	3	2	2	1	0	689	1	4	0	80	21	0	0	100
fixed	3	2	10	425467	1	4	4	1	0	713	1	4	0	96	22	0	0	100
fixed	3	2	11	427044	5	2	2	1	0	911	1	4	0	80	23	0	0	100
fixed	3	2	12	428378	4	3	3	1	0	734	1	4	0	88	24	0	0	100
fixed	3	3	1	429757	4	1	1	1	0	603	1	4	0	72	25	0	0	100
fixed	3	3	2	431009	1	2	2	1	0	862	1	4	0	80	26	0	0	100
fixed	3	3	3	432590	6	4	4	1	0	668	1	4	0	96	27	0	0	100
fixed	3	3	4	434196	2	1	1	1	0	752	1	4	0	72	28	0	0	100
fixed	3	3	5	435751	5	3	3	1	0	638	1	4	0	88	29	0	0	100
fixed	3	3	6	437007	6	4	4	1	0	824	1	4	0	96	30	0	0	100
fixed	3	3	7	438202	3	1	1	1	0	918	1	4	0	72	31	0	0	100
fixed	3	3	8	439534	2	3	3	1	0	957	1	4	0	88	32	0	0	100
fixed	3	3	9	441418	3	2	2	1	0	661	1	4	0	80	33	0	0	100
fixed	3	3	10	442732	1	4	4	1	0	934	1	4	0	96	34	0	0	100
fixed	3	3	11	444265	5	2	2	1	0	965	1	4	0	80	35	0	0	100
fixed	3	3	12	446228	4	3	3	1	0	1482	1	4	0	88	36	0	0	100
fixed	3	4	1	448654	4	1	1	1	0	787	1	4	0	72	37	0	0	100
fixed	3	4	2	450373	1	2	2	1	0	1170	1	4	0	80	38	0	0	100
fixed	3	4	3	452134	6	4	4	1	0	632	1	4	0	96	39	0	0	100
fixed	3	4	4	453770	2	1	1	1	0	819	1	4	0	72	40	0	0	100
fixed	3	4	5	455561	5	3	3	1	0	1071	1	4	0	88	41	0	0	100
fixed	3	4	6	457509	6	4	4	1	0	660	1	4	0	96	42	0	0	100
fixed	3	4	7	458691	3	1	1	1	0	890	1	4	0	72	43	0	0	100
fixed	3	4	8	460399	2	3	3	1	0	794	1	4	0	88	44	0	0	100
fixed	3	4	9	461586	3	2	2	1	0	719	1	4	0	80	45	0	0	100
fixed	3	4	10	462716	1	4	4	1	0	824	1	4	0	96	46	0	0	100
fixed	3	4	11	464149	5	2	2	1	0	867	1	4	0	80	47	0	0	100
fixed	3	4	12	465318	4	3	3	1	0	1242	1	4	0	88	48	0	0	100
fixed	3	5	1	467600	4	1	1	1	0	785	1	4	0	72	49	0	0	100
fixed	3	5	2	468798	1	2	2	1	0	886	1	4	0	80	50	0	0	100
fixed	3	5	3	470360	6	4	4	1	0	708	1	4	0	96	51	0	0	100
fixed	3	5	4	471674	2	1	1	1	0	812	1	4	0	72	52	0	0	100
fixed	3	5	5	473076	5	3	3	2	0	1441	2	4	0	88	53	0	0	100
fixed	3	5	6	475417	6	4	4	1	0	813	1	4	0	96	54	0	0	100
fixed	3	5	7	477023	3	1	1	1	0	1105	1	4	0	72	55	0	0	100
fixed	3	5	8	478601	2	3	3	1	0	1143	1	4	0	88	56	0	0	100
fixed	3	5	9	480136	3	2	2	1	0	790	1	4	0	80	57	0	0	100
fixed	3	5	10	481839	1	4	4	1	0	894	1	4	0	96	58	0	0	100
fixed	3	5	11	483691	5	2	2	1	0	887	1	4	0	80	59	0	0	100
fixed	3	5	12	485098	4	3	3	1	0	836	1	4	0	88	60	0	0	100
fixed	3	6	1	486513	4	1	1	1	0	624	1	4	0	72	61	0	0	100
fixed	3	6	2	487446	1	2	2	1	0	1024	1	4	0	80	62	0	0	100
fixed	3	6	3	489363	6	4	4	1	0	671	1	4	0	96	63	0	0	100
fixed	3	6	4	490761	2	1	1	1	0	908	1	4	0	72	64	0	0	100
fixed	3	6	5	492298	5	3	3	1	0	899	1	4	0	88	65	0	0	100
fixed	3	6	6	493811	6	4	4	1	0	779	1	4	0	96	66	0	0	100
fixed	3	6	7	495156	3	1	1	1	0	914	1	4	0	72	67	0	0	100
fixed	3	6	8	496892	2	3	0	0	2	0	3	4	0	88	67	0	1	99
fixed	3	6	9	500401	3	2	2	1	0	979	1	4	0	80	68	0	1	99
fixed	3	6	10	502024	1	4	4	1	0	903	1	4	0	96	69	0	1	99
fixed	3	6	11	503805	5	2	2	1	0	939	1	4	0	80	70	0	1	99
fixed	3	6	12	505202	4	3	3	1	0	1016	1	4	0	88	71	0	1	99
fixed	3	7	1	506997	4	1	1	1	0	748	1	4	0	72	72	0	1	99
fixed	3	7	2	508127	1	2	2	1	0	981	1	4	0	80	73	0	1	99
fixed	3	7	3	509716	6	4	4	1	0	705	1	4	0	96	74	0	1	99
fixed	3	7	4	511296	2	1	1	1	0	1086	1	4	0	72	75	0	1	99
fixed	3	7	5	513207	5	3	3	1	0	1317	1	4	0	88	76	0	1	99
fixed	3	7	6	515441	6	4	4	1	0	767	1	4	0	96	77	0	1	99
fixed	3	7	7	516507	3	1	1	1	0	873	1	4	0	72	78	0	1	99
fixed	3	7	8	518201	2	3	3	1	0	986	1	4	0	88	79	0	1	99
fixed	3	7	9	519503	3	2	2	1	0	699	1	4	0	80	80	0	1	99
fixed	3	7	10	520531	1	4	4	1	0	799	1	4	0	96	81	0	1	99
fixed	3	7	11	522122	5	2	2	1	0	804	1	4	0	80	82	0	1	99
fixed	3	7	12	523579	4	3	3	1	0	966	1	4	0	88	83	0	1	99
fixed	3	8	1	525409	4	1	1	1	0	744	1	4	0	72	84	0	1	99
fixed	3	8	2	526631	1	2	2	1	0	924	1	4	0	80	85	0	1	99
fixed	3	8	3	528033	6	4	4	1	0	705	1	4	0	96	86	0	1	99
fixed	3	8	4	529114	2	1	1	1	0	772	1	4	0	72	87	0	1	99
fixed	3	8	5	530543	5	3	3	1	0	895	1	4	0	88	88	0	1	99
fixed	3	8	6	531808	6	4	4	1	0	721	1	4	0	96	89	0	1	99
fixed	3	8	7	533476	3	1	1	1	0	722	1	4	0	72	90	0	1	99
fixed	3	8	8	534961	2	3	3	1	0	812	1	4	0	88	91	0	1	99
fixed	3	8	9	536225	3	2	2	1	0	798	1	4	0	80	92	0	1	99
fixed	3	8	10	537701	1	4	4	1	0	608	1	4	0	96	93	0	1	99
fixed	3	8	11	539325	5	2	2	1	0	875	1	4	0	80	94	0	1	99
fixed	3	8	12	540845	4	3	3	2	0	1346	2	4	0	88	95	0	1	99
fixed	3	9	1	543236	4	1	1	1	0	701	1	4	0	72	96	0	1	99
fixed	3	9	2	544796	1	2	2	1	0	867	1	4	0	80	97	0	1	99
fixed	3	9	3	546090	6	4	4	1	0	940	1	4	0	96	98	0	1	99
fixed	3	9	4	547732	2	1	1	1	0	783	1	4	0	72	99	0	1	99
fixed	3	9	5	549081	5	3	3	1	0	1005	1	4	0	88	100	0	1	99
fixed	3	9	6	550478	6	4	4	1	0	883	1	4	0	96	101	0	1	99
fixed	3	9	7	551788	3	1	1	1	0	867	1	4	0	72	102	0	1	99
fixed	3	9	8	553181	2	3	3	1	0	936	1	4	0	88	103	0	1	99
fixed	3	9	9	554529	3	2	2	1	0	751	1	4	0	80	104	0	1	99
fixed	3	9	10	555813	1	4	4	1	0	801	1	4	0	96	105	0	1	99
fixed	3	9	11	556957	5	2	2	1	0	1024	1	4	0	80	106	0	1	99
fixed	3	9	12	558771	4	3	3	1	0	1244	1	4	0	88	107	0	1	99
fixed	3	10	1	561013	4	1	1	1	0	692	1	4	0	72	108	0	1	99
fixed	3	10	2	562270	1	2	2	1	0	935	1	4	0	80	109	0	1	99
fixed	3	10	3	563560	6	4	4	1	0	793	1	4	0	96	110	0	1	99
fixed	3	10	4	565005	2	1	1	1	0	763	1	4	0	72	111	0	1	99
fixed	3	10	5	566800	5	3	3	1	0	1047	1	4	0	88	112	0	1	99
fixed	3	10	6	568608	6	4	4	1	0	747	1	4	0	96	113	0	1	99
fixed	3	10	7	570247	3	1	1	1	0	718	1	4	0	72	114	0	1	99
fixed	3	10	8	571368	2	3	3	1	0	1086	1	4	0	88	115	0	1	99
fixed	3	10	9	573190	3	2	2	1	0	793	1	4	0	80	116	0	1	99
fixed	3	10	10	574958	1	4	4	1	0	718	1	4	0	96	117	0	1	99
fixed	3	10	11	576020	5	2	2	1	0	1057	1	4	0	80	118	0	1	99
fixed	3	10	12	577420	4	3	3	1	0	813	1	4	0	88	119	0	1	99
fixed	4	1	1	674505	4	1	1	1	0	2053	1	4	0	104	1	0	0	100
fixed	4	1	2	677466	1	2	2	1	0	1112	1	4	0	112	2	0	0	100
fixed	4	1	3	679077	6	4	4	1	0	668	1	4	0	128	3	0	0	100
fixed	4	1	4	680127	2	1	1	1	0	751	1	4	0	104	4	0	0	100
fixed	4	1	5	681285	5	3	3	1	0	854	1	4	0	120	5	0	0	100
fixed	4	1	6	683015	6	4	4	1	0	821	1	4	0	128	6	0	0	100
fixed	4	1	7	684456	3	1	1	1	0	704	1	4	0	104	7	0	0	100
fixed	4	1	8	685950	2	3	3	1	0	784	1	4	0	120	8	0	0	100
fixed	4	1	9	687538	3	2	2	1	0	645	1	4	0	112	9	0	0	100
fixed	4	1	10	688997	1	4	4	1	0	688	1	4	0	128	10	0	0	100
fixed	4	1	11	690288	5	2	2	1	0	889	1	4	0	112	11	0	0	100
fixed	4	1	12	692106	4	3	3	2	0	1060	2	4	0	120	12	0	0	100
fixed	4	2	1	694206	4	1	1	1	0	795	1	4	0	104	13	0	0	100
fixed	4	2	2	695943	1	2	2	1	0	961	1	4	0	112	14	0	0	100
fixed	4	2	3	697617	6	4	4	1	0	626	1	4	0	128	15	0	0	100
fixed	4	2	4	698672	2	1	1	1	0	718	1	4	0	104	16	0	0	100
fixed	4	2	5	700329	5	3	3	1	0	720	1	4	0	120	17	0	0	100
fixed	4	2	6	701553	6	4	4	1	0	780	1	4	0	128	18	0	0	100
fixed	4	2	7	703216	3	1	1	1	0	573	1	4	0	104	19	0	0	100
fixed	4	2	8	704233	2	3	3	1	0	794	1	4	0	120	20	0	0	100
fixed	4	2	9	705944	3	2	2	1	0	802	1	4	0	112	21	0	0	100
fixed	4	2	10	707554	1	4	4	1	0	669	1	4	0	128	22	0	0	100
fixed	4	2	11	709226	5	2	2	1	0	831	1	4	0	112	23	0	0	100
fixed	4	2	12	710814	4	3	3	1	0	811	1	4	0	120	24	0	0	100
fixed	4	3	1	712718	4	1	1	1	0	715	1	4	0	104	25	0	0	100
fixed	4	3	2	713991	1	2	2	1	0	917	1	4	0	112	26	0	0	100
fixed	4	3	3	715845	6	4	4	1	0	614	1	4	0	128	27	0	0	100
fixed	4	3	4	717111	2	1	1	1	0	905	1	4	0	104	28	0	0	100
fixed	4	3	5	718692	5	3	3	1	0	862	1	4	0	120	29	0	0	100
fixed	4	3	6	719856	6	4	4	1	0	845	1	4	0	128	30	0	0	100
fixed	4	3	7	721380	3	1	1	1	0	700	1	4	0	104	31	0	0	100
fixed	4	3	8	722515	2	3	3	1	0	884	1	4	0	120	32	0	0	100
fixed	4	3	9	723835	3	2	2	1	0	692	1	4	0	112	33	0	0	100
fixed	4	3	10	725490	1	4	4	1	0	678	1	4	0	128	34	0	0	100
fixed	4	3	11	727099	5	2	2	1	0	794	1	4	0	112	35	0	0	100
fixed	4	3	12	728722	4	3	3	1	0	1109	1	4	0	120	36	0	0	100
fixed	4	4	1	730562	4	1	1	1	0	535	1	4	0	104	37	0	0	100
fixed	4	4	2	731590	1	2	2	1	0	932	1	4	0	112	38	0	0	100
fixed	4	4	3	733400	6	4	4	1	0	599	1	4	0	128	39	0	0	100
fixed	4	4	4	734572	2	1	1	1	0	845	1	4	0	104	40	0	0	100
fixed	4	4	5	735869	5	3	3	1	0	871	1	4	0	120	41	0	0	100
fixed	4	4	6	737548	6	4	4	1	0	775	1	4	0	128	42	0	0	100
fixed	4	4	7	738841	3	1	1	1	0	761	1	4	0	104	43	0	0	100
fixed	4	4	8	740582	2	3	3	1	0	839	1	4	0	120	44	0	0	100
fixed	4	4	9	741856	3	2	2	1	0	697	1	4	0	112	45	0	0	100
fixed	4	4	10	743176	1	4	4	1	0	769	1	4	0	128	46	0	0	100
fixed	4	4	11	744379	5	2	2	1	0	854	1	4	0	112	47	0	0	100
fixed	4	4	12	746229	4	3	3	1	0	1208	1	4	0	120	48	0	0	100
fixed	4	5	1	748506	4	1	1	1	0	727	1	4	0	104	49	0	0	100
fixed	4	5	2	749873	1	2	2	1	0	997	1	4	0	112	50	0	0	100
fixed	4	5	3	751895	6	4	4	1	0	655	1	4	0	128	51	0	0	100
fixed	4	5	4	753519	2	1	1	1	0	947	1	4	0	104	52	0	0	100
fixed	4	5	5	755166	5	3	3	1	0	813	1	4	0	120	53	0	0	100
fixed	4	5	6	756508	6	4	4	1	0	908	1	4	0	128	54	0	0	100
fixed	4	5	7	758456	3	1	1	1	0	714	1	4	0	104	55	0	0	100
fixed	4	5	8	759466	2	3	3	1	0	759	1	4	0	120	56	0	0	100
fixed	4	5	9	761167	3	2	2	1	0	815	1	4	0	112	57	0	0	100
fixed	4	5	10	763001	1	4	4	1	0	649	1	4	0	128	58	0	0	100
fixed	4	5	11	764210	5	2	2	1	0	814	1	4	0	112	59	0	0	100
fixed	4	5	12	765908	4	3	3	1	0	942	1	4	0	120	60	0	0	100
fixed	4	6	1	767452	4	1	1	1	0	852	1	4	0	104	61	0	0	100
fixed	4	6	2	769235	1	2	2	1	0	1097	1	4	0	112	62	0	0	100
fixed	4	6	3	771109	6	4	4	1	0	633	1	4	0	128	63	0	0	100
fixed	4	6	4	772449	2	1	1	1	0	681	1	4	0	104	64	0	0	100
fixed	4	6	5	773418	5	3	3	1	0	896	1	4	0	120	65	0	0	100
fixed	4	6	6	775087	6	4	4	1	0	961	1	4	0	128	66	0	0	100
fixed	4	6	7	776744	3	1	1	1	0	723	1	4	0	104	67	0	0	100
fixed	4	6	8	778294	2	3	3	1	0	865	1	4	0	120	68	0	0	100
fixed	4	6	9	779918	3	2	2	1	0	893	1	4	0	112	69	0	0	100
fixed	4	6	10	781564	1	4	4	1	0	727	1	4	0	128	70	0	0	100
fixed	4	6	11	782593	5	2	2	1	0	1035	1	4	0	112	71	0	0	100
fixed	4	6	12	784511	4	3	3	1	0	1010	1	4	0	120	72	0	0	100
fixed	4	7	1	786416	4	1	1	1	0	729	1	4	0	104	73	0	0	100
fixed	4	7	2	788083	1	2	2	1	0	899	1	4	0	112	74	0	0	100
fixed	4	7	3	789902	6	4	4	1	0	758	1	4	0	128	75	0	0	100
fixed	4	7	4	791458	2	1	1	1	0	956	1	4	0	104	76	0	0	100
fixed	4	7	5	792781	5	3	3	1	0	972	1	4	0	120	77	0	0	100
fixed	4	7	6	794153	6	4	4	1	0	778	1	4	0	128	78	0	0	100
fixed	4	7	7	795349	3	1	1	1	0	759	1	4	0	104	79	0	0	100
fixed	4	7	8	797131	2	3	0	0	2	0	3	4	0	120	79	0	1	99
fixed	4	7	9	800207	3	2	2	1	0	842	1	4	0	112	80	0	1	99
fixed	4	7	10	801784	1	4	4	1	0	735	1	4	0	128	81	0	1	99
fixed	4	7	11	802979	5	2	2	1	0	1172	1	4	0	112	82	0	1	99
fixed	4	7	12	805105	4	3	3	1	0	802	1	4	0	120	83	0	1	99
fixed	4	8	1	806782	4	1	1	1	0	675	1	4	0	104	84	0	1	99
fixed	4	8	2	808302	1	2	2	1	0	890	1	4	0	112	85	0	1	99
fixed	4	8	3	809955	6	4	4	1	0	692	1	4	0	128	86	0	1	99
fixed	4	8	4	811432	2	1	1	1	0	662	1	4	0	104	87	0	1	99
fixed	4	8	5	813054	5	3	3	1	0	1033	1	4	0	120	88	0	1	99
fixed	4	8	6	814705	6	4	4	1	0	819	1	4	0	128	89	0	1	99
fixed	4	8	7	816374	3	1	1	1	0	1052	1	4	0	104	90	0	1	99
fixed	4	8	8	817988	2	3	3	1	0	1105	1	4	0	120	91	0	1	99
fixed	4	8	9	819932	3	2	2	1	0	782	1	4	0	112	92	0	1	99
fixed	4	8	10	821586	1	4	4	1	0	840	1	4	0	128	93	0	1	99
fixed	4	8	11	823133	5	2	2	1	0	823	1	4	0	112	94	0	1	99
fixed	4	8	12	824916	4	3	3	1	0	1163	1	4	0	120	95	0	1	99
fixed	4	9	1	826781	4	1	1	1	0	716	1	4	0	104	96	0	1	99
fixed	4	9	2	828176	1	2	2	1	0	841	1	4	0	112	97	0	1	99
fixed	4	9	3	829560	6	4	4	1	0	822	1	4	0	128	98	0	1	99
fixed	4	9	4	831208	2	1	1	1	0	792	1	4	0	104	99	0	1	99
fixed	4	9	5	832409	5	3	3	1	0	885	1	4	0	120	100	0	1	99
fixed	4	9	6	834036	6	4	4	1	0	816	1	4	0	128	101	0	1	99
fixed	4	9	7	835479	3	1	1	1	0	1268	1	4	0	104	102	0	1	99
fixed	4	9	8	837493	2	3	3	1	0	982	1	4	0	120	103	0	1	99
fixed	4	9	9	838844	3	2	2	1	0	709	1	4	0	112	104	0	1	99
fixed	4	9	10	840277	1	4	4	1	0	688	1	4	0	128	105	0	1	99
fixed	4	9	11	841652	5	2	2	1	0	926	1	4	0	112	106	0	1	99
fixed	4	9	12	843314	4	3	3	1	0	1256	1	4	0	120	107	0	1	99
fixed	4	10	1	845711	4	1	1	1	0	810	1	4	0	104	108	0	1	99
fixed	4	10	2	846860	1	2	2	1	0	930	1	4	0	112	109	0	1	99
fixed	4	10	3	848783	6	4	4	1	0	632	1	4	0	128	110	0	1	99
fixed	4	10	4	850010	2	1	1	1	0	756	1	4	0	104	111	0	1	99
fixed	4	10	5	851709	5	3	3	1	0	908	1	4	0	120	112	0	1	99
fixed	4	10	6	853594	6	4	4	1	0	788	1	4	0	128	113	0	1	99
fixed	4	10	7	855185	3	1	1	1	0	761	1	4	0	104	114	0	1	99
fixed	4	10	8	856242	2	3	3	1	0	844	1	4	0	120	115	0	1	99
fixed	4	10	9	857417	3	2	2	1	0	914	1	4	0	112	116	0	1	99
fixed	4	10	10	859137	1	4	4	1	0	754	1	4	0	128	117	0	1	99
fixed	4	10	11	860286	5	2	2	1	0	849	1	4	0	112	118	0	1	99
fixed	4	10	12	862164	4	3	3	1	0	1138	1	4	0	120	119	0	1	99
fixed	5	1	1	864171	4	1	1	1	0	252	1	4	0	136	1	0	0	100
fixed	5	1	2	865370	1	2	2	1	0	922	1	4	0	144	2	0	0	100
fixed	5	1	3	866636	6	4	4	1	0	684	1	4	0	160	3	0	0	100
fixed	5	1	4	868304	2	1	1	1	0	773	1	4	0	136	4	0	0	100
fixed	5	1	5	869591	5	3	3	1	0	919	1	4	0	152	5	0	0	100
fixed	5	1	6	871338	6	4	4	1	0	804	1	4	0	160	6	0	0	100
fixed	5	1	7	872763	3	1	1	1	0	664	1	4	0	136	7	0	0	100
fixed	5	1	8	873791	2	3	3	2	0	1453	2	4	0	152	8	0	0	100
fixed	5	1	9	875716	3	2	2	1	0	923	1	4	0	144	9	0	0	100
fixed	5	1	10	876971	1	4	4	1	0	774	1	4	0	160	10	0	0	100
fixed	5	1	11	878069	5	2	2	1	0	1008	1	4	0	144	11	0	0	100
fixed	5	1	12	879412	4	3	3	1	0	871	1	4	0	152	12	0	0	100
fixed	5	2	1	881516	4	1	1	1	0	829	1	4	0	136	13	0	0	100
fixed	5	2	2	883031	1	2	2	1	0	846	1	4	0	144	14	0	0	100
fixed	5	2	3	884752	6	4	4	1	0	717	1	4	0	160	15	0	0	100
fixed	5	2	4	886330	2	1	1	1	0	762	1	4	0	136	16	0	0	100
fixed	5	2	5	887571	5	3	3	1	0	845	1	4	0	152	17	0	0	100
fixed	5	2	6	889345	6	4	4	1	0	1082	1	4	0	160	18	0	0	100
fixed	5	2	7	891445	3	1	1	1	0	993	1	4	0	136	19	0	0	100
fixed	5	2	8	893133	2	3	3	1	0	1298	1	4	0	152	20	0	0	100
fixed	5	2	9	895003	3	2	2	1	0	690	1	4	0	144	21	0	0	100
fixed	5	2	10	896125	1	4	4	1	0	635	1	4	0	160	22	0	0	100
fixed	5	2	11	897222	5	2	2	1	0	924	1	4	0	144	23	0	0	100
fixed	5	2	12	898459	4	3	3	1	0	984	1	4	0	152	24	0	0	100
fixed	5	3	1	900278	4	1	1	1	0	763	1	4	0	136	25	0	0	100
fixed	5	3	2	901536	1	2	2	1	0	854	1	4	0	144	26	0	0	100
fixed	5	3	3	902765	6	4	4	1	0	801	1	4	0	160	27	0	0	100
fixed	5	3	4	904031	2	1	1	1	0	956	1	4	0	136	28	0	0	100
fixed	5	3	5	905594	5	3	3	1	0	898	1	4	0	152	29	0	0	100
fixed	5	3	6	907269	6	4	4	1	0	555	1	4	0	160	30	0	0	100
fixed	5	3	7	908702	3	1	1	1	0	686	1	4	0	136	31	0	0	100
fixed	5	3	8	909973	2	3	3	1	0	912	1	4	0	152	32	0	0	100
fixed	5	3	9	911723	3	2	2	1	0	782	1	4	0	144	33	0	0	100
fixed	5	3	10	913374	1	4	4	1	0	760	1	4	0	160	34	0	0	100
fixed	5	3	11	914613	5	2	2	1	0	899	1	4	0	144	35	0	0	100
fixed	5	3	12	916277	4	3	3	1	0	1053	1	4	0	152	36	0	0	100
fixed	5	4	1	918573	4	1	1	1	0	556	1	4	0	136	37	0	0	100
fixed	5	4	2	919557	1	2	2	1	0	1050	1	4	0	144	38	0	0	100
fixed	5	4	3	920988	6	4	4	1	0	862	1	4	0	160	39	0	0	100
fixed	5	4	4	922764	2	1	1	1	0	834	1	4	0	136	40	0	0	100
fixed	5	4	5	924260	5	3	3	1	0	915	1	4	0	152	41	0	0	100
fixed	5	4	6	925817	6	4	4	1	0	969	1	4	0	160	42	0	0	100
fixed	5	4	7	927316	3	1	1	1	0	906	1	4	0	136	43	0	0	100
fixed	5	4	8	928908	2	3	3	1	0	1206	1	4	0	152	44	0	0	100
fixed	5	4	9	930621	3	2	2	1	0	750	1	4	0	144	45	0	0	100
fixed	5	4	10	932071	1	4	4	1	0	792	1	4	0	160	46	0	0	100
fixed	5	4	11	933541	5	2	2	1	0	898	1	4	0	144	47	0	0	100
fixed	5	4	12	934771	4	3	3	1	0	838	1	4	0	152	48	0	0	100
fixed	5	5	1	936317	4	1	1	1	0	804	1	4	0	136	49	0	0	100
fixed	5	5	2	938036	1	2	2	1	0	1043	1	4	0	144	50	0	0	100
fixed	5	5	3	939725	6	4	4	1	0	812	1	4	0	160	51	0	0	100
fixed	5	5	4	941428	2	1	1	1	0	908	1	4	0	136	52	0	0	100
fixed	5	5	5	943028	5	3	3	1	0	889	1	4	0	152	53	0	0	100
fixed	5	5	6	944502	6	4	4	1	0	825	1	4	0	160	54	0	0	100
fixed	5	5	7	946238	3	1	1	1	0	857	1	4	0	136	55	0	0	100
fixed	5	5	8	947428	2	3	3	1	0	1006	1	4	0	152	56	0	0	100
fixed	5	5	9	948910	3	2	2	1	0	983	1	4	0	144	57	0	0	100
fixed	5	5	10	950470	1	4	4	1	0	781	1	4	0	160	58	0	0	100
fixed	5	5	11	952221	5	2	2	1	0	883	1	4	0	144	59	0	0	100
fixed	5	5	12	953693	4	3	3	1	0	700	1	4	0	152	60	0	0	100
fixed	5	6	1	955380	4	1	1	1	0	533	1	4	0	136	61	0	0	100
fixed	5	6	2	956921	1	2	2	1	0	916	1	4	0	144	62	0	0	100
fixed	5	6	3	958346	6	4	4	1	0	920	1	4	0	160	63	0	0	100
fixed	5	6	4	960169	2	1	1	1	0	1082	1	4	0	136	64	0	0	100
fixed	5	6	5	961909	5	3	3	1	0	897	1	4	0	152	65	0	0	100
fixed	5	6	6	963663	6	4	4	1	0	751	1	4	0	160	66	0	0	100
fixed	5	6	7	964986	3	1	1	1	0	798	1	4	0	136	67	0	0	100
fixed	5	6	8	966432	2	3	3	1	0	801	1	4	0	152	68	0	0	100
fixed	5	6	9	968088	3	2	2	1	0	699	1	4	0	144	69	0	0	100
fixed	5	6	10	969472	1	4	4	1	0	712	1	4	0	160	70	0	0	100
fixed	5	6	11	971148	5	2	2	1	0	922	1	4	0	144	71	0	0	100
fixed	5	6	12	972432	4	3	3	1	0	851	1	4	0	152	72	0	0	100
fixed	5	7	1	973942	4	1	1	1	0	491	1	4	0	136	73	0	0	100
fixed	5	7	2	975337	1	2	2	1	0	912	1	4	0	144	74	0	0	100
fixed	5	7	3	977158	6	4	4	1	0	755	1	4	0	160	75	0	0	100
fixed	5	7	4	978556	2	1	1	1	0	895	1	4	0	136	76	0	0	100
fixed	5	7	5	980230	5	3	3	1	0	1209	1	4	0	152	77	0	0	100
fixed	5	7	6	981846	6	4	4	1	0	804	1	4	0	160	78	0	0	100
fixed	5	7	7	983299	3	1	1	1	0	942	1	4	0	136	79	0	0	100
fixed	5	7	8	984676	2	3	3	1	0	884	1	4	0	152	80	0	0	100
fixed	5	7	9	986398	3	2	2	1	0	715	1	4	0	144	81	0	0	100
fixed	5	7	10	988008	1	4	4	1	0	751	1	4	0	160	82	0	0	100
fixed	5	7	11	989692	5	2	2	1	0	1152	1	4	0	144	83	0	0	100
fixed	5	7	12	991620	4	3	3	1	0	710	1	4	0	152	84	0	0	100
fixed	5	8	1	993524	4	1	1	1	0	517	1	4	0	136	85	0	0	100
fixed	5	8	2	994346	1	2	2	1	0	1131	1	4	0	144	86	0	0	100
fixed	5	8	3	996367	6	4	4	1	0	717	1	4	0	160	87	0	0	100
fixed	5	8	4	997589	2	1	1	1	0	961	1	4	0	136	88	0	0	100
fixed	5	8	5	998930	5	3	3	1	0	897	1	4	0	152	89	0	0	100
fixed	5	8	6	1000808	6	4	4	1	0	841	1	4	0	160	90	0	0	100
fixed	5	8	7	1002672	3	1	1	1	0	754	1	4	0	136	91	0	0	100
fixed	5	8	8	1004127	2	3	3	1	0	941	1	4	0	152	92	0	0	100
fixed	5	8	9	1005583	3	2	2	1	0	783	1	4	0	144	93	0	0	100
fixed	5	8	10	1006716	1	4	4	1	0	855	1	4	0	160	94	0	0	100
fixed	5	8	11	1008081	5	2	2	1	0	829	1	4	0	144	95	0	0	100
fixed	5	8	12	1009563	4	3	3	1	0	870	1	4	0	152	96	0	0	100
fixed	5	9	1	1011167	4	1	1	1	0	546	1	4	0	136	97	0	0	100
fixed	5	9	2	1012482	1	2	2	1	0	907	1	4	0	144	98	0	0	100
fixed	5	9	3	1014184	6	4	4	1	0	699	1	4	0	160	99	0	0	100
fixed	5	9	4	1015692	2	1	1	1	0	914	1	4	0	136	100	0	0	100
fixed	5	9	5	1017229	5	3	3	1	0	954	1	4	0	152	101	0	0	100
fixed	5	9	6	1018561	6	4	4	1	0	953	1	4	0	160	102	0	0	100
fixed	5	9	7	1020063	3	1	1	1	0	930	1	4	0	136	103	0	0	100
fixed	5	9	8	1022025	2	3	3	1	0	966	1	4	0	152	104	0	0	100
fixed	5	9	9	1023612	3	2	2	1	0	627	1	4	0	144	105	0	0	100
fixed	5	9	10	1024724	1	4	4	1	0	796	1	4	0	160	106	0	0	100
fixed	5	9	11	1026267	5	2	2	1	0	811	1	4	0	144	107	0	0	100
fixed	5	9	12	1027585	4	3	3	3	0	1243	2	4	0	152	108	0	0	100
fixed	5	10	1	1029846	4	1	1	1	0	787	1	4	0	136	109	0	0	100
fixed	5	10	2	1031211	1	2	2	1	0	1002	1	4	0	144	110	0	0	100
fixed	5	10	3	1032701	6	4	4	1	0	690	1	4	0	160	111	0	0	100
fixed	5	10	4	1034136	2	1	1	1	0	1286	1	4	0	136	112	0	0	100
fixed	5	10	5	1036147	5	3	3	1	0	864	1	4	0	152	113	0	0	100
fixed	5	10	6	1037818	6	4	4	1	0	713	1	4	0	160	114	0	0	100
fixed	5	10	7	1039163	3	1	1	1	0	769	1	4	0	136	115	0	0	100
fixed	5	10	8	1040495	2	3	3	1	0	936	1	4	0	152	116	0	0	100
fixed	5	10	9	1041803	3	2	2	1	0	713	1	4	0	144	117	0	0	100
fixed	5	10	10	1043096	1	4	4	1	0	786	1	4	0	160	118	0	0	100
fixed	5	10	11	1044259	5	2	2	1	0	1257	1	4	0	144	119	0	0	100
fixed	5	10	12	1045823	4	3	3	1	0	1150	1	4	0	152	120	0	0	100
random	6	1	1	1142420	6	1	1	1	0	1011	1	4	0	168	1	0	0	100
random	6	1	2	1143741	4	4	4	1	0	851	1	4	0	192	2	0	0	100
random	6	1	3	1145110	2	2	2	1	0	785	1	4	0	176	3	0	0	100
random	6	1	4	1146293	3	3	3	1	0	591	1	4	0	184	4	0	0	100
random	6	1	5	1147526	5	2	2	1	0	883	1	4	0	176	5	0	0	100
random	6	1	6	1149399	1	4	4	1	0	596	1	4	0	192	6	0	0	100
random	6	1	7	1150297	6	1	1	1	0	749	1	4	0	168	7	0	0	100
random	6	1	8	1151937	2	3	3	1	0	864	1	4	0	184	8	0	0	100
random	6	1	9	1153195	4	2	2	1	0	619	1	4	0	176	9	0	0	100
random	6	1	10	1154392	1	1	1	1	0	688	1	4	0	168	10	0	0	100
random	6	1	11	1155566	5	4	4	1	0	695	1	4	0	192	11	0	0	100
random	6	1	12	1157176	3	3	3	1	0	738	1	4	0	184	12	0	0	100
random	6	1	13	1158896	5	2	2	1	0	881	1	4	0	176	13	0	0	100
random	6	1	14	1160719	1	4	4	1	0	660	1	4	0	192	14	0	0	100
random	6	1	15	1162379	3	1	1	1	0	558	1	4	0	168	15	0	0	100
random	6	1	16	1163763	4	3	3	1	0	779	1	4	0	184	16	0	0	100
random	6	1	17	1165244	6	4	4	1	0	636	1	4	0	192	17	0	0	100
random	6	1	18	1166762	2	1	1	1	0	748	1	4	0	168	18	0	0	100
random	6	1	19	1168414	5	3	3	1	0	958	1	4	0	184	19	0	0	100
random	6	1	20	1169712	2	2	2	1	0	767	1	4	0	176	20	0	0	100
random	6	1	21	1171080	3	3	3	1	0	853	1	4	0	184	21	0	0	100
random	6	1	22	1172568	6	1	1	1	0	798	1	4	0	168	22	0	0	100
random	6	1	23	1174136	4	2	2	1	0	756	1	4	0	176	23	0	0	100
random	6	1	24	1175572	1	4	4	1	0	599	1	4	0	192	24	0	0	100
random	6	1	25	1176723	4	3	3	1	0	1222	1	4	0	184	25	0	0	100
random	6	1	26	1178485	2	1	1	1	0	708	1	4	0	168	26	0	0	100
random	6	1	27	1179503	5	2	2	1	0	912	1	4	0	176	27	0	0	100
random	6	1	28	1181364	6	4	4	1	0	538	1	4	0	192	28	0	0	100
random	6	1	29	1182500	1	3	3	1	0	914	1	4	0	184	29	0	0	100
random	6	1	30	1184212	5	2	2	1	0	785	1	4	0	176	30	0	0	100
random	6	1	31	1185697	2	1	1	1	0	794	1	4	0	168	31	0	0	100
random	6	1	32	1186995	3	3	3	1	0	907	1	4	0	184	32	0	0	100
random	6	1	33	1188873	6	4	4	1	0	724	1	4	0	192	33	0	0	100
random	6	1	34	1190123	4	2	2	1	0	950	1	4	0	176	34	0	0	100
random	6	1	35	1191728	3	4	4	1	0	610	1	4	0	192	35	0	0	100
random	6	1	36	1192648	1	1	1	1	0	740	1	4	0	168	36	0	0	100
random	6	1	37	1194349	3	4	4	1	0	1131	1	4	0	192	37	0	0	100
random	6	1	38	1196231	5	3	3	1	0	1156	1	4	0	184	38	0	0	100
random	6	1	39	1198271	6	1	1	1	0	694	1	4	0	168	39	0	0	100
random	6	1	40	1199416	1	2	2	1	0	829	1	4	0	176	40	0	0	100
random	6	1	41	1200897	2	3	3	1	0	1070	1	4	0	184	41	0	0	100
random	6	1	42	1202384	4	4	4	1	0	767	1	4	0	192	42	0	0	100
random	6	1	43	1203891	1	2	2	1	0	855	1	4	0	176	43	0	0	100
random	6	1	44	1205441	6	3	3	1	0	670	1	4	0	184	44	0	0	100
random	6	1	45	1206857	3	1	1	1	0	658	1	4	0	168	45	0	0	100
random	6	1	46	1207846	4	4	4	1	0	784	1	4	0	192	46	0	0	100
random	6	1	47	1209199	2	2	2	1	0	1103	1	4	0	176	47	0	0	100
random	6	1	48	1210750	5	1	1	1	0	901	1	4	0	168	48	0	0	100
random	6	1	49	1212193	2	3	3	1	0	1240	1	4	0	184	49	0	0	100
random	6	1	50	1213745	3	1	1	1	0	854	1	4	0	168	50	0	0	100
random	6	1	51	1215003	1	4	4	1	0	657	1	4	0	192	51	0	0	100
random	6	1	52	1216494	5	3	3	1	0	946	1	4	0	184	52	0	0	100
random	6	1	53	1218050	3	2	2	1	0	768	1	4	0	176	53	0	0	100
random	6	1	54	1219777	6	4	4	1	0	710	1	4	0	192	54	0	0	100
random	6	1	55	1220860	4	2	2	1	0	1017	1	4	0	176	55	0	0	100
random	6	1	56	1222865	1	1	1	1	0	668	1	4	0	168	56	0	0	100
random	6	1	57	1224544	5	4	4	1	0	965	1	4	0	192	57	0	0	100
random	6	1	58	1225883	2	1	1	1	0	964	1	4	0	168	58	0	0	100
random	6	1	59	1227357	6	2	2	1	0	886	1	4	0	176	59	0	0	100
random	6	1	60	1228888	4	3	3	1	0	701	1	4	0	184	60	0	0	100
random	6	1	61	1230254	1	2	2	1	0	1155	1	4	0	176	61	0	0	100
random	6	1	62	1232289	6	4	4	1	0	717	1	4	0	192	62	0	0	100
random	6	1	63	1233493	4	1	1	1	0	1209	1	4	0	168	63	0	0	100
random	6	1	64	1235068	2	2	2	1	0	1071	1	4	0	176	64	0	0	100
random	6	1	65	1236723	4	3	3	1	0	1369	1	4	0	184	65	0	0	100
random	6	1	66	1238997	3	1	1	1	0	745	1	4	0	168	66	0	0	100
random	6	1	67	1240320	1	3	3	1	0	897	1	4	0	184	67	0	0	100
random	6	1	68	1241999	5	4	4	1	0	593	1	4	0	192	68	0	0	100
random	6	1	69	1243436	2	2	2	1	0	948	1	4	0	176	69	0	0	100
random	6	1	70	1245148	3	1	1	1	0	788	1	4	0	168	70	0	0	100
random	6	1	71	1246957	5	4	4	1	0	888	1	4	0	192	71	0	0	100
random	6	1	72	1248609	6	3	3	1	0	746	1	4	0	184	72	0	0	100
random	6	1	73	1250621	2	1	1	1	0	700	1	4	0	168	73	0	0	100
random	6	1	74	1252039	5	3	3	1	0	888	1	4	0	184	74	0	0	100
random	6	1	75	1253232	1	4	4	1	0	694	1	4	0	192	75	0	0	100
random	6	1	76	1254797	6	2	2	1	0	779	1	4	0	176	76	0	0	100
random	6	1	77	1255959	2	1	1	2	0	1250	2	4	0	168	77	0	0	100
random	6	1	78	1257592	4	4	4	1	0	749	1	4	0	192	78	0	0	100
random	6	1	79	1259011	3	2	2	1	0	1089	1	4	0	176	79	0	0	100
random	6	1	80	1260401	4	3	0	0	2	0	3	4	0	184	79	0	1	99
random	6	1	81	1263349	1	4	4	1	0	873	1	4	0	192	80	0	1	99
random	6	1	82	1264851	5	1	1	1	0	954	1	4	0	168	81	0	1	99
random	6	1	83	1266130	3	2	2	1	0	827	1	4	0	176	82	0	1	99
random	6	1	84	1267910	6	3	3	1	0	952	1	4	0	184	83	0	1	99
random	6	1	85	1269584	3	2	2	1	0	977	1	4	0	176	84	0	1	99
random	6	1	86	1271134	1	3	3	1	0	840	1	4	0	184	85	0	1	99
random	6	1	87	1272788	4	4	4	1	0	634	1	4	0	192	86	0	1	99
random	6	1	88	1274125	2	1	1	1	0	801	1	4	0	168	87	0	1	99
random	6	1	89	1275444	6	4	4	1	0	833	1	4	0	192	88	0	1	99
random	6	1	90	1276640	3	3	3	1	0	1030	1	4	0	184	89	0	1	99
random	6	1	91	1278473	5	4	4	1	0	944	1	4	0	192	90	0	1	99
random	6	1	92	1280322	1	2	2	1	0	811	1	4	0	176	91	0	1	99
random	6	1	93	1281964	5	1	1	1	0	684	1	4	0	168	92	0	1	99
random	6	1	94	1283468	4	3	3	1	0	781	1	4	0	184	93	0	1	99
random	6	1	95	1285212	6	1	1	1	0	755	1	4	0	168	94	0	1	99
random	6	1	96	1286895	2	2	2	1	0	948	1	4	0	176	95	0	1	99
random	6	1	97	1288414	4	3	3	1	0	1179	1	4	0	184	96	0	1	99
random	6	1	98	1290027	3	2	2	1	0	879	1	4	0	176	97	0	1	99
random	6	1	99	1291649	6	3	3	1	0	883	1	4	0	184	98	0	1	99
random	6	1	100	1293244	1	4	4	1	0	775	1	4	0	192	99	0	1	99
random	6	1	101	1294400	4	1	1	1	0	806	1	4	0	168	100	0	1	99
random	6	1	102	1295568	5	2	2	1	0	1068	1	4	0	176	101	0	1	99
random	6	1	103	1297449	2	4	4	1	0	701	1	4	0	192	102	0	1	99
random	6	1	104	1298688	3	1	1	1	0	1104	1	4	0	168	103	0	1	99
random	6	1	105	1300825	1	3	3	1	0	1174	1	4	0	184	104	0	1	99
random	6	1	106	1302860	2	2	2	1	0	696	1	4	0	176	105	0	1	99
random	6	1	107	1303943	5	4	4	1	0	714	1	4	0	192	106	0	1	99
random	6	1	108	1305455	6	1	1	1	0	714	1	4	0	168	107	0	1	99
random	6	1	109	1306959	5	4	4	1	0	1026	1	4	0	192	108	0	1	99
random	6	1	110	1308374	6	3	3	1	0	926	1	4	0	184	109	0	1	99
random	6	1	111	1309583	2	2	2	1	0	707	1	4	0	176	110	0	1	99
random	6	1	112	1310702	3	1	1	1	0	635	1	4	0	168	111	0	1	99
random	6	1	113	1311875	1	2	2	1	0	1034	1	4	0	176	112	0	1	99
random	6	1	114	1313226	2	3	3	1	0	1216	1	4	0	184	113	0	1	99
random	6	1	115	1315087	3	1	1	1	0	754	1	4	0	168	114	0	1	99
random	6	1	116	1316502	4	4	4	1	0	614	1	4	0	192	115	0	1	99
random	6	1	117	1318064	6	1	1	1	0	996	1	4	0	168	116	0	1	99
random	6	1	118	1319515	5	3	3	2	0	1014	2	4	0	184	117	0	1	99
random	6	1	119	1321512	1	4	4	1	0	761	1	4	0	192	118	0	1	99
random	6	1	120	1323132	4	2	2	1	0	797	1	4	0	176	119	0	1	99
fixed	7	1	1	1325435	4	1	1	1	0	763	1	4	0	200	1	0	0	100
fixed	7	1	2	1327017	1	2	2	1	0	873	1	4	0	208	2	0	0	100
fixed	7	1	3	1328267	6	4	4	1	0	684	1	4	0	224	3	0	0	100
fixed	7	1	4	1329960	2	1	1	1	0	724	1	4	0	200	4	0	0	100
fixed	7	1	5	1331486	5	3	3	1	0	707	1	4	0	216	5	0	0	100
fixed	7	1	6	1332699	6	4	4	1	0	960	1	4	0	224	6	0	0	100
fixed	7	1	7	1334655	3	1	1	1	0	829	1	4	0	200	7	0	0	100
fixed	7	1	8	1335836	2	3	3	1	0	1011	1	4	0	216	8	0	0	100
fixed	7	1	9	1337866	3	2	2	1	0	901	1	4	0	208	9	0	0	100
fixed	7	1	10	1339155	1	4	4	1	0	878	1	4	0	224	10	0	0	100
fixed	7	1	11	1340916	5	2	2	1	0	940	1	4	0	208	11	0	0	100
fixed	7	1	12	1342535	4	3	3	1	0	895	1	4	0	216	12	0	0	100
fixed	7	2	1	1344652	4	1	1	1	0	797	1	4	0	200	1	0	0	8
fixed	7	2	2	1346238	1	2	2	1	0	890	1	4	0	208	2	0	0	14
fixed	7	2	3	1347443	6	4	4	1	0	903	1	4	0	224	3	0	0	20
fixed	7	2	4	1348946	2	1	1	1	0	776	1	4	0	200	4	0	0	25
fixed	7	2	5	1350117	5	3	3	1	0	966	1	4	0	216	5	0	0	29
fixed	7	2	6	1351527	6	4	4	1	0	851	1	4	0	224	6	0	0	33
fixed	7	2	7	1353100	3	1	1	1	0	904	1	4	0	200	7	0	0	37
fixed	7	2	8	1354929	2	3	3	1	0	1130	1	4	0	216	8	0	0	40
fixed	7	2	9	1357011	3	2	2	1	0	786	1	4	0	208	9	0	0	43
fixed	7	2	10	1358629	1	4	4	1	0	678	1	4	0	224	10	0	0	45
fixed	7	2	11	1360138	5	2	2	1	0	941	1	4	0	208	11	0	0	48
fixed	7	2	12	1361801	4	3	3	1	0	839	1	4	0	216	12	0	0	50
fixed	7	3	1	1363498	4	1	1	1	0	831	1	4	0	200	1	0	0	4
fixed	7	3	2	1364772	1	2	2	1	0	881	1	4	0	208	2	0	0	8
fixed	7	3	3	1366048	6	4	4	1	0	764	1	4	0	224	3	0	0	11
fixed	7	3	4	1367465	2	1	1	1	0	663	1	4	0	200	4	0	0	14
fixed	7	3	5	1368914	5	3	3	1	0	890	1	4	0	216	5	0	0	17
fixed	7	3	6	1370676	6	4	4	1	0	784	1	4	0	224	6	0	0	20
fixed	7	3	7	1371886	3	1	1	1	0	972	1	4	0	200	7	0	0	23
fixed	7	3	8	1373347	2	3	3	1	0	862	1	4	0	216	8	0	0	25
fixed	7	3	9	1374605	3	2	2	1	0	673	1	4	0	208	9	0	0	27
fixed	7	3	10	1376163	1	4	4	1	0	783	1	4	0	224	10	0	0	29
fixed	7	3	11	1377641	5	2	2	1	0	808	1	4	0	208	11	0	0	31
fixed	7	3	12	1379024	4	3	3	1	0	854	1	4	0	216	12	0	0	33
fixed	7	4	1	1380490	4	1	1	1	0	567	1	4	0	200	1	0	0	3
fixed	7	4	2	1381512	1	2	2	1	0	844	1	4	0	208	2	0	0	5
fixed	7	4	3	1382764	6	4	4	1	0	807	1	4	0	224	3	0	0	8
fixed	7	4	4	1384083	2	1	1	1	0	703	1	4	0	200	4	0	0	10
fixed	7	4	5	1385091	5	3	3	1	0	941	1	4	0	216	5	0	0	12
fixed	7	4	6	1386661	6	4	4	1	0	794	1	4	0	224	6	0	0	14
fixed	7	4	7	1388079	3	1	1	1	0	902	1	4	0	200	7	0	0	16
fixed	7	4	8	1389927	2	3	3	1	0	904	1	4	0	216	8	0	0	18
fixed	7	4	9	1391242	3	2	2	1	0	616	1	4	0	208	9	0	0	20
fixed	7	4	10	1392592	1	4	4	1	0	647	1	4	0	224	10	0	0	22
fixed	7	4	11	1394174	5	2	2	1	0	932	1	4	0	208	11	0	0	23
fixed	7	4	12	1395405	4	3	3	1	0	1000	1	4	0	216	12	0	0	25
fixed	7	5	1	1397281	4	1	1	1	0	720	1	4	0	200	1	0	0	2
fixed	7	5	2	1398741	1	2	2	1	0	963	1	4	0	208	2	0	0	4
fixed	7	5	3	1400079	6	4	4	1	0	778	1	4	0	224	3	0	0	6
fixed	7	5	4	1401821	2	1	1	1	0	713	1	4	0	200	4	0	0	8
fixed	7	5	5	1403526	5	3	3	1	0	704	1	4	0	216	5	0	0	9
fixed	7	5	6	1404576	6	4	4	1	0	932	1	4	0	224	6	0	0	11
fixed	7	5	7	1406055	3	1	1	1	0	765	1	4	0	200	7	0	0	13
fixed	7	5	8	1407256	2	3	3	1	0	1010	1	4	0	216	8	0	0	14
fixed	7	5	9	1409305	3	2	2	1	0	931	1	4	0	208	9	0	0	16
fixed	7	5	10	1410672	1	4	4	1	0	1033	1	4	0	224	10	0	0	17
fixed	7	5	11	1412221	5	2	2	1	0	792	1	4	0	208	11	0	0	19
fixed	7	5	12	1413531	4	3	3	1	0	848	1	4	0	216	12	0	0	20
fixed	7	6	1	1414924	4	1	1	1	0	837	1	4	0	200	1	0	0	2
fixed	7	6	2	1416773	1	2	2	1	0	1287	1	4	0	208	2	0	0	3
fixed	7	6	3	1418367	6	4	4	1	0	835	1	4	0	224	3	0	0	5
fixed	7	6	4	1420243	2	1	1	1	0	860	1	4	0	200	4	0	0	6
fixed	7	6	5	1421518	5	3	3	1	0	758	1	4	0	216	5	0	0	8
fixed	7	6	6	1422786	6	4	4	1	0	808	1	4	0	224	6	0	0	9
fixed	7	6	7	1424436	3	1	1	1	0	898	1	4	0	200	7	0	0	10
fixed	7	6	8	1425785	2	3	3	1	0	961	1	4	0	216	8	0	0	12
fixed	7	6	9	1427136	3	2	2	1	0	752	1	4	0	208	9	0	0	13
fixed	7	6	10	1428205	1	4	4	1	0	602	1	4	0	224	10	0	0	14
fixed	7	6	11	1429507	5	2	2	1	0	987	1	4	0	208	11	0	0	15
fixed	7	6	12	1431490	4	3	3	1	0	776	1	4	0	216	12	0	0	17
fixed	7	7	1	1433169	4	1	1	1	0	584	1	4	0	200	1	0	0	1
fixed	7	7	2	1434543	1	2	2	1	0	886	1	4	0	208	2	0	0	3
fixed	7	7	3	1435812	6	4	4	1	0	632	1	4	0	224	3	0	0	4
fixed	7	7	4	1436935	2	1	1	1	0	937	1	4	0	200	4	0	0	5
fixed	7	7	5	1438478	5	3	3	1	0	880	1	4	0	216	5	0	0	6
fixed	7	7	6	1439698	6	4	4	1	0	820	1	4	0	224	6	0	0	8
fixed	7	7	7	1441088	3	1	1	1	0	737	1	4	0	200	7	0	0	9
fixed	7	7	8	1442240	2	3	3	1	0	840	1	4	0	216	8	0	0	10
fixed	7	7	9	1444088	3	2	2	1	0	626	1	4	0	208	9	0	0	11
fixed	7	7	10	1445655	1	4	4	1	0	880	1	4	0	224	10	0	0	12
fixed	7	7	11	1447397	5	2	2	1	0	1054	1	4	0	208	11	0	0	13
fixed	7	7	12	1449224	4	3	3	1	0	944	1	4	0	216	12	0	0	14
fixed	7	8	1	1450996	4	1	1	1	0	541	1	4	0	200	1	0	0	1
fixed	7	8	2	1452451	1	2	2	1	0	864	1	4	0	208	2	0	0	2
fixed	7	8	3	1454147	6	4	4	1	0	720	1	4	0	224	3	0	0	3
fixed	7	8	4	1455474	2	1	1	1	0	704	1	4	0	200	4	0	0	5
fixed	7	8	5	1456557	5	3	3	1	0	890	1	4	0	216	5	0	0	6
fixed	7	8	6	1458205	6	4	4	1	0	748	1	4	0	224	6	0	0	7
fixed	7	8	7	1459499	3	1	1	1	0	717	1	4	0	200	7	0	0	8
fixed	7	8	8	1460887	2	3	3	1	0	1034	1	4	0	216	8	0	0	9
fixed	7	8	9	1462881	3	2	2	1	0	686	1	4	0	208	9	0	0	10
fixed	7	8	10	1464020	1	4	4	1	0	766	1	4	0	224	10	0	0	11
fixed	7	8	11	1465475	5	2	2	1	0	1064	1	4	0	208	11	0	0	12
fixed	7	8	12	1466918	4	3	3	1	0	819	1	4	0	216	12	0	0	13
fixed	7	9	1	1468823	4	1	1	2	0	1202	2	4	0	200	1	0	0	1
fixed	7	9	2	1470338	1	2	2	1	0	1298	1	4	0	208	2	0	0	2
fixed	7	9	3	1471997	6	4	4	1	0	724	1	4	0	224	3	0	0	3
fixed	7	9	4	1473710	2	1	1	1	0	835	1	4	0	200	4	0	0	4
fixed	7	9	5	1475029	5	3	3	1	0	948	1	4	0	216	5	0	0	5
fixed	7	9	6	1476781	6	4	4	1	0	809	1	4	0	224	6	0	0	6
fixed	7	9	7	1478535	3	1	1	1	0	1223	1	4	0	200	7	0	0	7
fixed	7	9	8	1480217	2	3	3	1	0	856	1	4	0	216	8	0	0	8
fixed	7	9	9	1482090	3	2	2	1	0	720	1	4	0	208	9	0	0	9
fixed	7	9	10	1483540	1	4	4	1	0	651	1	4	0	224	10	0	0	9
fixed	7	9	11	1485187	5	2	2	1	0	1181	1	4	0	208	11	0	0	10
fixed	7	9	12	1487298	4	3	3	1	0	828	1	4	0	216	12	0	0	11
fixed	7	10	1	1489190	4	1	1	1	0	796	1	4	0	200	1	0	0	1
fixed	7	10	2	1490750	1	2	2	1	0	962	1	4	0	208	2	0	0	2
fixed	7	10	3	1492368	6	4	4	1	0	765	1	4	0	224	3	0	0	3
fixed	7	10	4	1493955	2	1	1	1	0	738	1	4	0	200	4	0	0	4
fixed	7	10	5	1495237	5	3	3	1	0	1075	1	4	0	216	5	0	0	4
fixed	7	10	6	1497283	6	4	4	1	0	885	1	4	0	224	6	0	0	5
fixed	7	10	7	1498872	3	1	1	1	0	1010	1	4	0	200	7	0	0	6
fixed	7	10	8	1500257	2	3	3	1	0	1055	1	4	0	216	8	0	0	7
fixed	7	10	9	1501742	3	2	2	1	0	696	1	4	0	208	9	0	0	8
fixed	7	10	10	1503313	1	4	4	1	0	1398	1	4	0	224	10	0	0	8
fixed	7	10	11	1505428	5	2	2	1	0	924	1	4	0	208	11	0	0	9
fixed	7	10	12	1507265	4	3	3	1	0	950	1	4	0	216	12	0	0	10
