type	block	sequ.	trial	time	Pos.	Color	Button	NumRsp	Resp_1	RT_1	R_Code	Resp_2	RT_2	Trigg.	n_hit	n_inc	n_miss	score_%

random	1	1	1	2407	6	1	1	1	0	1175	1	4	0	8	1	0	0	100
random	1	1	2	4244	4	4	4	1	0	1489	1	4	0	32	2	0	0	100
random	1	1	3	6673	2	2	0	1	2	0	3	4	0	16	2	0	1	67
random	1	1	4	9949	3	3	0	0	2	0	3	4	0	24	2	0	2	50
random	1	1	5	12790	5	2	0	0	2	0	3	4	0	16	2	0	3	40
random	1	1	6	16033	1	4	4	1	0	1414	1	4	0	32	3	0	3	50
random	1	1	7	17975	6	1	1	1	0	1124	1	4	0	8	4	0	3	57
random	1	1	8	19951	2	3	0	2	2	0	3	4	0	24	4	0	4	50
random	1	1	9	22763	4	2	2	1	0	1729	1	4	0	16	5	0	4	56
random	1	1	10	25063	1	1	1	1	0	1511	1	4	0	8	6	0	4	60
random	1	1	11	27317	5	4	4	1	0	1104	1	4	0	32	7	0	4	64
random	1	1	12	28774	3	3	3	1	0	2362	1	4	0	24	8	0	4	67
random	1	1	13	31881	5	2	0	0	2	0	3	4	0	16	8	0	5	62
random	1	1	14	35123	1	4	4	1	0	1309	1	4	0	32	9	0	5	64
random	1	1	15	37183	3	1	1	1	0	2006	1	4	0	8	10	0	5	67
random	1	1	16	39510	4	3	0	1	2	0	3	4	0	24	10	0	6	63
random	1	1	17	42969	6	4	4	1	0	945	1	4	0	32	11	0	6	65
random	1	1	18	44845	2	1	1	1	0	737	1	4	0	8	12	0	6	67
random	1	1	19	45976	5	3	0	0	2	0	3	4	0	24	12	0	7	63
random	1	1	20	49229	2	2	0	1	2	0	3	4	0	16	12	0	8	60
random	1	1	21	52070	3	3	3	1	0	1303	1	4	0	24	13	0	8	62
random	1	1	22	53999	6	1	1	1	0	1286	1	4	0	8	14	0	8	64
random	1	1	23	56288	4	2	2	1	0	1485	1	4	0	16	15	0	8	65
random	1	1	24	58769	1	4	4	1	0	2004	1	4	0	32	16	0	8	67
random	1	1	25	61488	4	3	0	2	2	0	3	4	0	24	16	0	9	64
random	1	1	26	64963	2	1	1	1	0	805	1	4	0	8	17	0	9	65
random	1	1	27	66478	5	2	2	1	0	1413	1	4	0	16	18	0	9	67
random	1	1	28	68310	6	4	4	1	0	1072	1	4	0	32	19	0	9	68
random	1	1	29	70055	1	3	3	1	0	2334	1	4	0	24	20	0	9	69
random	1	1	30	72734	5	2	2	1	0	1508	1	4	0	16	21	0	9	70
random	1	1	31	75101	2	1	1	1	0	968	1	4	0	8	22	0	9	71
random	1	1	32	76861	3	3	3	1	0	2117	1	4	0	24	23	0	9	72
random	1	1	33	79842	6	4	0	1	2	0	3	4	0	32	23	0	10	70
random	1	1	34	82996	4	2	2	1	0	1674	1	4	0	16	24	0	10	71
random	1	1	35	85341	3	4	0	1	2	0	3	4	0	32	24	0	11	69
random	1	1	36	88712	1	1	1	1	0	1256	1	4	0	8	25	0	11	69
random	1	1	37	90910	3	4	4	1	0	1426	1	4	0	32	26	0	11	70
random	1	1	38	93109	5	3	3	1	0	2029	1	4	0	24	27	0	11	71
random	1	1	39	95525	6	1	1	1	0	1279	1	4	0	8	28	0	11	72
random	1	1	40	97635	1	2	2	1	0	1318	1	4	0	16	29	0	11	73
random	1	1	41	99299	2	3	3	1	0	1079	1	4	0	24	30	0	11	73
random	1	1	42	100843	4	4	4	1	0	1470	1	4	0	32	31	0	11	74
random	1	1	43	103074	1	2	2	1	0	1511	1	4	0	16	32	0	11	74
random	1	1	44	105243	6	3	3	1	0	1515	1	4	0	24	33	0	11	75
random	1	1	45	107061	3	1	1	1	0	927	1	4	0	8	34	0	11	76
random	1	1	46	108638	4	4	4	1	0	1067	1	4	0	32	35	0	11	76
random	1	1	47	110435	2	2	2	1	0	1648	1	4	0	16	36	0	11	77
random	1	1	48	112767	5	1	1	1	0	1013	1	4	0	8	37	0	11	77
random	1	1	49	114953	2	3	3	1	0	2344	1	4	0	24	38	0	11	78
random	1	1	50	118234	3	1	1	1	0	965	1	4	0	8	39	0	11	78
random	1	1	51	119548	1	4	4	1	0	1277	1	4	0	32	40	0	11	78
random	1	1	52	121368	5	3	3	1	0	2152	1	4	0	24	41	0	11	79
random	1	1	53	124105	3	2	2	1	0	1749	1	4	0	16	42	0	11	79
random	1	1	54	126286	6	4	4	1	0	1568	1	4	0	32	43	0	11	80
random	1	1	55	128562	4	2	2	1	0	1560	1	4	0	16	44	0	11	80
random	1	1	56	130946	1	1	1	1	0	947	1	4	0	8	45	0	11	80
random	1	1	57	132284	5	4	4	1	0	1010	1	4	0	32	46	0	11	81
random	1	1	58	133866	2	1	1	1	0	1047	1	4	0	8	47	0	11	81
random	1	1	59	135625	6	2	2	1	0	1404	1	4	0	16	48	0	11	81
random	1	1	60	138041	4	3	3	1	0	934	1	4	0	24	49	0	11	82
random	1	1	61	140114	1	2	2	1	0	1718	1	4	0	16	50	0	11	82
random	1	1	62	142359	6	4	4	1	0	1551	1	4	0	32	51	0	11	82
random	1	1	63	144866	4	1	1	1	0	597	1	4	0	8	52	0	11	83
random	1	1	64	146388	2	2	2	1	0	1325	1	4	0	16	53	0	11	83
random	1	1	65	148421	4	3	0	0	2	0	3	4	0	24	53	0	12	82
random	1	1	66	151517	3	1	1	1	0	1027	1	4	0	8	54	0	12	82
random	1	1	67	153073	1	3	3	1	0	1722	1	4	0	24	55	0	12	82
random	1	1	68	155376	5	4	4	1	0	1288	1	4	0	32	56	0	12	82
random	1	1	69	157149	2	2	2	1	0	1389	1	4	0	16	57	0	12	83
random	1	1	70	159565	3	1	1	1	0	982	1	4	0	8	58	0	12	83
random	1	1	71	161048	5	4	4	1	0	1167	1	4	0	32	59	0	12	83
random	1	1	72	162762	6	3	3	1	0	1639	1	4	0	24	60	0	12	83
random	1	1	73	165577	2	1	1	1	0	1088	1	4	0	8	61	0	12	84
random	1	1	74	166965	5	3	0	0	2	0	3	4	0	24	61	0	13	82
random	1	1	75	170044	1	4	4	1	0	1283	1	4	0	32	62	0	13	83
random	1	1	76	172067	6	2	2	1	0	1301	1	4	0	16	63	0	13	83
random	1	1	77	173777	2	1	1	1	0	1005	1	4	0	8	64	0	13	83
random	1	1	78	175488	4	4	4	1	0	868	1	4	0	32	65	0	13	83
random	1	1	79	177345	3	2	2	1	0	1485	1	4	0	16	66	0	13	84
random	1	1	80	179468	4	3	3	1	0	1308	1	4	0	24	67	0	13	84
random	1	1	81	181304	1	4	4	1	0	934	1	4	0	32	68	0	13	84
random	1	1	82	182596	5	1	1	1	0	823	1	4	0	8	69	0	13	84
random	1	1	83	184013	3	2	2	1	0	1515	1	4	0	16	70	0	13	84
random	1	1	84	186062	6	3	3	1	0	1092	1	4	0	24	71	0	13	85
random	1	1	85	187748	3	2	2	1	0	1805	1	4	0	16	72	0	13	85
random	1	1	86	189914	1	3	3	1	0	881	1	4	0	24	73	0	13	85
random	1	1	87	191507	4	4	4	1	0	885	1	4	0	32	74	0	13	85
random	1	1	88	193058	2	1	1	1	0	732	1	4	0	8	75	0	13	85
random	1	1	89	194748	6	4	4	1	0	1068	1	4	0	32	76	0	13	85
random	1	1	90	196157	3	3	3	1	0	1569	1	4	0	24	77	0	13	86
random	1	1	91	198559	5	4	4	1	0	1483	1	4	0	32	78	0	13	86
random	1	1	92	200877	1	2	2	1	0	1641	1	4	0	16	79	0	13	86
random	1	1	93	203392	5	1	1	1	0	846	1	4	0	8	80	0	13	86
random	1	1	94	204600	4	3	3	1	0	2107	1	4	0	24	81	0	13	86
random	1	1	95	207327	6	1	1	2	0	1023	2	4	0	8	82	0	13	86
random	1	1	96	209118	2	2	2	1	0	1316	1	4	0	16	83	0	13	86
random	1	1	97	211389	4	3	3	1	0	1363	1	4	0	24	84	0	13	87
random	1	1	98	213106	3	2	2	1	0	1291	1	4	0	16	85	0	13	87
random	1	1	99	214867	6	3	3	1	0	1480	1	4	0	24	86	0	13	87
random	1	1	100	217327	1	4	4	1	0	1192	1	4	0	32	87	0	13	87
random	1	1	101	219052	4	1	1	1	0	711	1	4	0	8	88	0	13	87
random	1	1	102	220612	5	2	2	1	0	1645	1	4	0	16	89	0	13	87
random	1	1	103	223108	2	4	4	1	0	803	1	4	0	32	90	0	13	87
random	1	1	104	224633	3	1	1	1	0	779	1	4	0	8	91	0	13	88
random	1	1	105	225998	1	3	0	1	2	0	3	4	0	24	91	0	14	87
random	1	1	106	229050	2	2	2	1	0	1535	1	4	0	16	92	0	14	87
random	1	1	107	231367	5	4	4	1	0	998	1	4	0	32	93	0	14	87
random	1	1	108	233301	6	1	1	1	0	588	1	4	0	8	94	0	14	87
random	1	1	109	234897	5	4	4	1	0	896	1	4	0	32	95	0	14	87
random	1	1	110	236804	6	3	3	1	0	1375	1	4	0	24	96	0	14	87
random	1	1	111	238837	2	2	2	1	0	1057	1	4	0	16	97	0	14	87
random	1	1	112	240903	3	1	1	1	0	954	1	4	0	8	98	0	14	88
random	1	1	113	242382	1	2	2	1	0	1467	1	4	0	16	99	0	14	88
random	1	1	114	244249	2	3	3	1	0	1436	1	4	0	24	100	0	14	88
random	1	1	115	246139	3	1	1	1	0	1099	1	4	0	8	101	0	14	88
random	1	1	116	248277	4	4	4	1	0	857	1	4	0	32	102	0	14	88
random	1	1	117	249678	6	1	1	1	0	926	1	4	0	8	103	0	14	88
random	1	1	118	251635	5	3	3	1	0	1227	1	4	0	24	104	0	14	88
random	1	1	119	253374	1	4	4	1	0	993	1	4	0	32	105	0	14	88
random	1	1	120	255398	4	2	2	1	0	1251	1	4	0	16	106	0	14	88
fixed	2	1	1	257801	4	1	1	1	0	629	1	4	0	40	1	0	0	100
fixed	2	1	2	258742	1	2	2	1	0	2350	1	4	0	48	2	0	0	100
fixed	2	1	3	261527	6	4	4	1	0	928	1	4	0	64	3	0	0	100
fixed	2	1	4	263047	2	1	1	1	0	999	1	4	0	40	4	0	0	100
fixed	2	1	5	265032	5	3	3	1	0	1596	1	4	0	56	5	0	0	100
fixed	2	1	6	267018	6	4	4	1	0	1072	1	4	0	64	6	0	0	100
fixed	2	1	7	268639	3	1	1	1	0	763	1	4	0	40	7	0	0	100
fixed	2	1	8	269689	2	3	3	1	0	1214	1	4	0	56	8	0	0	100
fixed	2	1	9	271216	3	2	2	1	0	1254	1	4	0	48	9	0	0	100
fixed	2	1	10	272776	1	4	4	1	0	907	1	4	0	64	10	0	0	100
fixed	2	1	11	273978	5	2	2	1	0	1296	1	4	0	48	11	0	0	100
fixed	2	1	12	275691	4	3	3	1	0	1296	1	4	0	56	12	0	0	100
fixed	2	2	1	277568	4	1	1	1	0	752	1	4	0	40	13	0	0	100
fixed	2	2	2	278999	1	2	2	1	0	1460	1	4	0	48	14	0	0	100
fixed	2	2	3	281114	6	4	4	1	0	1242	1	4	0	64	15	0	0	100
fixed	2	2	4	283396	2	1	1	1	0	785	1	4	0	40	16	0	0	100
fixed	2	2	5	284913	5	3	3	1	0	1370	1	4	0	56	17	0	0	100
fixed	2	2	6	287030	6	4	4	1	0	1056	1	4	0	64	18	0	0	100
fixed	2	2	7	288521	3	1	1	1	0	609	1	4	0	40	19	0	0	100
fixed	2	2	8	290154	2	3	3	1	0	1219	1	4	0	56	20	0	0	100
fixed	2	2	9	291873	3	2	2	1	0	1035	1	4	0	48	21	0	0	100
fixed	2	2	10	293483	1	4	4	1	0	879	1	4	0	64	22	0	0	100
fixed	2	2	11	294667	5	2	2	1	0	1412	1	4	0	48	23	0	0	100
fixed	2	2	12	296728	4	3	3	1	0	1053	1	4	0	56	24	0	0	100
fixed	2	3	1	298971	4	1	1	1	0	886	1	4	0	40	25	0	0	100
fixed	2	3	2	300789	1	2	2	1	0	1481	1	4	0	48	26	0	0	100
fixed	2	3	3	302950	6	4	0	1	2	0	3	4	0	64	26	0	1	96
fixed	2	3	4	305917	2	1	1	1	0	640	1	4	0	40	27	0	1	96
fixed	2	3	5	307544	5	3	3	1	0	1331	1	4	0	56	28	0	1	97
fixed	2	3	6	309639	6	4	4	1	0	1082	1	4	0	64	29	0	1	97
fixed	2	3	7	311213	3	1	1	1	0	648	1	4	0	40	30	0	1	97
fixed	2	3	8	312657	2	3	3	1	0	1498	1	4	0	56	31	0	1	97
fixed	2	3	9	314841	3	2	2	1	0	1310	1	4	0	48	32	0	1	97
fixed	2	3	10	316987	1	4	4	1	0	987	1	4	0	64	33	0	1	97
fixed	2	3	11	318318	5	2	2	1	0	1402	1	4	0	48	34	0	1	97
fixed	2	3	12	320191	4	3	3	1	0	1203	1	4	0	56	35	0	1	97
fixed	2	4	1	322428	4	1	1	1	0	876	1	4	0	40	36	0	1	97
fixed	2	4	2	323915	1	2	2	1	0	2213	1	4	0	48	37	0	1	97
fixed	2	4	3	326550	6	4	4	1	0	1198	1	4	0	64	38	0	1	97
fixed	2	4	4	328424	2	1	1	1	0	758	1	4	0	40	39	0	1	98
fixed	2	4	5	329797	5	3	3	1	0	1092	1	4	0	56	40	0	1	98
fixed	2	4	6	331788	6	4	4	1	0	1280	1	4	0	64	41	0	1	98
fixed	2	4	7	333592	3	1	1	1	0	708	1	4	0	40	42	0	1	98
fixed	2	4	8	334778	2	3	3	1	0	1209	1	4	0	56	43	0	1	98
fixed	2	4	9	336610	3	2	2	1	0	1100	1	4	0	48	44	0	1	98
fixed	2	4	10	338698	1	4	4	1	0	1084	1	4	0	64	45	0	1	98
fixed	2	4	11	340224	5	2	2	1	0	1635	1	4	0	48	46	0	1	98
fixed	2	4	12	342742	4	3	3	1	0	1448	1	4	0	56	47	0	1	98
fixed	2	5	1	345251	4	1	1	1	0	734	1	4	0	40	48	0	1	98
fixed	2	5	2	346853	1	2	2	1	0	1826	1	4	0	48	49	0	1	98
fixed	2	5	3	349506	6	4	4	1	0	1226	1	4	0	64	50	0	1	98
fixed	2	5	4	351232	2	1	1	1	0	824	1	4	0	40	51	0	1	98
fixed	2	5	5	352610	5	3	3	1	0	1254	1	4	0	56	52	0	1	98
fixed	2	5	6	354906	6	4	4	1	0	1133	1	4	0	64	53	0	1	98
fixed	2	5	7	356600	3	1	1	1	0	541	1	4	0	40	54	0	1	98
fixed	2	5	8	357759	2	3	3	1	0	1436	1	4	0	56	55	0	1	98
fixed	2	5	9	359957	3	2	2	1	0	1103	1	4	0	48	56	0	1	98
fixed	2	5	10	361821	1	4	4	1	0	1072	1	4	0	64	57	0	1	98
fixed	2	5	11	363557	5	2	2	1	0	1527	1	4	0	48	58	0	1	98
fixed	2	5	12	365677	4	3	3	1	0	1133	1	4	0	56	59	0	1	98
fixed	2	6	1	367957	4	1	1	1	0	788	1	4	0	40	60	0	1	98
fixed	2	6	2	369549	1	2	2	1	0	1209	1	4	0	48	61	0	1	98
fixed	2	6	3	371673	6	4	4	1	0	1263	1	4	0	64	62	0	1	98
fixed	2	6	4	373450	2	1	1	1	0	939	1	4	0	40	63	0	1	98
fixed	2	6	5	374750	5	3	3	1	0	1061	1	4	0	56	64	0	1	98
fixed	2	6	6	376384	6	4	4	1	0	919	1	4	0	64	65	0	1	98
fixed	2	6	7	378178	3	1	1	1	0	1052	1	4	0	40	66	0	1	99
fixed	2	6	8	379793	2	3	3	1	0	1439	1	4	0	56	67	0	1	99
fixed	2	6	9	382151	3	2	2	1	0	1019	1	4	0	48	68	0	1	99
fixed	2	6	10	383612	1	4	4	1	0	1125	1	4	0	64	69	0	1	99
fixed	2	6	11	385572	5	2	2	1	0	1346	1	4	0	48	70	0	1	99
fixed	2	6	12	387574	4	3	3	1	0	1133	1	4	0	56	71	0	1	99
fixed	2	7	1	389910	4	1	1	1	0	890	1	4	0	40	72	0	1	99
fixed	2	7	2	391645	1	2	2	1	0	1569	1	4	0	48	73	0	1	99
fixed	2	7	3	393703	6	4	0	1	2	0	3	4	0	64	73	0	2	97
fixed	2	7	4	396829	2	1	1	1	0	741	1	4	0	40	74	0	2	97
fixed	2	7	5	398439	5	3	3	1	0	1393	1	4	0	56	75	0	2	97
fixed	2	7	6	400498	6	4	4	1	0	1306	1	4	0	64	76	0	2	97
fixed	2	7	7	402556	3	1	1	1	0	962	1	4	0	40	77	0	2	97
fixed	2	7	8	404096	2	3	3	1	0	1337	1	4	0	56	78	0	2	98
fixed	2	7	9	405872	3	2	2	1	0	1102	1	4	0	48	79	0	2	98
fixed	2	7	10	407433	1	4	4	1	0	1076	1	4	0	64	80	0	2	98
fixed	2	7	11	409504	5	2	2	1	0	1541	1	4	0	48	81	0	2	98
fixed	2	7	12	411938	4	3	3	1	0	1149	1	4	0	56	82	0	2	98
fixed	2	8	1	413819	4	1	1	1	0	1005	1	4	0	40	83	0	2	98
fixed	2	8	2	415837	1	2	2	1	0	1120	1	4	0	48	84	0	2	98
fixed	2	8	3	417286	6	4	4	1	0	979	1	4	0	64	85	0	2	98
fixed	2	8	4	418697	2	1	1	1	0	1199	1	4	0	40	86	0	2	98
fixed	2	8	5	420888	5	3	3	1	0	1290	1	4	0	56	87	0	2	98
fixed	2	8	6	422792	6	4	4	1	0	1169	1	4	0	64	88	0	2	98
fixed	2	8	7	424848	3	1	1	1	0	962	1	4	0	40	89	0	2	98
fixed	2	8	8	426841	2	3	3	1	0	1270	1	4	0	56	90	0	2	98
fixed	2	8	9	428797	3	2	2	1	0	1139	1	4	0	48	91	0	2	98
fixed	2	8	10	430242	1	4	4	1	0	1222	1	4	0	64	92	0	2	98
fixed	2	8	11	431887	5	2	2	1	0	1480	1	4	0	48	93	0	2	98
fixed	2	8	12	433676	4	3	3	1	0	1013	1	4	0	56	94	0	2	98
fixed	2	9	1	435873	4	1	1	1	0	895	1	4	0	40	95	0	2	98
fixed	2	9	2	437623	1	2	2	1	0	1902	1	4	0	48	96	0	2	98
fixed	2	9	3	440528	6	4	4	1	0	1947	1	4	0	64	97	0	2	98
fixed	2	9	4	442936	2	1	1	1	0	605	1	4	0	40	98	0	2	98
fixed	2	9	5	443879	5	3	3	1	0	1340	1	4	0	56	99	0	2	98
fixed	2	9	6	446247	6	4	4	1	0	1160	1	4	0	64	100	0	2	98
fixed	2	9	7	448027	3	1	1	1	0	1069	1	4	0	40	101	0	2	98
fixed	2	9	8	449830	2	3	3	1	0	1096	1	4	0	56	102	0	2	98
fixed	2	9	9	451572	3	2	2	1	0	863	1	4	0	48	103	0	2	98
fixed	2	9	10	453214	1	4	4	1	0	1113	1	4	0	64	104	0	2	98
fixed	2	9	11	455348	5	2	2	1	0	1471	1	4	0	48	105	0	2	98
fixed	2	9	12	457360	4	3	3	1	0	1433	1	4	0	56	106	0	2	98
fixed	2	10	1	459816	4	1	1	1	0	969	1	4	0	40	107	0	2	98
fixed	2	10	2	461794	1	2	2	1	0	1526	1	4	0	48	108	0	2	98
fixed	2	10	3	464159	6	4	4	1	0	1265	1	4	0	64	109	0	2	98
fixed	2	10	4	466398	2	1	1	1	0	858	1	4	0	40	110	0	2	98
fixed	2	10	5	467714	5	3	3	1	0	1251	1	4	0	56	111	0	2	98
fixed	2	10	6	469240	6	4	4	1	0	1162	1	4	0	64	112	0	2	98
fixed	2	10	7	471095	3	1	1	1	0	964	1	4	0	40	113	0	2	98
fixed	2	10	8	472461	2	3	3	1	0	1290	1	4	0	56	114	0	2	98
fixed	2	10	9	474565	3	2	2	1	0	1064	1	4	0	48	115	0	2	98
fixed	2	10	10	476360	1	4	4	1	0	1084	1	4	0	64	116	0	2	98
fixed	2	10	11	477765	5	2	2	1	0	1713	1	4	0	48	117	0	2	98
fixed	2	10	12	479785	4	3	3	1	0	1292	1	4	0	56	118	0	2	98
fixed	3	1	1	482368	4	1	1	1	0	670	1	4	0	72	1	0	0	100
fixed	3	1	2	483477	1	2	0	2	2	0	3	4	0	80	1	0	1	50
fixed	3	1	3	486913	6	4	4	1	0	1413	1	4	0	96	2	0	1	67
fixed	3	1	4	488720	2	1	1	1	0	921	1	4	0	72	3	0	1	75
fixed	3	1	5	490162	5	3	0	0	2	0	3	4	0	88	3	0	2	60
fixed	3	1	6	493164	6	4	4	1	0	1989	1	4	0	96	4	0	2	67
fixed	3	1	7	495487	3	1	1	1	0	2138	1	4	0	72	5	0	2	71
fixed	3	1	8	498605	2	3	3	1	0	1911	1	4	0	88	6	0	2	75
fixed	3	1	9	501338	3	2	2	1	0	1307	1	4	0	80	7	0	2	78
fixed	3	1	10	503353	1	4	4	1	0	1157	1	4	0	96	8	0	2	80
fixed	3	1	11	505528	5	2	2	1	0	1257	1	4	0	80	9	0	2	82
fixed	3	1	12	507242	4	3	3	1	0	1289	1	4	0	88	10	0	2	83
fixed	3	2	1	509454	4	1	1	1	0	1035	1	4	0	72	11	0	2	85
fixed	3	2	2	511183	1	2	2	1	0	1226	1	4	0	80	12	0	2	86
fixed	3	2	3	512829	6	4	4	1	0	2420	1	4	0	96	13	0	2	87
fixed	3	2	4	516079	2	1	1	1	0	995	1	4	0	72	14	0	2	88
fixed	3	2	5	517699	5	3	3	1	0	1326	1	4	0	88	15	0	2	88
fixed	3	2	6	519489	6	4	4	1	0	1466	1	4	0	96	16	0	2	89
fixed	3	2	7	521830	3	1	1	1	0	631	1	4	0	72	17	0	2	89
fixed	3	2	8	523308	2	3	3	1	0	1272	1	4	0	88	18	0	2	90
fixed	3	2	9	525116	3	2	2	1	0	1068	1	4	0	80	19	0	2	90
fixed	3	2	10	526535	1	4	4	1	0	984	1	4	0	96	20	0	2	91
fixed	3	2	11	527851	5	2	2	1	0	1248	1	4	0	80	21	0	2	91
fixed	3	2	12	529776	4	3	3	1	0	998	1	4	0	88	22	0	2	92
fixed	3	3	1	531608	4	1	1	1	0	1280	1	4	0	72	23	0	2	92
fixed	3	3	2	533518	1	2	2	1	0	1232	1	4	0	80	24	0	2	92
fixed	3	3	3	535271	6	4	4	2	0	1958	2	4	0	96	25	0	2	93
fixed	3	3	4	537843	2	1	1	1	0	865	1	4	0	72	26	0	2	93
fixed	3	3	5	539093	5	3	3	1	0	1107	1	4	0	88	27	0	2	93
fixed	3	3	6	541070	6	4	4	1	0	1616	1	4	0	96	28	0	2	93
fixed	3	3	7	542982	3	1	1	1	0	767	1	4	0	72	29	0	2	94
fixed	3	3	8	544629	2	3	3	1	0	1177	1	4	0	88	30	0	2	94
fixed	3	3	9	546329	3	2	2	1	0	1337	1	4	0	80	31	0	2	94
fixed	3	3	10	547987	1	4	4	1	0	1707	1	4	0	96	32	0	2	94
fixed	3	3	11	550406	5	2	2	1	0	1244	1	4	0	80	33	0	2	94
fixed	3	3	12	552181	4	3	3	1	0	873	1	4	0	88	34	0	2	94
fixed	3	4	1	554330	4	1	1	1	0	894	1	4	0	72	35	0	2	95
fixed	3	4	2	555946	1	2	2	1	0	1498	1	4	0	80	36	0	2	95
fixed	3	4	3	558409	6	4	4	1	0	1354	1	4	0	96	37	0	2	95
fixed	3	4	4	560386	2	1	1	1	0	630	1	4	0	72	38	0	2	95
fixed	3	4	5	561786	5	3	3	1	0	1218	1	4	0	88	39	0	2	95
fixed	3	4	6	563842	6	4	4	1	0	1412	1	4	0	96	40	0	2	95
fixed	3	4	7	565779	3	1	1	1	0	697	1	4	0	72	41	0	2	95
fixed	3	4	8	567214	2	3	3	1	0	1348	1	4	0	88	42	0	2	95
fixed	3	4	9	569536	3	2	2	1	0	1346	1	4	0	80	43	0	2	96
fixed	3	4	10	571775	1	4	4	1	0	1091	1	4	0	96	44	0	2	96
fixed	3	4	11	573220	5	2	2	1	0	1318	1	4	0	80	45	0	2	96
fixed	3	4	12	575099	4	3	3	1	0	1215	1	4	0	88	46	0	2	96
fixed	3	5	1	577053	4	1	1	1	0	876	1	4	0	72	47	0	2	96
fixed	3	5	2	578769	1	2	2	1	0	1300	1	4	0	80	48	0	2	96
fixed	3	5	3	580508	6	4	4	1	0	1442	1	4	0	96	49	0	2	96
fixed	3	5	4	582977	2	1	1	1	0	617	1	4	0	72	50	0	2	96
fixed	3	5	5	584079	5	3	3	1	0	1618	1	4	0	88	51	0	2	96
fixed	3	5	6	586661	6	4	4	1	0	1181	1	4	0	96	52	0	2	96
fixed	3	5	7	588504	3	1	1	1	0	503	1	4	0	72	53	0	2	96
fixed	3	5	8	589665	2	3	3	1	0	1022	1	4	0	88	54	0	2	96
fixed	3	5	9	591660	3	2	2	1	0	1313	1	4	0	80	55	0	2	96
fixed	3	5	10	593694	1	4	4	1	0	995	1	4	0	96	56	0	2	97
fixed	3	5	11	595297	5	2	2	1	0	1023	1	4	0	80	57	0	2	97
fixed	3	5	12	596844	4	3	3	1	0	1070	1	4	0	88	58	0	2	97
fixed	3	6	1	598806	4	1	1	1	0	786	1	4	0	72	59	0	2	97
fixed	3	6	2	600508	1	2	2	1	0	1282	1	4	0	80	60	0	2	97
fixed	3	6	3	602270	6	4	4	1	0	1152	1	4	0	96	61	0	2	97
fixed	3	6	4	604194	2	1	1	1	0	879	1	4	0	72	62	0	2	97
fixed	3	6	5	605744	5	3	3	1	0	1901	1	4	0	88	63	0	2	97
fixed	3	6	6	608260	6	4	4	1	0	1130	1	4	0	96	64	0	2	97
fixed	3	6	7	609912	3	1	1	1	0	1004	1	4	0	72	65	0	2	97
fixed	3	6	8	611871	2	3	3	1	0	1529	1	4	0	88	66	0	2	97
fixed	3	6	9	614093	3	2	2	1	0	899	1	4	0	80	67	0	2	97
fixed	3	6	10	615909	1	4	4	1	0	1102	1	4	0	96	68	0	2	97
fixed	3	6	11	617856	5	2	2	1	0	1140	1	4	0	80	69	0	2	97
fixed	3	6	12	619782	4	3	3	1	0	922	1	4	0	88	70	0	2	97
fixed	3	7	1	621428	4	1	1	1	0	764	1	4	0	72	71	0	2	97
fixed	3	7	2	622578	1	2	2	1	0	1268	1	4	0	80	72	0	2	97
fixed	3	7	3	624690	6	4	4	1	0	1138	1	4	0	96	73	0	2	97
fixed	3	7	4	626201	2	1	1	1	0	859	1	4	0	72	74	0	2	97
fixed	3	7	5	627962	5	3	3	1	0	1111	1	4	0	88	75	0	2	97
fixed	3	7	6	629648	6	4	4	2	0	1640	2	4	0	96	76	0	2	97
fixed	3	7	7	631896	3	1	1	1	0	905	1	4	0	72	77	0	2	97
fixed	3	7	8	633156	2	3	0	0	2	0	3	4	0	88	77	0	3	96
fixed	3	7	9	636695	3	2	2	1	0	1302	1	4	0	80	78	0	3	96
fixed	3	7	10	638841	1	4	4	1	0	1083	1	4	0	96	79	0	3	96
fixed	3	7	11	640407	5	2	2	1	0	1288	1	4	0	80	80	0	3	96
fixed	3	7	12	642688	4	3	3	1	0	2080	1	4	0	88	81	0	3	96
fixed	3	8	1	645771	4	1	1	1	0	1525	1	4	0	72	82	0	3	96
fixed	3	8	2	648323	1	2	2	1	0	2074	1	4	0	80	83	0	3	97
fixed	3	8	3	651099	6	4	4	1	0	1443	1	4	0	96	84	0	3	97
fixed	3	8	4	652991	2	1	1	1	0	963	1	4	0	72	85	0	3	97
fixed	3	8	5	654767	5	3	0	0	2	0	3	4	0	88	85	0	4	96
fixed	3	8	6	658066	6	4	4	1	0	1236	1	4	0	96	86	0	4	96
fixed	3	8	7	660306	3	1	1	1	0	814	1	4	0	72	87	0	4	96
fixed	3	8	8	661543	2	3	3	1	0	1353	1	4	0	88	88	0	4	96
fixed	3	8	9	663580	3	2	2	1	0	875	1	4	0	80	89	0	4	96
fixed	3	8	10	665323	1	4	4	1	0	953	1	4	0	96	90	0	4	96
fixed	3	8	11	666737	5	2	2	1	0	1293	1	4	0	80	91	0	4	96
fixed	3	8	12	668906	4	3	3	1	0	1170	1	4	0	88	92	0	4	96
fixed	3	9	1	670966	4	1	1	1	0	882	1	4	0	72	93	0	4	96
fixed	3	9	2	672677	1	2	2	1	0	1890	1	4	0	80	94	0	4	96
fixed	3	9	3	675302	6	4	4	1	0	1227	1	4	0	96	95	0	4	96
fixed	3	9	4	677175	2	1	1	1	0	924	1	4	0	72	96	0	4	96
fixed	3	9	5	678918	5	3	3	1	0	1033	1	4	0	88	97	0	4	96
fixed	3	9	6	680629	6	4	4	1	0	1489	1	4	0	96	98	0	4	96
fixed	3	9	7	682986	3	1	1	1	0	813	1	4	0	72	99	0	4	96
fixed	3	9	8	684577	2	3	3	1	0	1282	1	4	0	88	100	0	4	96
fixed	3	9	9	686318	3	2	2	1	0	2008	1	4	0	80	101	0	4	96
fixed	3	9	10	688797	1	4	4	1	0	887	1	4	0	96	102	0	4	96
fixed	3	9	11	690191	5	2	2	1	0	1284	1	4	0	80	103	0	4	96
fixed	3	9	12	691976	4	3	3	1	0	1417	1	4	0	88	104	0	4	96
fixed	3	10	1	694190	4	1	1	1	0	834	1	4	0	72	105	0	4	96
fixed	3	10	2	695667	1	2	2	1	0	1172	1	4	0	80	106	0	4	96
fixed	3	10	3	697460	6	4	4	1	0	1040	1	4	0	96	107	0	4	96
fixed	3	10	4	699513	2	1	1	1	0	1009	1	4	0	72	108	0	4	96
fixed	3	10	5	700914	5	3	3	1	0	1558	1	4	0	88	109	0	4	96
fixed	3	10	6	703004	6	4	4	1	0	1069	1	4	0	96	110	0	4	96
fixed	3	10	7	704931	3	1	1	1	0	811	1	4	0	72	111	0	4	97
fixed	3	10	8	706266	2	3	3	1	0	1324	1	4	0	88	112	0	4	97
fixed	3	10	9	708075	3	2	2	1	0	1030	1	4	0	80	113	0	4	97
fixed	3	10	10	710064	1	4	4	1	0	1202	1	4	0	96	114	0	4	97
fixed	3	10	11	712134	5	2	2	1	0	1154	1	4	0	80	115	0	4	97
fixed	3	10	12	713972	4	3	3	1	0	1557	1	4	0	88	116	0	4	97
fixed	4	1	1	878139	4	1	0	0	2	0	3	4	0	104	0	0	1	0
fixed	4	1	2	881654	1	2	2	1	0	1495	1	4	0	112	1	0	1	50
fixed	4	1	3	883910	6	4	4	1	0	983	1	4	0	128	2	0	1	67
fixed	4	1	4	885389	2	1	1	1	0	1017	1	4	0	104	3	0	1	75
fixed	4	1	5	886994	5	3	3	1	0	1908	1	4	0	120	4	0	1	80
fixed	4	1	6	889595	6	4	4	1	0	967	1	4	0	128	5	0	1	83
fixed	4	1	7	891282	3	1	1	1	0	903	1	4	0	104	6	0	1	86
fixed	4	1	8	893196	2	3	3	1	0	1462	1	4	0	120	7	0	1	88
fixed	4	1	9	895569	3	2	2	1	0	1721	1	4	0	112	8	0	1	89
fixed	4	1	10	897783	1	4	4	2	0	1212	2	4	0	128	9	0	1	90
fixed	4	1	11	899501	5	2	2	1	0	1267	1	4	0	112	10	0	1	91
fixed	4	1	12	901650	4	3	3	1	0	1520	1	4	0	120	11	0	1	92
fixed	4	2	1	904456	4	1	1	1	0	841	1	4	0	104	12	0	1	92
fixed	4	2	2	905758	1	2	2	1	0	1410	1	4	0	112	13	0	1	93
fixed	4	2	3	907799	6	4	4	1	0	1147	1	4	0	128	14	0	1	93
fixed	4	2	4	909868	2	1	1	1	0	1299	1	4	0	104	15	0	1	94
fixed	4	2	5	911683	5	3	3	1	0	2263	1	4	0	120	16	0	1	94
fixed	4	2	6	914887	6	4	4	1	0	1095	1	4	0	128	17	0	1	94
fixed	4	2	7	916770	3	1	1	1	0	920	1	4	0	104	18	0	1	95
fixed	4	2	8	918187	2	3	3	1	0	1579	1	4	0	120	19	0	1	95
fixed	4	2	9	920732	3	2	2	1	0	1095	1	4	0	112	20	0	1	95
fixed	4	2	10	922415	1	4	4	1	0	1056	1	4	0	128	21	0	1	95
fixed	4	2	11	923770	5	2	2	1	0	1391	1	4	0	112	22	0	1	96
fixed	4	2	12	925942	4	3	3	1	0	1331	1	4	0	120	23	0	1	96
fixed	4	3	1	928130	4	1	1	1	0	958	1	4	0	104	24	0	1	96
fixed	4	3	2	929434	1	2	2	1	0	1655	1	4	0	112	25	0	1	96
fixed	4	3	3	931571	6	4	4	1	0	1572	1	4	0	128	26	0	1	96
fixed	4	3	4	933692	2	1	1	1	0	1042	1	4	0	104	27	0	1	96
fixed	4	3	5	935196	5	3	3	1	0	1419	1	4	0	120	28	0	1	97
fixed	4	3	6	937046	6	4	4	1	0	1125	1	4	0	128	29	0	1	97
fixed	4	3	7	938953	3	1	1	1	0	988	1	4	0	104	30	0	1	97
fixed	4	3	8	940739	2	3	3	1	0	1872	1	4	0	120	31	0	1	97
fixed	4	3	9	943253	3	2	2	1	0	974	1	4	0	112	32	0	1	97
fixed	4	3	10	945050	1	4	4	1	0	874	1	4	0	128	33	0	1	97
fixed	4	3	11	946634	5	2	2	1	0	1343	1	4	0	112	34	0	1	97
fixed	4	3	12	948459	4	3	3	1	0	1257	1	4	0	120	35	0	1	97
fixed	4	4	1	950469	4	1	1	1	0	1940	1	4	0	104	36	0	1	97
fixed	4	4	2	953240	1	2	2	1	0	990	1	4	0	112	37	0	1	97
fixed	4	4	3	955030	6	4	4	1	0	939	1	4	0	128	38	0	1	97
fixed	4	4	4	956901	2	1	1	1	0	971	1	4	0	104	39	0	1	98
fixed	4	4	5	958703	5	3	3	1	0	1175	1	4	0	120	40	0	1	98
fixed	4	4	6	960567	6	4	4	2	0	968	2	4	0	128	41	0	1	98
fixed	4	4	7	962530	3	1	1	1	0	941	1	4	0	104	42	0	1	98
fixed	4	4	8	963827	2	3	3	1	0	1414	1	4	0	120	43	0	1	98
fixed	4	4	9	965684	3	2	2	1	0	976	1	4	0	112	44	0	1	98
fixed	4	4	10	967620	1	4	4	2	0	1486	2	4	0	128	45	0	1	98
fixed	4	4	11	969641	5	2	2	1	0	2160	1	4	0	112	46	0	1	98
fixed	4	4	12	972363	4	3	3	1	0	1325	1	4	0	120	47	0	1	98
fixed	4	5	1	974294	4	1	1	1	0	1003	1	4	0	104	48	0	1	98
fixed	4	5	2	976252	1	2	2	1	0	1312	1	4	0	112	49	0	1	98
fixed	4	5	3	978204	6	4	4	1	0	1045	1	4	0	128	50	0	1	98
fixed	4	5	4	979747	2	1	1	1	0	828	1	4	0	104	51	0	1	98
fixed	4	5	5	981457	5	3	3	1	0	1876	1	4	0	120	52	0	1	98
fixed	4	5	6	984261	6	4	4	1	0	1189	1	4	0	128	53	0	1	98
fixed	4	5	7	986340	3	1	1	1	0	877	1	4	0	104	54	0	1	98
fixed	4	5	8	987639	2	3	3	1	0	1654	1	4	0	120	55	0	1	98
fixed	4	5	9	990242	3	2	2	1	0	1160	1	4	0	112	56	0	1	98
fixed	4	5	10	992366	1	4	4	1	0	1262	1	4	0	128	57	0	1	98
fixed	4	5	11	994105	5	2	2	1	0	1292	1	4	0	112	58	0	1	98
fixed	4	5	12	995845	4	3	3	1	0	1266	1	4	0	120	59	0	1	98
fixed	4	6	1	998303	4	1	1	1	0	882	1	4	0	104	60	0	1	98
fixed	4	6	2	999764	1	2	2	1	0	1532	1	4	0	112	61	0	1	98
fixed	4	6	3	1001736	6	4	4	1	0	1009	1	4	0	128	62	0	1	98
fixed	4	6	4	1003167	2	1	1	1	0	860	1	4	0	104	63	0	1	98
fixed	4	6	5	1005038	5	3	3	1	0	1557	1	4	0	120	64	0	1	98
fixed	4	6	6	1007544	6	4	4	1	0	1331	1	4	0	128	65	0	1	98
fixed	4	6	7	1009823	3	1	1	1	0	698	1	4	0	104	66	0	1	99
fixed	4	6	8	1011322	2	3	3	1	0	1627	1	4	0	120	67	0	1	99
fixed	4	6	9	1013913	3	2	2	1	0	725	1	4	0	112	68	0	1	99
fixed	4	6	10	1015639	1	4	4	1	0	1044	1	4	0	128	69	0	1	99
fixed	4	6	11	1017338	5	2	2	1	0	1164	1	4	0	112	70	0	1	99
fixed	4	6	12	1018882	4	3	3	1	0	1531	1	4	0	120	71	0	1	99
fixed	4	7	1	1020958	4	1	1	1	0	1122	1	4	0	104	72	0	1	99
fixed	4	7	2	1022958	1	2	2	1	0	1382	1	4	0	112	73	0	1	99
fixed	4	7	3	1025248	6	4	4	1	0	1181	1	4	0	128	74	0	1	99
fixed	4	7	4	1027177	2	1	1	1	0	979	1	4	0	104	75	0	1	99
fixed	4	7	5	1029082	5	3	3	1	0	1530	1	4	0	120	76	0	1	99
fixed	4	7	6	1031587	6	4	4	1	0	944	1	4	0	128	77	0	1	99
fixed	4	7	7	1032900	3	1	1	1	0	1153	1	4	0	104	78	0	1	99
fixed	4	7	8	1034927	2	3	3	1	0	1363	1	4	0	120	79	0	1	99
fixed	4	7	9	1036778	3	2	2	1	0	2084	1	4	0	112	80	0	1	99
fixed	4	7	10	1039759	1	4	4	1	0	1054	1	4	0	128	81	0	1	99
fixed	4	7	11	1041593	5	2	2	1	0	1512	1	4	0	112	82	0	1	99
fixed	4	7	12	1043570	4	3	3	1	0	1405	1	4	0	120	83	0	1	99
fixed	4	8	1	1046254	4	1	1	1	0	1003	1	4	0	104	84	0	1	99
fixed	4	8	2	1048306	1	2	2	1	0	1300	1	4	0	112	85	0	1	99
fixed	4	8	3	1050541	6	4	4	1	0	998	1	4	0	128	86	0	1	99
fixed	4	8	4	1052126	2	1	1	1	0	1155	1	4	0	104	87	0	1	99
fixed	4	8	5	1054253	5	3	3	1	0	1353	1	4	0	120	88	0	1	99
fixed	4	8	6	1056144	6	4	4	1	0	912	1	4	0	128	89	0	1	99
fixed	4	8	7	1057792	3	1	1	1	0	1003	1	4	0	104	90	0	1	99
fixed	4	8	8	1059824	2	3	3	1	0	1212	1	4	0	120	91	0	1	99
fixed	4	8	9	1061434	3	2	2	1	0	1120	1	4	0	112	92	0	1	99
fixed	4	8	10	1063044	1	4	4	1	0	908	1	4	0	128	93	0	1	99
fixed	4	8	11	1064779	5	2	2	1	0	1547	1	4	0	112	94	0	1	99
fixed	4	8	12	1066662	4	3	3	1	0	1003	1	4	0	120	95	0	1	99
fixed	4	9	1	1068291	4	1	1	1	0	1078	1	4	0	104	96	0	1	99
fixed	4	9	2	1069831	1	2	2	1	0	1732	1	4	0	112	97	0	1	99
fixed	4	9	3	1072136	6	4	4	1	0	963	1	4	0	128	98	0	1	99
fixed	4	9	4	1073765	2	1	1	1	0	918	1	4	0	104	99	0	1	99
fixed	4	9	5	1075286	5	3	3	1	0	1014	1	4	0	120	100	0	1	99
fixed	4	9	6	1077281	6	4	4	1	0	1025	1	4	0	128	101	0	1	99
fixed	4	9	7	1079037	3	1	1	1	0	743	1	4	0	104	102	0	1	99
fixed	4	9	8	1080517	2	3	3	1	0	992	1	4	0	120	103	0	1	99
fixed	4	9	9	1081855	3	2	2	1	0	775	1	4	0	112	104	0	1	99
fixed	4	9	10	1083115	1	4	4	1	0	1394	1	4	0	128	105	0	1	99
fixed	4	9	11	1084902	5	2	0	2	2	0	3	4	0	112	105	0	2	98
fixed	4	9	12	1088387	4	3	3	1	0	1435	1	4	0	120	106	0	2	98
fixed	4	10	1	1090512	4	1	1	1	0	896	1	4	0	104	107	0	2	98
fixed	4	10	2	1092071	1	2	2	1	0	1295	1	4	0	112	108	0	2	98
fixed	4	10	3	1094300	6	4	4	1	0	1008	1	4	0	128	109	0	2	98
fixed	4	10	4	1095908	2	1	1	1	0	972	1	4	0	104	110	0	2	98
fixed	4	10	5	1097578	5	3	3	1	0	1077	1	4	0	120	111	0	2	98
fixed	4	10	6	1099326	6	4	4	1	0	1203	1	4	0	128	112	0	2	98
fixed	4	10	7	1101520	3	1	1	1	0	686	1	4	0	104	113	0	2	98
fixed	4	10	8	1102927	2	3	3	1	0	1075	1	4	0	120	114	0	2	98
fixed	4	10	9	1104745	3	2	2	1	0	1069	1	4	0	112	115	0	2	98
fixed	4	10	10	1106618	1	4	4	1	0	966	1	4	0	128	116	0	2	98
fixed	4	10	11	1108380	5	2	2	1	0	1028	1	4	0	112	117	0	2	98
fixed	4	10	12	1109995	4	3	3	1	0	855	1	4	0	120	118	0	2	98
fixed	5	1	1	1111812	4	1	1	1	0	1138	1	4	0	136	1	0	0	100
fixed	5	1	2	1113588	1	2	2	1	0	1079	1	4	0	144	2	0	0	100
fixed	5	1	3	1115531	6	4	4	1	0	901	1	4	0	160	3	0	0	100
fixed	5	1	4	1116970	2	1	1	1	0	1032	1	4	0	136	4	0	0	100
fixed	5	1	5	1118613	5	3	3	1	0	1010	1	4	0	152	5	0	0	100
fixed	5	1	6	1120277	6	4	4	1	0	956	1	4	0	160	6	0	0	100
fixed	5	1	7	1121626	3	1	1	1	0	931	1	4	0	136	7	0	0	100
fixed	5	1	8	1123568	2	3	3	1	0	865	1	4	0	152	8	0	0	100
fixed	5	1	9	1125086	3	2	2	1	0	720	1	4	0	144	9	0	0	100
fixed	5	1	10	1126404	1	4	4	1	0	776	1	4	0	160	10	0	0	100
fixed	5	1	11	1128154	5	2	2	1	0	1166	1	4	0	144	11	0	0	100
fixed	5	1	12	1130350	4	3	3	1	0	673	1	4	0	152	12	0	0	100
fixed	5	2	1	1131864	4	1	1	1	0	825	1	4	0	136	13	0	0	100
fixed	5	2	2	1133316	1	2	2	1	0	1043	1	4	0	144	14	0	0	100
fixed	5	2	3	1135041	6	4	4	1	0	762	1	4	0	160	15	0	0	100
fixed	5	2	4	1136589	2	1	1	1	0	817	1	4	0	136	16	0	0	100
fixed	5	2	5	1138273	5	3	3	1	0	1042	1	4	0	152	17	0	0	100
fixed	5	2	6	1139863	6	4	4	1	0	903	1	4	0	160	18	0	0	100
fixed	5	2	7	1141693	3	1	1	1	0	761	1	4	0	136	19	0	0	100
fixed	5	2	8	1142922	2	3	3	1	0	1100	1	4	0	152	20	0	0	100
fixed	5	2	9	1144893	3	2	2	1	0	753	1	4	0	144	21	0	0	100
fixed	5	2	10	1146476	1	4	4	1	0	710	1	4	0	160	22	0	0	100
fixed	5	2	11	1147705	5	2	2	1	0	986	1	4	0	144	23	0	0	100
fixed	5	2	12	1149406	4	3	3	1	0	738	1	4	0	152	24	0	0	100
fixed	5	3	1	1151445	4	1	1	1	0	772	1	4	0	136	25	0	0	100
fixed	5	3	2	1153178	1	2	2	1	0	1187	1	4	0	144	26	0	0	100
fixed	5	3	3	1155293	6	4	4	1	0	897	1	4	0	160	27	0	0	100
fixed	5	3	4	1156515	2	1	1	1	0	973	1	4	0	136	28	0	0	100
fixed	5	3	5	1157845	5	3	3	1	0	877	1	4	0	152	29	0	0	100
fixed	5	3	6	1159475	6	4	4	3	0	1760	2	4	0	160	30	0	0	100
fixed	5	3	7	1161960	3	1	1	1	0	894	1	4	0	136	31	0	0	100
fixed	5	3	8	1163359	2	3	3	1	0	1411	1	4	0	152	32	0	0	100
fixed	5	3	9	1165737	3	2	2	1	0	719	1	4	0	144	33	0	0	100
fixed	5	3	10	1166749	1	4	4	1	0	899	1	4	0	160	34	0	0	100
fixed	5	3	11	1168093	5	2	0	1	2	0	3	4	0	144	34	0	1	97
fixed	5	3	12	1171522	4	3	3	1	0	1250	1	4	0	152	35	0	1	97
fixed	5	4	1	1173315	4	1	1	1	0	837	1	4	0	136	36	0	1	97
fixed	5	4	2	1174944	1	2	2	1	0	985	1	4	0	144	37	0	1	97
fixed	5	4	3	1176420	6	4	4	1	0	930	1	4	0	160	38	0	1	97
fixed	5	4	4	1177979	2	1	1	1	0	832	1	4	0	136	39	0	1	98
fixed	5	4	5	1179450	5	3	3	1	0	1194	1	4	0	152	40	0	1	98
fixed	5	4	6	1181679	6	4	4	1	0	875	1	4	0	160	41	0	1	98
fixed	5	4	7	1183055	3	1	1	1	0	873	1	4	0	136	42	0	1	98
fixed	5	4	8	1184416	2	3	3	1	0	1079	1	4	0	152	43	0	1	98
fixed	5	4	9	1186062	3	2	2	1	0	753	1	4	0	144	44	0	1	98
fixed	5	4	10	1187680	1	4	4	1	0	893	1	4	0	160	45	0	1	98
fixed	5	4	11	1189077	5	2	2	1	0	1106	1	4	0	144	46	0	1	98
fixed	5	4	12	1190682	4	3	3	1	0	910	1	4	0	152	47	0	1	98
fixed	5	5	1	1192730	4	1	1	1	0	959	1	4	0	136	48	0	1	98
fixed	5	5	2	1194653	1	2	2	1	0	1174	1	4	0	144	49	0	1	98
fixed	5	5	3	1196556	6	4	4	1	0	901	1	4	0	160	50	0	1	98
fixed	5	5	4	1197759	2	1	1	1	0	1050	1	4	0	136	51	0	1	98
fixed	5	5	5	1199280	5	3	3	1	0	1482	1	4	0	152	52	0	1	98
fixed	5	5	6	1201244	6	4	4	1	0	911	1	4	0	160	53	0	1	98
fixed	5	5	7	1202885	3	1	1	1	0	769	1	4	0	136	54	0	1	98
fixed	5	5	8	1204344	2	3	0	1	2	0	3	4	0	152	54	0	2	96
fixed	5	5	9	1207670	3	2	2	1	0	1222	1	4	0	144	55	0	2	96
fixed	5	5	10	1209340	1	4	4	1	0	928	1	4	0	160	56	0	2	97
fixed	5	5	11	1210611	5	2	2	1	0	1098	1	4	0	144	57	0	2	97
fixed	5	5	12	1212191	4	3	3	1	0	855	1	4	0	152	58	0	2	97
fixed	5	6	1	1213881	4	1	1	1	0	799	1	4	0	136	59	0	2	97
fixed	5	6	2	1215358	1	2	2	1	0	1217	1	4	0	144	60	0	2	97
fixed	5	6	3	1217150	6	4	4	1	0	893	1	4	0	160	61	0	2	97
fixed	5	6	4	1218975	2	1	1	1	0	855	1	4	0	136	62	0	2	97
fixed	5	6	5	1220665	5	3	3	1	0	1288	1	4	0	152	63	0	2	97
fixed	5	6	6	1222525	6	4	4	1	0	865	1	4	0	160	64	0	2	97
fixed	5	6	7	1223703	3	1	1	1	0	951	1	4	0	136	65	0	2	97
fixed	5	6	8	1225168	2	3	0	2	2	0	3	4	0	152	65	0	3	96
fixed	5	6	9	1228246	3	2	2	1	0	1543	1	4	0	144	66	0	3	96
fixed	5	6	10	1230815	1	4	4	1	0	850	1	4	0	160	67	0	3	96
fixed	5	6	11	1232447	5	2	2	1	0	1093	1	4	0	144	68	0	3	96
fixed	5	6	12	1234410	4	3	3	1	0	1234	1	4	0	152	69	0	3	96
fixed	5	7	1	1236520	4	1	1	1	0	904	1	4	0	136	70	0	3	96
fixed	5	7	2	1237826	1	2	2	1	0	1025	1	4	0	144	71	0	3	96
fixed	5	7	3	1239512	6	4	4	1	0	890	1	4	0	160	72	0	3	96
fixed	5	7	4	1240946	2	1	1	1	0	853	1	4	0	136	73	0	3	96
fixed	5	7	5	1242348	5	3	3	1	0	1322	1	4	0	152	74	0	3	96
fixed	5	7	6	1244354	6	4	4	1	0	1052	1	4	0	160	75	0	3	96
fixed	5	7	7	1246395	3	1	1	1	0	870	1	4	0	136	76	0	3	96
fixed	5	7	8	1248225	2	3	3	1	0	1249	1	4	0	152	77	0	3	96
fixed	5	7	9	1250058	3	2	2	1	0	659	1	4	0	144	78	0	3	96
fixed	5	7	10	1251427	1	4	4	1	0	769	1	4	0	160	79	0	3	96
fixed	5	7	11	1252865	5	2	2	1	0	828	1	4	0	144	80	0	3	96
fixed	5	7	12	1254313	4	3	3	1	0	1343	1	4	0	152	81	0	3	96
fixed	5	8	1	1256319	4	1	1	1	0	770	1	4	0	136	82	0	3	96
fixed	5	8	2	1258098	1	2	2	1	0	1079	1	4	0	144	83	0	3	97
fixed	5	8	3	1259675	6	4	4	1	0	907	1	4	0	160	84	0	3	97
fixed	5	8	4	1261028	2	1	1	1	0	658	1	4	0	136	85	0	3	97
fixed	5	8	5	1262180	5	3	3	2	0	2250	2	4	0	152	86	0	3	97
fixed	5	8	6	1265079	6	4	4	1	0	911	1	4	0	160	87	0	3	97
fixed	5	8	7	1266731	3	1	1	1	0	825	1	4	0	136	88	0	3	97
fixed	5	8	8	1268074	2	3	3	1	0	1216	1	4	0	152	89	0	3	97
fixed	5	8	9	1269861	3	2	2	1	0	740	1	4	0	144	90	0	3	97
fixed	5	8	10	1271457	1	4	4	1	0	873	1	4	0	160	91	0	3	97
fixed	5	8	11	1272843	5	2	2	1	0	1118	1	4	0	144	92	0	3	97
fixed	5	8	12	1274718	4	3	3	1	0	919	1	4	0	152	93	0	3	97
fixed	5	9	1	1276568	4	1	1	1	0	1032	1	4	0	136	94	0	3	97
fixed	5	9	2	1278017	1	2	2	1	0	1427	1	4	0	144	95	0	3	97
fixed	5	9	3	1279741	6	4	4	1	0	842	1	4	0	160	96	0	3	97
fixed	5	9	4	1281021	2	1	1	1	0	884	1	4	0	136	97	0	3	97
fixed	5	9	5	1282925	5	3	3	1	0	1059	1	4	0	152	98	0	3	97
fixed	5	9	6	1284503	6	4	4	1	0	936	1	4	0	160	99	0	3	97
fixed	5	9	7	1285777	3	1	1	1	0	922	1	4	0	136	100	0	3	97
fixed	5	9	8	1287016	2	3	3	1	0	1974	1	4	0	152	101	0	3	97
fixed	5	9	9	1289620	3	2	2	1	0	783	1	4	0	144	102	0	3	97
fixed	5	9	10	1290735	1	4	4	1	0	784	1	4	0	160	103	0	3	97
fixed	5	9	11	1292495	5	2	2	1	0	1246	1	4	0	144	104	0	3	97
fixed	5	9	12	1294355	4	3	3	1	0	951	1	4	0	152	105	0	3	97
fixed	5	10	1	1295983	4	1	1	1	0	1050	1	4	0	136	106	0	3	97
fixed	5	10	2	1297961	1	2	2	1	0	1302	1	4	0	144	107	0	3	97
fixed	5	10	3	1299927	6	4	4	1	0	979	1	4	0	160	108	0	3	97
fixed	5	10	4	1301851	2	1	1	1	0	1185	1	4	0	136	109	0	3	97
fixed	5	10	5	1303540	5	3	3	1	0	1666	1	4	0	152	110	0	3	97
fixed	5	10	6	1305550	6	4	4	1	0	1117	1	4	0	160	111	0	3	97
fixed	5	10	7	1307038	3	1	1	1	0	886	1	4	0	136	112	0	3	97
fixed	5	10	8	1308488	2	3	3	1	0	1448	1	4	0	152	113	0	3	97
fixed	5	10	9	1310644	3	2	2	1	0	653	1	4	0	144	114	0	3	97
fixed	5	10	10	1312073	1	4	4	1	0	1152	1	4	0	160	115	0	3	97
fixed	5	10	11	1314267	5	2	2	1	0	1700	1	4	0	144	116	0	3	97
fixed	5	10	12	1316684	4	3	3	1	0	757	1	4	0	152	117	0	3	98
random	6	1	1	1480700	6	1	0	0	2	0	3	4	0	168	0	0	1	0
random	6	1	2	1483732	4	4	4	1	0	858	1	4	0	192	1	0	1	50
random	6	1	3	1485329	2	2	2	1	0	1254	1	4	0	176	2	0	1	67
random	6	1	4	1487174	3	3	3	1	0	576	1	4	0	184	3	0	1	75
random	6	1	5	1488157	5	2	2	1	0	1030	1	4	0	176	4	0	1	80
random	6	1	6	1490067	1	4	4	1	0	894	1	4	0	192	5	0	1	83
random	6	1	7	1491935	6	1	1	1	0	566	1	4	0	168	6	0	1	86
random	6	1	8	1493276	2	3	3	1	0	1718	1	4	0	184	7	0	1	88
random	6	1	9	1495439	4	2	2	1	0	818	1	4	0	176	8	0	1	89
random	6	1	10	1497099	1	1	1	1	0	684	1	4	0	168	9	0	1	90
random	6	1	11	1498626	5	4	4	1	0	763	1	4	0	192	10	0	1	91
random	6	1	12	1500057	3	3	3	1	0	1303	1	4	0	184	11	0	1	92
random	6	1	13	1502389	5	2	2	1	0	1276	1	4	0	176	12	0	1	92
random	6	1	14	1504416	1	4	4	1	0	1318	1	4	0	192	13	0	1	93
random	6	1	15	1506724	3	1	1	1	0	1028	1	4	0	168	14	0	1	93
random	6	1	16	1508337	4	3	3	1	0	960	1	4	0	184	15	0	1	94
random	6	1	17	1509983	6	4	4	1	0	1106	1	4	0	192	16	0	1	94
random	6	1	18	1511715	2	1	1	1	0	1009	1	4	0	168	17	0	1	94
random	6	1	19	1513049	5	3	3	1	0	1096	1	4	0	184	18	0	1	95
random	6	1	20	1514937	2	2	2	1	0	768	1	4	0	176	19	0	1	95
random	6	1	21	1516498	3	3	3	1	0	910	1	4	0	184	20	0	1	95
random	6	1	22	1518014	6	1	1	1	0	814	1	4	0	168	21	0	1	95
random	6	1	23	1519766	4	2	2	1	0	1180	1	4	0	176	22	0	1	96
random	6	1	24	1521357	1	4	4	1	0	752	1	4	0	192	23	0	1	96
random	6	1	25	1522806	4	3	3	1	0	1475	1	4	0	184	24	0	1	96
random	6	1	26	1524665	2	1	1	1	0	924	1	4	0	168	25	0	1	96
random	6	1	27	1526246	5	2	2	1	0	961	1	4	0	176	26	0	1	96
random	6	1	28	1527798	6	4	4	1	0	792	1	4	0	192	27	0	1	96
random	6	1	29	1529346	1	3	3	1	0	1134	1	4	0	184	28	0	1	97
random	6	1	30	1531273	5	2	2	1	0	789	1	4	0	176	29	0	1	97
random	6	1	31	1532654	2	1	1	1	0	890	1	4	0	168	30	0	1	97
random	6	1	32	1534479	3	3	3	1	0	1229	1	4	0	184	31	0	1	97
random	6	1	33	1536502	6	4	4	1	0	895	1	4	0	192	32	0	1	97
random	6	1	34	1538011	4	2	2	1	0	1375	1	4	0	176	33	0	1	97
random	6	1	35	1540202	3	4	4	1	0	778	1	4	0	192	34	0	1	97
random	6	1	36	1541807	1	1	1	1	0	878	1	4	0	168	35	0	1	97
random	6	1	37	1543674	3	4	4	1	0	863	1	4	0	192	36	0	1	97
random	6	1	38	1545229	5	3	0	1	2	0	3	4	0	184	36	0	2	95
random	6	1	39	1548049	6	1	1	1	0	1070	1	4	0	168	37	0	2	95
random	6	1	40	1550002	1	2	2	1	0	1539	1	4	0	176	38	0	2	95
random	6	1	41	1551886	2	3	3	1	0	796	1	4	0	184	39	0	2	95
random	6	1	42	1553033	4	4	4	1	0	931	1	4	0	192	40	0	2	95
random	6	1	43	1554438	1	2	2	1	0	1431	1	4	0	176	41	0	2	95
random	6	1	44	1556777	6	3	3	1	0	1052	1	4	0	184	42	0	2	95
random	6	1	45	1558537	3	1	1	1	0	1250	1	4	0	168	43	0	2	96
random	6	1	46	1560377	4	4	4	1	0	700	1	4	0	192	44	0	2	96
random	6	1	47	1561721	2	2	2	1	0	1371	1	4	0	176	45	0	2	96
random	6	1	48	1563944	5	1	1	1	0	1189	1	4	0	168	46	0	2	96
random	6	1	49	1565845	2	3	3	1	0	1196	1	4	0	184	47	0	2	96
random	6	1	50	1567613	3	1	1	1	0	1057	1	4	0	168	48	0	2	96
random	6	1	51	1569226	1	4	4	1	0	653	1	4	0	192	49	0	2	96
random	6	1	52	1570792	5	3	3	1	0	2186	1	4	0	184	50	0	2	96
random	6	1	53	1573461	3	2	2	1	0	1049	1	4	0	176	51	0	2	96
random	6	1	54	1574925	6	4	4	1	0	860	1	4	0	192	52	0	2	96
random	6	1	55	1576075	4	2	2	1	0	2371	1	4	0	176	53	0	2	96
random	6	1	56	1579331	1	1	1	1	0	817	1	4	0	168	54	0	2	96
random	6	1	57	1581020	5	4	4	1	0	761	1	4	0	192	55	0	2	96
random	6	1	58	1582249	2	1	1	1	0	1013	1	4	0	168	56	0	2	97
random	6	1	59	1584238	6	2	2	1	0	1417	1	4	0	176	57	0	2	97
random	6	1	60	1586343	4	3	3	1	0	904	1	4	0	184	58	0	2	97
random	6	1	61	1588534	1	2	2	1	0	1187	1	4	0	176	59	0	2	97
random	6	1	62	1590137	6	4	4	1	0	951	1	4	0	192	60	0	2	97
random	6	1	63	1592042	4	1	1	1	0	646	1	4	0	168	61	0	2	97
random	6	1	64	1593539	2	2	2	1	0	1479	1	4	0	176	62	0	2	97
random	6	1	65	1595900	4	3	3	1	0	731	1	4	0	184	63	0	2	97
random	6	1	66	1597123	3	1	0	1	2	0	3	4	0	168	63	0	3	95
random	6	1	67	1600614	1	3	3	1	0	1227	1	4	0	184	64	0	3	96
random	6	1	68	1602705	5	4	4	1	0	907	1	4	0	192	65	0	3	96
random	6	1	69	1604316	2	2	2	1	0	1591	1	4	0	176	66	0	3	96
random	6	1	70	1606564	3	1	1	1	0	895	1	4	0	168	67	0	3	96
random	6	1	71	1608212	5	4	4	1	0	889	1	4	0	192	68	0	3	96
random	6	1	72	1609828	6	3	3	1	0	957	1	4	0	184	69	0	3	96
random	6	1	73	1611456	2	1	1	1	0	856	1	4	0	168	70	0	3	96
random	6	1	74	1612953	5	3	0	1	2	0	3	4	0	184	70	0	4	95
random	6	1	75	1616417	1	4	4	1	0	726	1	4	0	192	71	0	4	95
random	6	1	76	1617444	6	2	2	1	0	1251	1	4	0	176	72	0	4	95
random	6	1	77	1618975	2	1	1	1	0	834	1	4	0	168	73	0	4	95
random	6	1	78	1620753	4	4	4	1	0	895	1	4	0	192	74	0	4	95
random	6	1	79	1622002	3	2	2	1	0	1506	1	4	0	176	75	0	4	95
random	6	1	80	1624046	4	3	3	1	0	1131	1	4	0	184	76	0	4	95
random	6	1	81	1625670	1	4	4	1	0	831	1	4	0	192	77	0	4	95
random	6	1	82	1626927	5	1	1	1	0	657	1	4	0	168	78	0	4	95
random	6	1	83	1628625	3	2	2	1	0	1601	1	4	0	176	79	0	4	95
random	6	1	84	1630639	6	3	3	1	0	1124	1	4	0	184	80	0	4	95
random	6	1	85	1632809	3	2	2	1	0	1536	1	4	0	176	81	0	4	95
random	6	1	86	1635352	1	3	3	1	0	1044	1	4	0	184	82	0	4	95
random	6	1	87	1636974	4	4	4	1	0	1271	1	4	0	192	83	0	4	95
random	6	1	88	1638809	2	1	1	1	0	506	1	4	0	168	84	0	4	95
random	6	1	89	1640251	6	4	4	1	0	1093	1	4	0	192	85	0	4	96
random	6	1	90	1642076	3	3	3	1	0	1984	1	4	0	184	86	0	4	96
random	6	1	91	1644749	5	4	4	1	0	974	1	4	0	192	87	0	4	96
random	6	1	92	1646393	1	2	2	1	0	1160	1	4	0	176	88	0	4	96
random	6	1	93	1648337	5	1	1	1	0	854	1	4	0	168	89	0	4	96
random	6	1	94	1649666	4	3	3	1	0	1614	1	4	0	184	90	0	4	96
random	6	1	95	1652125	6	1	1	1	0	1006	1	4	0	168	91	0	4	96
random	6	1	96	1654119	2	2	2	1	0	1297	1	4	0	176	92	0	4	96
random	6	1	97	1656216	4	3	3	1	0	1480	1	4	0	184	93	0	4	96
random	6	1	98	1658302	3	2	2	1	0	1072	1	4	0	176	94	0	4	96
random	6	1	99	1660398	6	3	3	1	0	1015	1	4	0	184	95	0	4	96
random	6	1	100	1662420	1	4	4	1	0	786	1	4	0	192	96	0	4	96
random	6	1	101	1663783	4	1	1	1	0	592	1	4	0	168	97	0	4	96
random	6	1	102	1665324	5	2	2	1	0	1423	1	4	0	176	98	0	4	96
random	6	1	103	1667566	2	4	4	1	0	1000	1	4	0	192	99	0	4	96
random	6	1	104	1669045	3	1	1	1	0	625	1	4	0	168	100	0	4	96
random	6	1	105	1670628	1	3	3	1	0	1766	1	4	0	184	101	0	4	96
random	6	1	106	1672821	2	2	2	1	0	841	1	4	0	176	102	0	4	96
random	6	1	107	1674038	5	4	4	1	0	1526	1	4	0	192	103	0	4	96
random	6	1	108	1676173	6	1	1	1	0	667	1	4	0	168	104	0	4	96
random	6	1	109	1677836	5	4	4	1	0	925	1	4	0	192	105	0	4	96
random	6	1	110	1679624	6	3	0	1	2	0	3	4	0	184	105	0	5	95
random	6	1	111	1682547	2	2	2	1	0	2325	1	4	0	176	106	0	5	95
random	6	1	112	1685779	3	1	1	1	0	1452	1	4	0	168	107	0	5	96
random	6	1	113	1687776	1	2	2	1	0	1312	1	4	0	176	108	0	5	96
random	6	1	114	1689855	2	3	3	1	0	896	1	4	0	184	109	0	5	96
random	6	1	115	1691348	3	1	1	2	0	1769	2	4	0	168	110	0	5	96
random	6	1	116	1693603	4	4	4	1	0	801	1	4	0	192	111	0	5	96
random	6	1	117	1695406	6	1	1	1	0	997	1	4	0	168	112	0	5	96
random	6	1	118	1696802	5	3	3	1	0	2065	1	4	0	184	113	0	5	96
random	6	1	119	1699365	1	4	4	1	0	1901	1	4	0	192	114	0	5	96
random	6	1	120	1701878	4	2	2	1	0	1234	1	4	0	176	115	0	5	96
fixed	7	1	1	1704649	4	1	1	1	0	821	1	4	0	200	1	0	0	100
fixed	7	1	2	1706505	1	2	2	1	0	1086	1	4	0	208	2	0	0	100
fixed	7	1	3	1708102	6	4	4	1	0	979	1	4	0	224	3	0	0	100
fixed	7	1	4	1709634	2	1	1	1	0	1042	1	4	0	200	4	0	0	100
fixed	7	1	5	1711140	5	3	3	1	0	1226	1	4	0	216	5	0	0	100
fixed	7	1	6	1713055	6	4	4	1	0	913	1	4	0	224	6	0	0	100
fixed	7	1	7	1714756	3	1	1	1	0	745	1	4	0	200	7	0	0	100
fixed	7	1	8	1715940	2	3	3	1	0	1295	1	4	0	216	8	0	0	100
fixed	7	1	9	1717608	3	2	2	1	0	1032	1	4	0	208	9	0	0	100
fixed	7	1	10	1719127	1	4	4	1	0	864	1	4	0	224	10	0	0	100
fixed	7	1	11	1720373	5	2	0	1	2	0	3	4	0	208	10	0	1	91
fixed	7	1	12	1723474	4	3	3	1	0	1080	1	4	0	216	11	0	1	92
fixed	7	2	1	1725252	4	1	1	1	0	820	1	4	0	200	1	0	0	8
fixed	7	2	2	1726907	1	2	2	1	0	1366	1	4	0	208	2	0	0	14
fixed	7	2	3	1729179	6	4	4	1	0	806	1	4	0	224	3	0	0	20
fixed	7	2	4	1730637	2	1	1	1	0	728	1	4	0	200	4	0	0	25
fixed	7	2	5	1731939	5	3	3	1	0	921	1	4	0	216	5	0	0	29
fixed	7	2	6	1733410	6	4	4	1	0	1171	1	4	0	224	6	0	0	33
fixed	7	2	7	1735175	3	1	1	1	0	1056	1	4	0	200	7	0	0	37
fixed	7	2	8	1737104	2	3	3	1	0	1175	1	4	0	216	8	0	0	40
fixed	7	2	9	1738709	3	2	2	1	0	859	1	4	0	208	9	0	0	43
fixed	7	2	10	1740181	1	4	4	1	0	940	1	4	0	224	10	0	0	45
fixed	7	2	11	1741469	5	2	0	1	2	0	3	4	0	208	10	0	1	43
fixed	7	2	12	1744603	4	3	3	1	0	913	1	4	0	216	11	0	1	46
fixed	7	3	1	1746103	4	1	1	1	0	873	1	4	0	200	1	0	0	4
fixed	7	3	2	1747907	1	2	2	1	0	1189	1	4	0	208	2	0	0	8
fixed	7	3	3	1750087	6	4	4	1	0	913	1	4	0	224	3	0	0	11
fixed	7	3	4	1751438	2	1	1	1	0	711	1	4	0	200	4	0	0	14
fixed	7	3	5	1752944	5	3	3	1	0	1200	1	4	0	216	5	0	0	17
fixed	7	3	6	1754902	6	4	4	1	0	909	1	4	0	224	6	0	0	20
fixed	7	3	7	1756235	3	1	1	1	0	972	1	4	0	200	7	0	0	23
fixed	7	3	8	1757997	2	3	3	1	0	1041	1	4	0	216	8	0	0	25
fixed	7	3	9	1759762	3	2	2	1	0	911	1	4	0	208	9	0	0	27
fixed	7	3	10	1761551	1	4	4	1	0	1307	1	4	0	224	10	0	0	29
fixed	7	3	11	1763715	5	2	0	1	2	0	3	4	0	208	10	0	1	29
fixed	7	3	12	1766564	4	3	3	1	0	1455	1	4	0	216	11	0	1	31
fixed	7	4	1	1768943	4	1	1	1	0	890	1	4	0	200	1	0	0	3
fixed	7	4	2	1770592	1	2	2	1	0	1484	1	4	0	208	2	0	0	5
fixed	7	4	3	1773075	6	4	4	1	0	859	1	4	0	224	3	0	0	8
fixed	7	4	4	1774293	2	1	1	1	0	1095	1	4	0	200	4	0	0	10
fixed	7	4	5	1776361	5	3	3	1	0	1200	1	4	0	216	5	0	0	12
fixed	7	4	6	1778236	6	4	4	1	0	1064	1	4	0	224	6	0	0	14
fixed	7	4	7	1779897	3	1	1	1	0	642	1	4	0	200	7	0	0	16
fixed	7	4	8	1780935	2	3	3	1	0	1198	1	4	0	216	8	0	0	18
fixed	7	4	9	1782423	3	2	2	1	0	1119	1	4	0	208	9	0	0	20
fixed	7	4	10	1784259	1	4	4	1	0	786	1	4	0	224	10	0	0	22
fixed	7	4	11	1785555	5	2	2	2	0	1906	2	4	0	208	11	0	0	23
fixed	7	4	12	1788094	4	3	3	1	0	871	1	4	0	216	12	0	0	25
fixed	7	5	1	1790128	4	1	1	1	0	912	1	4	0	200	1	0	0	2
fixed	7	5	2	1791785	1	2	2	1	0	1530	1	4	0	208	2	0	0	4
fixed	7	5	3	1794317	6	4	4	1	0	920	1	4	0	224	3	0	0	6
fixed	7	5	4	1795981	2	1	1	1	0	913	1	4	0	200	4	0	0	8
fixed	7	5	5	1797574	5	3	3	1	0	1110	1	4	0	216	5	0	0	9
fixed	7	5	6	1799190	6	4	4	1	0	977	1	4	0	224	6	0	0	11
fixed	7	5	7	1801178	3	1	1	1	0	1069	1	4	0	200	7	0	0	13
fixed	7	5	8	1802831	2	3	3	1	0	1303	1	4	0	216	8	0	0	14
fixed	7	5	9	1804524	3	2	2	1	0	799	1	4	0	208	9	0	0	16
fixed	7	5	10	1805785	1	4	4	1	0	849	1	4	0	224	10	0	0	17
fixed	7	5	11	1807048	5	2	2	1	0	1340	1	4	0	208	11	0	0	19
fixed	7	5	12	1808847	4	3	3	1	0	728	1	4	0	216	12	0	0	20
fixed	7	6	1	1810545	4	1	1	1	0	856	1	4	0	200	1	0	0	2
fixed	7	6	2	1811845	1	2	2	1	0	1465	1	4	0	208	2	0	0	3
fixed	7	6	3	1814091	6	4	4	1	0	1106	1	4	0	224	3	0	0	5
fixed	7	6	4	1815969	2	1	1	1	0	834	1	4	0	200	4	0	0	6
fixed	7	6	5	1817800	5	3	3	1	0	1141	1	4	0	216	5	0	0	8
fixed	7	6	6	1819411	6	4	4	1	0	1001	1	4	0	224	6	0	0	9
fixed	7	6	7	1820766	3	1	1	1	0	895	1	4	0	200	7	0	0	10
fixed	7	6	8	1822315	2	3	3	1	0	1390	1	4	0	216	8	0	0	12
fixed	7	6	9	1824438	3	2	2	1	0	1524	1	4	0	208	9	0	0	13
fixed	7	6	10	1826387	1	4	4	1	0	993	1	4	0	224	10	0	0	14
fixed	7	6	11	1827769	5	2	2	1	0	1294	1	4	0	208	11	0	0	15
fixed	7	6	12	1829797	4	3	3	1	0	2209	1	4	0	216	12	0	0	17
fixed	7	7	1	1832850	4	1	1	1	0	951	1	4	0	200	1	0	0	1
fixed	7	7	2	1834685	1	2	2	1	0	1361	1	4	0	208	2	0	0	3
fixed	7	7	3	1836665	6	4	4	1	0	902	1	4	0	224	3	0	0	4
fixed	7	7	4	1837974	2	1	1	1	0	1078	1	4	0	200	4	0	0	5
fixed	7	7	5	1839588	5	3	3	1	0	1154	1	4	0	216	5	0	0	6
fixed	7	7	6	1841520	6	4	4	1	0	824	1	4	0	224	6	0	0	8
fixed	7	7	7	1842659	3	1	1	1	0	1008	1	4	0	200	7	0	0	9
fixed	7	7	8	1844605	2	3	3	1	0	1094	1	4	0	216	8	0	0	10
fixed	7	7	9	1846201	3	2	2	1	0	1082	1	4	0	208	9	0	0	11
fixed	7	7	10	1847757	1	4	4	1	0	976	1	4	0	224	10	0	0	12
fixed	7	7	11	1849768	5	2	2	1	0	2419	1	4	0	208	11	0	0	13
fixed	7	7	12	1852875	4	3	3	1	0	1031	1	4	0	216	12	0	0	14
fixed	7	8	1	1854920	4	1	1	1	0	744	1	4	0	200	1	0	0	1
fixed	7	8	2	1855971	1	2	2	1	0	1396	1	4	0	208	2	0	0	2
fixed	7	8	3	1858395	6	4	4	1	0	789	1	4	0	224	3	0	0	3
fixed	7	8	4	1859951	2	1	1	1	0	1027	1	4	0	200	4	0	0	5
fixed	7	8	5	1861876	5	3	3	1	0	1490	1	4	0	216	5	0	0	6
fixed	7	8	6	1864325	6	4	4	1	0	810	1	4	0	224	6	0	0	7
fixed	7	8	7	1865998	3	1	1	1	0	866	1	4	0	200	7	0	0	8
fixed	7	8	8	1867351	2	3	3	1	0	1282	1	4	0	216	8	0	0	9
fixed	7	8	9	1869482	3	2	2	1	0	856	1	4	0	208	9	0	0	10
fixed	7	8	10	1871301	1	4	4	1	0	1603	1	4	0	224	10	0	0	11
fixed	7	8	11	1873273	5	2	2	1	0	1543	1	4	0	208	11	0	0	12
fixed	7	8	12	1875560	4	3	3	1	0	774	1	4	0	216	12	0	0	13
fixed	7	9	1	1877225	4	1	1	1	0	839	1	4	0	200	1	0	0	1
fixed	7	9	2	1878757	1	2	2	1	0	1423	1	4	0	208	2	0	0	2
fixed	7	9	3	1880868	6	4	4	1	0	901	1	4	0	224	3	0	0	3
fixed	7	9	4	1882620	2	1	1	1	0	675	1	4	0	200	4	0	0	4
fixed	7	9	5	1883978	5	3	3	1	0	1642	1	4	0	216	5	0	0	5
fixed	7	9	6	1886516	6	4	4	1	0	1030	1	4	0	224	6	0	0	6
fixed	7	9	7	1888357	3	1	1	1	0	816	1	4	0	200	7	0	0	7
fixed	7	9	8	1889623	2	3	3	1	0	1106	1	4	0	216	8	0	0	8
fixed	7	9	9	1891700	3	2	2	1	0	1115	1	4	0	208	9	0	0	9
fixed	7	9	10	1893624	1	4	4	1	0	1129	1	4	0	224	10	0	0	9
fixed	7	9	11	1895356	5	2	2	1	0	1312	1	4	0	208	11	0	0	10
fixed	7	9	12	1897563	4	3	3	1	0	1482	1	4	0	216	12	0	0	11
fixed	7	10	1	1900248	4	1	1	1	0	736	1	4	0	200	1	0	0	1
fixed	7	10	2	1901585	1	2	2	1	0	1488	1	4	0	208	2	0	0	2
fixed	7	10	3	1903581	6	4	4	1	0	1036	1	4	0	224	3	0	0	3
fixed	7	10	4	1905592	2	1	1	1	0	862	1	4	0	200	4	0	0	4
fixed	7	10	5	1907103	5	3	3	1	0	1654	1	4	0	216	5	0	0	4
fixed	7	10	6	1909080	6	4	4	1	0	1355	1	4	0	224	6	0	0	5
fixed	7	10	7	1910741	3	1	1	1	0	724	1	4	0	200	7	0	0	6
fixed	7	10	8	1912466	2	3	3	1	0	1155	1	4	0	216	8	0	0	7
fixed	7	10	9	1914302	3	2	2	1	0	941	1	4	0	208	9	0	0	8
fixed	7	10	10	1916074	1	4	4	1	0	890	1	4	0	224	10	0	0	8
fixed	7	10	11	1917525	5	2	2	1	0	1413	1	4	0	208	11	0	0	9
fixed	7	10	12	1919613	4	3	3	1	0	796	1	4	0	216	12	0	0	10
