type	block	sequ.	trial	time	Pos.	Color	Button	NumRsp	Resp_1	RT_1	R_Code	Resp_2	RT_2	Trigg.	n_hit	n_inc	n_miss	score_%

random	1	1	1	2814	6	1	1	1	0	896	1	4	0	8	1	0	0	100
random	1	1	2	4051	4	4	4	1	0	1044	1	4	0	32	2	0	0	100
random	1	1	3	6102	2	2	2	1	0	1421	1	4	0	16	3	0	0	100
random	1	1	4	8404	3	3	3	1	0	508	1	4	0	24	4	0	0	100
random	1	1	5	9770	5	2	0	1	2	0	3	4	0	16	4	0	1	80
random	1	1	6	13204	1	4	4	1	0	992	1	4	0	32	5	0	1	83
random	1	1	7	14620	6	1	1	1	0	740	1	4	0	8	6	0	1	86
random	1	1	8	16103	2	3	3	1	0	1789	1	4	0	24	7	0	1	88
random	1	1	9	18748	4	2	2	1	0	1414	1	4	0	16	8	0	1	89
random	1	1	10	20708	1	1	1	1	0	794	1	4	0	8	9	0	1	90
random	1	1	11	22147	5	4	4	1	0	957	1	4	0	32	10	0	1	91
random	1	1	12	23586	3	3	3	1	0	1680	1	4	0	24	11	0	1	92
random	1	1	13	26139	5	2	2	1	0	1180	1	4	0	16	12	0	1	92
random	1	1	14	28258	1	4	4	2	0	1555	2	4	0	32	13	0	1	93
random	1	1	15	30353	3	1	1	1	0	978	1	4	0	8	14	0	1	93
random	1	1	16	31840	4	3	3	1	0	1427	1	4	0	24	15	0	1	94
random	1	1	17	34082	6	4	4	1	0	1756	1	4	0	32	16	0	1	94
random	1	1	18	36700	2	1	1	1	0	781	1	4	0	8	17	0	1	94
random	1	1	19	38023	5	3	3	1	0	1797	1	4	0	24	18	0	1	95
random	1	1	20	40598	2	2	2	1	0	1960	1	4	0	16	19	0	1	95
random	1	1	21	43420	3	3	3	1	0	1368	1	4	0	24	20	0	1	95
random	1	1	22	45788	6	1	1	1	0	1004	1	4	0	8	21	0	1	95
random	1	1	23	47653	4	2	2	1	0	1285	1	4	0	16	22	0	1	96
random	1	1	24	49238	1	4	4	1	0	1114	1	4	0	32	23	0	1	96
random	1	1	25	51335	4	3	3	1	0	1041	1	4	0	24	24	0	1	96
random	1	1	26	53192	2	1	1	1	0	1090	1	4	0	8	25	0	1	96
random	1	1	27	54741	5	2	2	1	0	2361	1	4	0	16	26	0	1	96
random	1	1	28	57898	6	4	4	1	0	955	1	4	0	32	27	0	1	96
random	1	1	29	59427	1	3	3	1	0	1218	1	4	0	24	28	0	1	97
random	1	1	30	61148	5	2	2	1	0	1274	1	4	0	16	29	0	1	97
random	1	1	31	63072	2	1	1	1	0	1160	1	4	0	8	30	0	1	97
random	1	1	32	64745	3	3	3	1	0	1473	1	4	0	24	31	0	1	97
random	1	1	33	66946	6	4	4	1	0	972	1	4	0	32	32	0	1	97
random	1	1	34	68483	4	2	2	1	0	1139	1	4	0	16	33	0	1	97
random	1	1	35	70623	3	4	4	1	0	1544	1	4	0	32	34	0	1	97
random	1	1	36	72933	1	1	1	1	0	727	1	4	0	8	35	0	1	97
random	1	1	37	74576	3	4	4	1	0	873	1	4	0	32	36	0	1	97
random	1	1	38	76319	5	3	3	1	0	1527	1	4	0	24	37	0	1	97
random	1	1	39	78823	6	1	1	1	0	965	1	4	0	8	38	0	1	97
random	1	1	40	80209	1	2	2	1	0	1202	1	4	0	16	39	0	1	98
random	1	1	41	82434	2	3	3	1	0	1092	1	4	0	24	40	0	1	98
random	1	1	42	84183	4	4	4	1	0	1234	1	4	0	32	41	0	1	98
random	1	1	43	86017	1	2	2	1	0	1205	1	4	0	16	42	0	1	98
random	1	1	44	88119	6	3	3	1	0	1091	1	4	0	24	43	0	1	98
random	1	1	45	89711	3	1	1	1	0	1167	1	4	0	8	44	0	1	98
random	1	1	46	91549	4	4	4	1	0	1018	1	4	0	32	45	0	1	98
random	1	1	47	93065	2	2	2	1	0	2066	1	4	0	16	46	0	1	98
random	1	1	48	95871	5	1	1	1	0	1211	1	4	0	8	47	0	1	98
random	1	1	49	98150	2	3	3	1	0	1282	1	4	0	24	48	0	1	98
random	1	1	50	99958	3	1	1	1	0	1022	1	4	0	8	49	0	1	98
random	1	1	51	101468	1	4	4	1	0	958	1	4	0	32	50	0	1	98
random	1	1	52	103104	5	3	3	1	0	2385	1	4	0	24	51	0	1	98
random	1	1	53	106515	3	2	2	1	0	968	1	4	0	16	52	0	1	98
random	1	1	54	107988	6	4	4	1	0	1313	1	4	0	32	53	0	1	98
random	1	1	55	110239	4	2	2	1	0	2098	1	4	0	16	54	0	1	98
random	1	1	56	112670	1	1	1	1	0	1155	1	4	0	8	55	0	1	98
random	1	1	57	114749	5	4	4	1	0	1123	1	4	0	32	56	0	1	98
random	1	1	58	116846	2	1	1	1	0	1106	1	4	0	8	57	0	1	98
random	1	1	59	118425	6	2	2	1	0	1168	1	4	0	16	58	0	1	98
random	1	1	60	120227	4	3	3	1	0	963	1	4	0	24	59	0	1	98
random	1	1	61	122276	1	2	2	1	0	1308	1	4	0	16	60	0	1	98
random	1	1	62	124249	6	4	4	1	0	2385	1	4	0	32	61	0	1	98
random	1	1	63	127233	4	1	1	1	0	835	1	4	0	8	62	0	1	98
random	1	1	64	128512	2	2	2	1	0	1444	1	4	0	16	63	0	1	98
random	1	1	65	130306	4	3	3	1	0	857	1	4	0	24	64	0	1	98
random	1	1	66	131837	3	1	1	1	0	1071	1	4	0	8	65	0	1	98
random	1	1	67	133922	1	3	3	1	0	1223	1	4	0	24	66	0	1	99
random	1	1	68	135791	5	4	4	1	0	1064	1	4	0	32	67	0	1	99
random	1	1	69	137675	2	2	2	1	0	1304	1	4	0	16	68	0	1	99
random	1	1	70	139692	3	1	1	1	0	947	1	4	0	8	69	0	1	99
random	1	1	71	141426	5	4	4	1	0	1057	1	4	0	32	70	0	1	99
random	1	1	72	142943	6	3	3	1	0	1313	1	4	0	24	71	0	1	99
random	1	1	73	145149	2	1	1	1	0	1012	1	4	0	8	72	0	1	99
random	1	1	74	146480	5	3	3	1	0	1380	1	4	0	24	73	0	1	99
random	1	1	75	148230	1	4	4	2	0	1953	2	4	0	32	74	0	1	99
random	1	1	76	150999	6	2	2	1	0	1292	1	4	0	16	75	0	1	99
random	1	1	77	152643	2	1	1	1	0	1134	1	4	0	8	76	0	1	99
random	1	1	78	154781	4	4	4	1	0	972	1	4	0	32	77	0	1	99
random	1	1	79	156050	3	2	0	0	2	0	3	4	0	16	77	0	2	97
random	1	1	80	159189	4	3	0	0	2	0	3	4	0	24	77	0	3	96
random	1	1	81	162181	1	4	4	1	0	1186	1	4	0	32	78	0	3	96
random	1	1	82	163707	5	1	1	1	0	1306	1	4	0	8	79	0	3	96
random	1	1	83	165785	3	2	2	1	0	1706	1	4	0	16	80	0	3	96
random	1	1	84	168037	6	3	3	1	0	1050	1	4	0	24	81	0	3	96
random	1	1	85	169709	3	2	2	1	0	1163	1	4	0	16	82	0	3	96
random	1	1	86	171489	1	3	3	1	0	1032	1	4	0	24	83	0	3	97
random	1	1	87	172959	4	4	4	1	0	1146	1	4	0	32	84	0	3	97
random	1	1	88	174450	2	1	1	1	0	1083	1	4	0	8	85	0	3	97
random	1	1	89	176312	6	4	4	1	0	1076	1	4	0	32	86	0	3	97
random	1	1	90	177734	3	3	3	1	0	1704	1	4	0	24	87	0	3	97
random	1	1	91	180333	5	4	4	1	0	1273	1	4	0	32	88	0	3	97
random	1	1	92	181958	1	2	2	1	0	1365	1	4	0	16	89	0	3	97
random	1	1	93	184180	5	1	1	1	0	1238	1	4	0	8	90	0	3	97
random	1	1	94	186288	4	3	3	1	0	1077	1	4	0	24	91	0	3	97
random	1	1	95	187812	6	1	1	1	0	1141	1	4	0	8	92	0	3	97
random	1	1	96	189500	2	2	2	1	0	1397	1	4	0	16	93	0	3	97
random	1	1	97	192181	4	3	3	1	0	1212	1	4	0	24	94	0	3	97
random	1	1	98	193953	3	2	2	1	0	1256	1	4	0	16	95	0	3	97
random	1	1	99	195995	6	3	3	1	0	1034	1	4	0	24	96	0	3	97
random	1	1	100	197998	1	4	4	1	0	1205	1	4	0	32	97	0	3	97
random	1	1	101	199766	4	1	1	1	0	746	1	4	0	8	98	0	3	97
random	1	1	102	201064	5	2	2	1	0	1380	1	4	0	16	99	0	3	97
random	1	1	103	203403	2	4	4	1	0	1193	1	4	0	32	100	0	3	97
random	1	1	104	205243	3	1	1	1	0	1059	1	4	0	8	101	0	3	97
random	1	1	105	206789	1	3	0	0	2	0	3	4	0	24	101	0	4	96
random	1	1	106	209909	2	2	2	1	0	1189	1	4	0	16	102	0	4	96
random	1	1	107	211737	5	4	4	1	0	1263	1	4	0	32	103	0	4	96
random	1	1	108	213481	6	1	1	1	0	957	1	4	0	8	104	0	4	96
random	1	1	109	215304	5	4	4	1	0	952	1	4	0	32	105	0	4	96
random	1	1	110	217041	6	3	0	1	2	0	3	4	0	24	105	0	5	95
random	1	1	111	219983	2	2	2	1	0	1314	1	4	0	16	106	0	5	95
random	1	1	112	222230	3	1	1	1	0	1475	1	4	0	8	107	0	5	96
random	1	1	113	224136	1	2	2	1	0	1218	1	4	0	16	108	0	5	96
random	1	1	114	226189	2	3	3	1	0	1227	1	4	0	24	109	0	5	96
random	1	1	115	227861	3	1	1	1	0	1061	1	4	0	8	110	0	5	96
random	1	1	116	229209	4	4	4	1	0	1427	1	4	0	32	111	0	5	96
random	1	1	117	231008	6	1	1	1	0	1087	1	4	0	8	112	0	5	96
random	1	1	118	232589	5	3	0	0	2	0	3	4	0	24	112	0	6	95
random	1	1	119	236065	1	4	4	1	0	1577	1	4	0	32	113	0	6	95
random	1	1	120	238402	4	2	2	1	0	1558	1	4	0	16	114	0	6	95
fixed	2	1	1	240865	4	1	1	1	0	1725	1	4	0	40	1	0	0	100
fixed	2	1	2	243167	1	2	0	1	2	0	3	4	0	48	1	0	1	50
fixed	2	1	3	246301	6	4	4	1	0	951	1	4	0	64	2	0	1	67
fixed	2	1	4	247863	2	1	1	1	0	838	1	4	0	40	3	0	1	75
fixed	2	1	5	249530	5	3	3	1	0	1647	1	4	0	56	4	0	1	80
fixed	2	1	6	251602	6	4	4	1	0	1007	1	4	0	64	5	0	1	83
fixed	2	1	7	253100	3	1	1	1	0	919	1	4	0	40	6	0	1	86
fixed	2	1	8	254585	2	3	3	1	0	1272	1	4	0	56	7	0	1	88
fixed	2	1	9	256549	3	2	2	1	0	1062	1	4	0	48	8	0	1	89
fixed	2	1	10	258204	1	4	4	1	0	1048	1	4	0	64	9	0	1	90
fixed	2	1	11	259537	5	2	2	1	0	1911	1	4	0	48	10	0	1	91
fixed	2	1	12	262141	4	3	3	1	0	1433	1	4	0	56	11	0	1	92
fixed	2	2	1	264675	4	1	1	1	0	1037	1	4	0	40	12	0	1	92
fixed	2	2	2	266389	1	2	2	1	0	1557	1	4	0	48	13	0	1	93
fixed	2	2	3	268296	6	4	4	1	0	1020	1	4	0	64	14	0	1	93
fixed	2	2	4	269635	2	1	1	1	0	851	1	4	0	40	15	0	1	94
fixed	2	2	5	271493	5	3	3	1	0	1156	1	4	0	56	16	0	1	94
fixed	2	2	6	273116	6	4	4	1	0	1112	1	4	0	64	17	0	1	94
fixed	2	2	7	275186	3	1	1	1	0	1024	1	4	0	40	18	0	1	95
fixed	2	2	8	277235	2	3	3	1	0	1265	1	4	0	56	19	0	1	95
fixed	2	2	9	278788	3	2	2	1	0	1056	1	4	0	48	20	0	1	95
fixed	2	2	10	280298	1	4	4	1	0	1079	1	4	0	64	21	0	1	95
fixed	2	2	11	282309	5	2	0	1	2	0	3	4	0	48	21	0	2	91
fixed	2	2	12	285139	4	3	3	1	0	1251	1	4	0	56	22	0	2	92
fixed	2	3	1	287248	4	1	1	1	0	993	1	4	0	40	23	0	2	92
fixed	2	3	2	288759	1	2	2	1	0	1097	1	4	0	48	24	0	2	92
fixed	2	3	3	290223	6	4	4	1	0	1075	1	4	0	64	25	0	2	93
fixed	2	3	4	291806	2	1	1	1	0	952	1	4	0	40	26	0	2	93
fixed	2	3	5	293699	5	3	3	1	0	1216	1	4	0	56	27	0	2	93
fixed	2	3	6	295906	6	4	4	1	0	1234	1	4	0	64	28	0	2	93
fixed	2	3	7	298083	3	1	1	1	0	710	1	4	0	40	29	0	2	94
fixed	2	3	8	299504	2	3	3	1	0	1226	1	4	0	56	30	0	2	94
fixed	2	3	9	301684	3	2	2	1	0	1086	1	4	0	48	31	0	2	94
fixed	2	3	10	303460	1	4	4	1	0	1211	1	4	0	64	32	0	2	94
fixed	2	3	11	305004	5	2	2	1	0	1721	1	4	0	48	33	0	2	94
fixed	2	3	12	307397	4	3	3	1	0	1284	1	4	0	56	34	0	2	94
fixed	2	4	1	309753	4	1	1	1	0	1080	1	4	0	40	35	0	2	95
fixed	2	4	2	311601	1	2	2	2	0	2042	2	4	0	48	36	0	2	95
fixed	2	4	3	314018	6	4	4	1	0	915	1	4	0	64	37	0	2	95
fixed	2	4	4	315851	2	1	1	1	0	1014	1	4	0	40	38	0	2	95
fixed	2	4	5	317794	5	3	3	1	0	2171	1	4	0	56	39	0	2	95
fixed	2	4	6	320512	6	4	4	1	0	1688	1	4	0	64	40	0	2	95
fixed	2	4	7	322878	3	1	1	1	0	684	1	4	0	40	41	0	2	95
fixed	2	4	8	324027	2	3	3	1	0	1163	1	4	0	56	42	0	2	95
fixed	2	4	9	325744	3	2	2	1	0	851	1	4	0	48	43	0	2	96
fixed	2	4	10	327463	1	4	4	1	0	1090	1	4	0	64	44	0	2	96
fixed	2	4	11	329360	5	2	2	2	0	1978	2	4	0	48	45	0	2	96
fixed	2	4	12	331757	4	3	3	1	0	1012	1	4	0	56	46	0	2	96
fixed	2	5	1	333594	4	1	1	1	0	990	1	4	0	40	47	0	2	96
fixed	2	5	2	334946	1	2	2	1	0	1269	1	4	0	48	48	0	2	96
fixed	2	5	3	336868	6	4	4	2	0	2491	2	4	0	64	49	0	2	96
fixed	2	5	4	339726	2	1	1	1	0	754	1	4	0	40	50	0	2	96
fixed	2	5	5	341500	5	3	3	1	0	1591	1	4	0	56	51	0	2	96
fixed	2	5	6	343723	6	4	4	1	0	1121	1	4	0	64	52	0	2	96
fixed	2	5	7	345426	3	1	1	1	0	841	1	4	0	40	53	0	2	96
fixed	2	5	8	347205	2	3	3	1	0	1102	1	4	0	56	54	0	2	96
fixed	2	5	9	349313	3	2	2	1	0	941	1	4	0	48	55	0	2	96
fixed	2	5	10	350825	1	4	4	1	0	988	1	4	0	64	56	0	2	97
fixed	2	5	11	352457	5	2	2	1	0	1271	1	4	0	48	57	0	2	97
fixed	2	5	12	354375	4	3	3	1	0	990	1	4	0	56	58	0	2	97
fixed	2	6	1	356601	4	1	1	1	0	888	1	4	0	40	59	0	2	97
fixed	2	6	2	357890	1	2	2	1	0	1353	1	4	0	48	60	0	2	97
fixed	2	6	3	360007	6	4	4	1	0	911	1	4	0	64	61	0	2	97
fixed	2	6	4	361532	2	1	1	1	0	1047	1	4	0	40	62	0	2	97
fixed	2	6	5	363046	5	3	3	1	0	1279	1	4	0	56	63	0	2	97
fixed	2	6	6	365248	6	4	4	1	0	1050	1	4	0	64	64	0	2	97
fixed	2	6	7	367292	3	1	1	1	0	1051	1	4	0	40	65	0	2	97
fixed	2	6	8	368733	2	3	3	1	0	1230	1	4	0	56	66	0	2	97
fixed	2	6	9	370712	3	2	2	1	0	970	1	4	0	48	67	0	2	97
fixed	2	6	10	372076	1	4	4	1	0	1120	1	4	0	64	68	0	2	97
fixed	2	6	11	373830	5	2	2	1	0	1118	1	4	0	48	69	0	2	97
fixed	2	6	12	375856	4	3	3	1	0	832	1	4	0	56	70	0	2	97
fixed	2	7	1	377285	4	1	1	1	0	971	1	4	0	40	71	0	2	97
fixed	2	7	2	378986	1	2	2	1	0	1540	1	4	0	48	72	0	2	97
fixed	2	7	3	381059	6	4	4	1	0	1292	1	4	0	64	73	0	2	97
fixed	2	7	4	383215	2	1	1	1	0	920	1	4	0	40	74	0	2	97
fixed	2	7	5	385095	5	3	3	1	0	1193	1	4	0	56	75	0	2	97
fixed	2	7	6	386816	6	4	4	1	0	1088	1	4	0	64	76	0	2	97
fixed	2	7	7	388883	3	1	1	1	0	800	1	4	0	40	77	0	2	97
fixed	2	7	8	390112	2	3	3	1	0	909	1	4	0	56	78	0	2	98
fixed	2	7	9	392016	3	2	2	1	0	1228	1	4	0	48	79	0	2	98
fixed	2	7	10	393974	1	4	4	1	0	897	1	4	0	64	80	0	2	98
fixed	2	7	11	395326	5	2	2	1	0	1808	1	4	0	48	81	0	2	98
fixed	2	7	12	398125	4	3	3	1	0	745	1	4	0	56	82	0	2	98
fixed	2	8	1	399423	4	1	1	1	0	970	1	4	0	40	83	0	2	98
fixed	2	8	2	400926	1	2	2	1	0	1122	1	4	0	48	84	0	2	98
fixed	2	8	3	402725	6	4	4	1	0	966	1	4	0	64	85	0	2	98
fixed	2	8	4	404101	2	1	1	1	0	1036	1	4	0	40	86	0	2	98
fixed	2	8	5	406027	5	3	3	1	0	1090	1	4	0	56	87	0	2	98
fixed	2	8	6	407457	6	4	4	1	0	1341	1	4	0	64	88	0	2	98
fixed	2	8	7	409170	3	1	1	1	0	805	1	4	0	40	89	0	2	98
fixed	2	8	8	410428	2	3	3	1	0	1032	1	4	0	56	90	0	2	98
fixed	2	8	9	411764	3	2	2	1	0	768	1	4	0	48	91	0	2	98
fixed	2	8	10	412964	1	4	4	1	0	861	1	4	0	64	92	0	2	98
fixed	2	8	11	414817	5	2	2	1	0	1270	1	4	0	48	93	0	2	98
fixed	2	8	12	416446	4	3	3	1	0	1209	1	4	0	56	94	0	2	98
fixed	2	9	1	418820	4	1	1	1	0	732	1	4	0	40	95	0	2	98
fixed	2	9	2	420475	1	2	2	1	0	1086	1	4	0	48	96	0	2	98
fixed	2	9	3	421921	6	4	4	1	0	961	1	4	0	64	97	0	2	98
fixed	2	9	4	423376	2	1	1	1	0	796	1	4	0	40	98	0	2	98
fixed	2	9	5	424594	5	3	3	1	0	880	1	4	0	56	99	0	2	98
fixed	2	9	6	425897	6	4	4	1	0	929	1	4	0	64	100	0	2	98
fixed	2	9	7	427596	3	1	1	1	0	737	1	4	0	40	101	0	2	98
fixed	2	9	8	429154	2	3	3	1	0	1231	1	4	0	56	102	0	2	98
fixed	2	9	9	430926	3	2	2	1	0	836	1	4	0	48	103	0	2	98
fixed	2	9	10	432108	1	4	4	1	0	962	1	4	0	64	104	0	2	98
fixed	2	9	11	433528	5	2	2	1	0	1310	1	4	0	48	105	0	2	98
fixed	2	9	12	435692	4	3	3	1	0	2474	1	4	0	56	106	0	2	98
fixed	2	10	1	439204	4	1	1	1	0	925	1	4	0	40	107	0	2	98
fixed	2	10	2	440898	1	2	2	1	0	941	1	4	0	48	108	0	2	98
fixed	2	10	3	442333	6	4	4	1	0	897	1	4	0	64	109	0	2	98
fixed	2	10	4	443680	2	1	1	1	0	951	1	4	0	40	110	0	2	98
fixed	2	10	5	445045	5	3	3	1	0	1790	1	4	0	56	111	0	2	98
fixed	2	10	6	447844	6	4	4	1	0	1055	1	4	0	64	112	0	2	98
fixed	2	10	7	449301	3	1	1	1	0	1042	1	4	0	40	113	0	2	98
fixed	2	10	8	450691	2	3	3	1	0	1071	1	4	0	56	114	0	2	98
fixed	2	10	9	452744	3	2	2	1	0	952	1	4	0	48	115	0	2	98
fixed	2	10	10	454291	1	4	4	1	0	1214	1	4	0	64	116	0	2	98
fixed	2	10	11	456333	5	2	2	1	0	1384	1	4	0	48	117	0	2	98
fixed	2	10	12	458073	4	3	3	1	0	990	1	4	0	56	118	0	2	98
fixed	3	1	1	460002	4	1	1	1	0	964	1	4	0	72	1	0	0	100
fixed	3	1	2	461789	1	2	2	1	0	993	1	4	0	80	2	0	0	100
fixed	3	1	3	463076	6	4	4	1	0	930	1	4	0	96	3	0	0	100
fixed	3	1	4	464795	2	1	1	1	0	930	1	4	0	72	4	0	0	100
fixed	3	1	5	466585	5	3	3	1	0	1229	1	4	0	88	5	0	0	100
fixed	3	1	6	468266	6	4	4	1	0	1366	1	4	0	96	6	0	0	100
fixed	3	1	7	470252	3	1	1	1	0	930	1	4	0	72	7	0	0	100
fixed	3	1	8	472116	2	3	3	1	0	1139	1	4	0	88	8	0	0	100
fixed	3	1	9	473852	3	2	2	1	0	1041	1	4	0	80	9	0	0	100
fixed	3	1	10	475233	1	4	4	1	0	903	1	4	0	96	10	0	0	100
fixed	3	1	11	476865	5	2	2	1	0	1282	1	4	0	80	11	0	0	100
fixed	3	1	12	479045	4	3	3	1	0	1086	1	4	0	88	12	0	0	100
fixed	3	2	1	481390	4	1	1	1	0	858	1	4	0	72	13	0	0	100
fixed	3	2	2	482700	1	2	2	1	0	1155	1	4	0	80	14	0	0	100
fixed	3	2	3	484713	6	4	4	1	0	781	1	4	0	96	15	0	0	100
fixed	3	2	4	486399	2	1	1	1	0	878	1	4	0	72	16	0	0	100
fixed	3	2	5	488034	5	3	3	1	0	1673	1	4	0	88	17	0	0	100
fixed	3	2	6	490221	6	4	4	1	0	1133	1	4	0	96	18	0	0	100
fixed	3	2	7	491831	3	1	1	1	0	720	1	4	0	72	19	0	0	100
fixed	3	2	8	493054	2	3	3	1	0	1428	1	4	0	88	20	0	0	100
fixed	3	2	9	495293	3	2	2	1	0	853	1	4	0	80	21	0	0	100
fixed	3	2	10	496596	1	4	4	1	0	974	1	4	0	96	22	0	0	100
fixed	3	2	11	498210	5	2	2	1	0	1426	1	4	0	80	23	0	0	100
fixed	3	2	12	500590	4	3	3	1	0	733	1	4	0	88	24	0	0	100
fixed	3	3	1	501991	4	1	1	1	0	898	1	4	0	72	25	0	0	100
fixed	3	3	2	503361	1	2	2	1	0	1264	1	4	0	80	26	0	0	100
fixed	3	3	3	505502	6	4	4	1	0	1093	1	4	0	96	27	0	0	100
fixed	3	3	4	507366	2	1	1	1	0	926	1	4	0	72	28	0	0	100
fixed	3	3	5	508766	5	3	3	1	0	1235	1	4	0	88	29	0	0	100
fixed	3	3	6	510826	6	4	4	1	0	940	1	4	0	96	30	0	0	100
fixed	3	3	7	512744	3	1	1	1	0	1011	1	4	0	72	31	0	0	100
fixed	3	3	8	514452	2	3	3	1	0	1378	1	4	0	88	32	0	0	100
fixed	3	3	9	516725	3	2	2	1	0	729	1	4	0	80	33	0	0	100
fixed	3	3	10	517962	1	4	4	1	0	989	1	4	0	96	34	0	0	100
fixed	3	3	11	519623	5	2	2	1	0	1215	1	4	0	80	35	0	0	100
fixed	3	3	12	521160	4	3	3	1	0	1030	1	4	0	88	36	0	0	100
fixed	3	4	1	523360	4	1	1	1	0	849	1	4	0	72	37	0	0	100
fixed	3	4	2	525047	1	2	2	1	0	1073	1	4	0	80	38	0	0	100
fixed	3	4	3	527150	6	4	4	1	0	848	1	4	0	96	39	0	0	100
fixed	3	4	4	528404	2	1	1	1	0	907	1	4	0	72	40	0	0	100
fixed	3	4	5	530062	5	3	3	1	0	1965	1	4	0	88	41	0	0	100
fixed	3	4	6	533034	6	4	4	1	0	815	1	4	0	96	42	0	0	100
fixed	3	4	7	534886	3	1	1	1	0	856	1	4	0	72	43	0	0	100
fixed	3	4	8	536328	2	3	3	1	0	1411	1	4	0	88	44	0	0	100
fixed	3	4	9	538332	3	2	2	1	0	2142	1	4	0	80	45	0	0	100
fixed	3	4	10	541495	1	4	4	1	0	1121	1	4	0	96	46	0	0	100
fixed	3	4	11	543167	5	2	2	1	0	1482	1	4	0	80	47	0	0	100
fixed	3	4	12	545304	4	3	3	1	0	1279	1	4	0	88	48	0	0	100
fixed	3	5	1	547335	4	1	1	1	0	841	1	4	0	72	49	0	0	100
fixed	3	5	2	548772	1	2	2	1	0	1612	1	4	0	80	50	0	0	100
fixed	3	5	3	551257	6	4	4	1	0	1011	1	4	0	96	51	0	0	100
fixed	3	5	4	552735	2	1	1	1	0	932	1	4	0	72	52	0	0	100
fixed	3	5	5	554365	5	3	3	1	0	1384	1	4	0	88	53	0	0	100
fixed	3	5	6	556365	6	4	4	1	0	827	1	4	0	96	54	0	0	100
fixed	3	5	7	558088	3	1	1	1	0	922	1	4	0	72	55	0	0	100
fixed	3	5	8	559779	2	3	3	1	0	1283	1	4	0	88	56	0	0	100
fixed	3	5	9	561538	3	2	2	1	0	840	1	4	0	80	57	0	0	100
fixed	3	5	10	563094	1	4	4	1	0	846	1	4	0	96	58	0	0	100
fixed	3	5	11	564666	5	2	2	1	0	1179	1	4	0	80	59	0	0	100
fixed	3	5	12	566881	4	3	3	1	0	1021	1	4	0	88	60	0	0	100
fixed	3	6	1	568972	4	1	1	1	0	837	1	4	0	72	61	0	0	100
fixed	3	6	2	570217	1	2	2	1	0	1088	1	4	0	80	62	0	0	100
fixed	3	6	3	572198	6	4	4	1	0	924	1	4	0	96	63	0	0	100
fixed	3	6	4	573449	2	1	1	1	0	1095	1	4	0	72	64	0	0	100
fixed	3	6	5	575323	5	3	3	1	0	1328	1	4	0	88	65	0	0	100
fixed	3	6	6	577083	6	4	4	1	0	1277	1	4	0	96	66	0	0	100
fixed	3	6	7	579124	3	1	1	1	0	959	1	4	0	72	67	0	0	100
fixed	3	6	8	580908	2	3	3	1	0	1091	1	4	0	88	68	0	0	100
fixed	3	6	9	582404	3	2	2	1	0	892	1	4	0	80	69	0	0	100
fixed	3	6	10	583666	1	4	4	1	0	879	1	4	0	96	70	0	0	100
fixed	3	6	11	585237	5	2	2	1	0	1124	1	4	0	80	71	0	0	100
fixed	3	6	12	587334	4	3	0	1	2	0	3	4	0	88	71	0	1	99
fixed	3	7	1	590608	4	1	1	1	0	1288	1	4	0	72	72	0	1	99
fixed	3	7	2	592720	1	2	2	1	0	1207	1	4	0	80	73	0	1	99
fixed	3	7	3	594877	6	4	4	1	0	988	1	4	0	96	74	0	1	99
fixed	3	7	4	596674	2	1	1	1	0	1039	1	4	0	72	75	0	1	99
fixed	3	7	5	598572	5	3	3	1	0	1175	1	4	0	88	76	0	1	99
fixed	3	7	6	600431	6	4	4	1	0	840	1	4	0	96	77	0	1	99
fixed	3	7	7	601660	3	1	1	1	0	1076	1	4	0	72	78	0	1	99
fixed	3	7	8	603114	2	3	3	1	0	2271	1	4	0	88	79	0	1	99
fixed	3	7	9	605973	3	2	2	1	0	990	1	4	0	80	80	0	1	99
fixed	3	7	10	607777	1	4	4	1	0	953	1	4	0	96	81	0	1	99
fixed	3	7	11	609168	5	2	2	1	0	1534	1	4	0	80	82	0	1	99
fixed	3	7	12	611725	4	3	3	1	0	1402	1	4	0	88	83	0	1	99
fixed	3	8	1	614082	4	1	1	1	0	982	1	4	0	72	84	0	1	99
fixed	3	8	2	615928	1	2	2	1	0	1520	1	4	0	80	85	0	1	99
fixed	3	8	3	618292	6	4	4	1	0	892	1	4	0	96	86	0	1	99
fixed	3	8	4	620199	2	1	1	1	0	891	1	4	0	72	87	0	1	99
fixed	3	8	5	621503	5	3	3	1	0	1572	1	4	0	88	88	0	1	99
fixed	3	8	6	623422	6	4	4	1	0	1162	1	4	0	96	89	0	1	99
fixed	3	8	7	625286	3	1	1	1	0	932	1	4	0	72	90	0	1	99
fixed	3	8	8	626815	2	3	3	1	0	1139	1	4	0	88	91	0	1	99
fixed	3	8	9	628593	3	2	2	1	0	1016	1	4	0	80	92	0	1	99
fixed	3	8	10	630119	1	4	4	1	0	927	1	4	0	96	93	0	1	99
fixed	3	8	11	631752	5	2	2	1	0	1426	1	4	0	80	94	0	1	99
fixed	3	8	12	633882	4	3	3	1	0	1247	1	4	0	88	95	0	1	99
fixed	3	9	1	635969	4	1	1	1	0	895	1	4	0	72	96	0	1	99
fixed	3	9	2	637549	1	2	2	1	0	1220	1	4	0	80	97	0	1	99
fixed	3	9	3	639387	6	4	4	1	0	887	1	4	0	96	98	0	1	99
fixed	3	9	4	640820	2	1	1	1	0	978	1	4	0	72	99	0	1	99
fixed	3	9	5	642253	5	3	3	1	0	1149	1	4	0	88	100	0	1	99
fixed	3	9	6	644437	6	4	4	1	0	912	1	4	0	96	101	0	1	99
fixed	3	9	7	645914	3	1	1	1	0	978	1	4	0	72	102	0	1	99
fixed	3	9	8	647453	2	3	0	0	2	0	3	4	0	88	102	0	2	98
fixed	3	9	9	650874	3	2	2	1	0	1264	1	4	0	80	103	0	2	98
fixed	3	9	10	652564	1	4	4	1	0	2032	1	4	0	96	104	0	2	98
fixed	3	9	11	655326	5	2	2	1	0	1980	1	4	0	80	105	0	2	98
fixed	3	9	12	658148	4	3	3	1	0	1004	1	4	0	88	106	0	2	98
fixed	3	10	1	660363	4	1	1	1	0	830	1	4	0	72	107	0	2	98
fixed	3	10	2	661857	1	2	2	1	0	1239	1	4	0	80	108	0	2	98
fixed	3	10	3	663493	6	4	4	1	0	993	1	4	0	96	109	0	2	98
fixed	3	10	4	665458	2	1	1	1	0	862	1	4	0	72	110	0	2	98
fixed	3	10	5	666942	5	3	3	1	0	1375	1	4	0	88	111	0	2	98
fixed	3	10	6	669176	6	4	4	1	0	905	1	4	0	96	112	0	2	98
fixed	3	10	7	670834	3	1	1	1	0	971	1	4	0	72	113	0	2	98
fixed	3	10	8	672781	2	3	3	1	0	1392	1	4	0	88	114	0	2	98
fixed	3	10	9	674865	3	2	2	1	0	808	1	4	0	80	115	0	2	98
fixed	3	10	10	676225	1	4	4	1	0	878	1	4	0	96	116	0	2	98
fixed	3	10	11	678118	5	2	2	1	0	1270	1	4	0	80	117	0	2	98
fixed	3	10	12	680061	4	3	3	1	0	2308	1	4	0	88	118	0	2	98
fixed	4	1	1	827203	4	1	1	1	0	1915	1	4	0	104	1	0	0	100
fixed	4	1	2	830015	1	2	2	1	0	1356	1	4	0	112	2	0	0	100
fixed	4	1	3	831934	6	4	4	1	0	1003	1	4	0	128	3	0	0	100
fixed	4	1	4	833272	2	1	1	1	0	1154	1	4	0	104	4	0	0	100
fixed	4	1	5	835164	5	3	3	1	0	1026	1	4	0	120	5	0	0	100
fixed	4	1	6	837177	6	4	4	1	0	1125	1	4	0	128	6	0	0	100
fixed	4	1	7	838618	3	1	1	1	0	688	1	4	0	104	7	0	0	100
fixed	4	1	8	839693	2	3	3	1	0	1323	1	4	0	120	8	0	0	100
fixed	4	1	9	841848	3	2	2	1	0	919	1	4	0	112	9	0	0	100
fixed	4	1	10	843471	1	4	4	1	0	915	1	4	0	128	10	0	0	100
fixed	4	1	11	845052	5	2	0	1	2	0	3	4	0	112	10	0	1	91
fixed	4	1	12	847856	4	3	3	1	0	1161	1	4	0	120	11	0	1	92
fixed	4	2	1	850295	4	1	1	1	0	1793	1	4	0	104	12	0	1	92
fixed	4	2	2	852944	1	2	2	1	0	1305	1	4	0	112	13	0	1	93
fixed	4	2	3	855137	6	4	4	1	0	1013	1	4	0	128	14	0	1	93
fixed	4	2	4	856757	2	1	1	1	0	1016	1	4	0	104	15	0	1	94
fixed	4	2	5	858339	5	3	3	1	0	1357	1	4	0	120	16	0	1	94
fixed	4	2	6	860460	6	4	4	1	0	803	1	4	0	128	17	0	1	94
fixed	4	2	7	862160	3	1	1	1	0	915	1	4	0	104	18	0	1	95
fixed	4	2	8	863519	2	3	3	1	0	1194	1	4	0	120	19	0	1	95
fixed	4	2	9	865464	3	2	2	1	0	799	1	4	0	112	20	0	1	95
fixed	4	2	10	866934	1	4	4	1	0	760	1	4	0	128	21	0	1	95
fixed	4	2	11	868433	5	2	2	1	0	1481	1	4	0	112	22	0	1	96
fixed	4	2	12	870404	4	3	3	1	0	1166	1	4	0	120	23	0	1	96
fixed	4	3	1	872800	4	1	1	1	0	1000	1	4	0	104	24	0	1	96
fixed	4	3	2	874348	1	2	2	1	0	2095	1	4	0	112	25	0	1	96
fixed	4	3	3	877149	6	4	4	1	0	896	1	4	0	128	26	0	1	96
fixed	4	3	4	878635	2	1	1	1	0	769	1	4	0	104	27	0	1	96
fixed	4	3	5	880176	5	3	3	1	0	1072	1	4	0	120	28	0	1	97
fixed	4	3	6	881934	6	4	4	1	0	870	1	4	0	128	29	0	1	97
fixed	4	3	7	883828	3	1	1	1	0	877	1	4	0	104	30	0	1	97
fixed	4	3	8	885684	2	3	3	1	0	1022	1	4	0	120	31	0	1	97
fixed	4	3	9	887135	3	2	2	1	0	745	1	4	0	112	32	0	1	97
fixed	4	3	10	888465	1	4	4	1	0	745	1	4	0	128	33	0	1	97
fixed	4	3	11	890073	5	2	2	1	0	1228	1	4	0	112	34	0	1	97
fixed	4	3	12	891762	4	3	3	1	0	1293	1	4	0	120	35	0	1	97
fixed	4	4	1	894119	4	1	1	1	0	1569	1	4	0	104	36	0	1	97
fixed	4	4	2	896330	1	2	2	1	0	2300	1	4	0	112	37	0	1	97
fixed	4	4	3	899006	6	4	4	2	0	794	2	4	0	128	38	0	1	97
fixed	4	4	4	900670	2	1	1	1	0	860	1	4	0	104	39	0	1	98
fixed	4	4	5	901924	5	3	3	1	0	951	1	4	0	120	40	0	1	98
fixed	4	4	6	903584	6	4	4	1	0	961	1	4	0	128	41	0	1	98
fixed	4	4	7	904901	3	1	1	1	0	1025	1	4	0	104	42	0	1	98
fixed	4	4	8	906228	2	3	3	1	0	1289	1	4	0	120	43	0	1	98
fixed	4	4	9	908003	3	2	2	1	0	917	1	4	0	112	44	0	1	98
fixed	4	4	10	909336	1	4	4	1	0	941	1	4	0	128	45	0	1	98
fixed	4	4	11	911134	5	2	2	1	0	1225	1	4	0	112	46	0	1	98
fixed	4	4	12	913176	4	3	3	1	0	794	1	4	0	120	47	0	1	98
fixed	4	5	1	914803	4	1	1	1	0	933	1	4	0	104	48	0	1	98
fixed	4	5	2	916245	1	2	2	1	0	1456	1	4	0	112	49	0	1	98
fixed	4	5	3	918312	6	4	4	1	0	832	1	4	0	128	50	0	1	98
fixed	4	5	4	920118	2	1	1	1	0	820	1	4	0	104	51	0	1	98
fixed	4	5	5	921941	5	3	3	1	0	823	1	4	0	120	52	0	1	98
fixed	4	5	6	923658	6	4	4	1	0	950	1	4	0	128	53	0	1	98
fixed	4	5	7	925542	3	1	1	1	0	927	1	4	0	104	54	0	1	98
fixed	4	5	8	927009	2	3	3	1	0	1280	1	4	0	120	55	0	1	98
fixed	4	5	9	929034	3	2	2	1	0	1123	1	4	0	112	56	0	1	98
fixed	4	5	10	930567	1	4	4	1	0	986	1	4	0	128	57	0	1	98
fixed	4	5	11	932553	5	2	2	1	0	1414	1	4	0	112	58	0	1	98
fixed	4	5	12	934326	4	3	3	1	0	1459	1	4	0	120	59	0	1	98
fixed	4	6	1	937008	4	1	1	1	0	865	1	4	0	104	60	0	1	98
fixed	4	6	2	938575	1	2	2	1	0	1151	1	4	0	112	61	0	1	98
fixed	4	6	3	940057	6	4	4	1	0	1008	1	4	0	128	62	0	1	98
fixed	4	6	4	941712	2	1	1	1	0	986	1	4	0	104	63	0	1	98
fixed	4	6	5	943327	5	3	3	1	0	1045	1	4	0	120	64	0	1	98
fixed	4	6	6	944788	6	4	4	1	0	944	1	4	0	128	65	0	1	98
fixed	4	6	7	946158	3	1	1	1	0	790	1	4	0	104	66	0	1	99
fixed	4	6	8	947790	2	3	3	1	0	1192	1	4	0	120	67	0	1	99
fixed	4	6	9	950008	3	2	2	1	0	898	1	4	0	112	68	0	1	99
fixed	4	6	10	951664	1	4	4	1	0	964	1	4	0	128	69	0	1	99
fixed	4	6	11	953324	5	2	2	1	0	1710	1	4	0	112	70	0	1	99
fixed	4	6	12	955429	4	3	3	1	0	1045	1	4	0	120	71	0	1	99
fixed	4	7	1	957608	4	1	1	1	0	944	1	4	0	104	72	0	1	99
fixed	4	7	2	959535	1	2	2	1	0	951	1	4	0	112	73	0	1	99
fixed	4	7	3	961501	6	4	4	1	0	851	1	4	0	128	74	0	1	99
fixed	4	7	4	962655	2	1	1	1	0	1034	1	4	0	104	75	0	1	99
fixed	4	7	5	964053	5	3	3	1	0	1000	1	4	0	120	76	0	1	99
fixed	4	7	6	965622	6	4	4	1	0	917	1	4	0	128	77	0	1	99
fixed	4	7	7	967184	3	1	1	1	0	1011	1	4	0	104	78	0	1	99
fixed	4	7	8	968834	2	3	3	1	0	1333	1	4	0	120	79	0	1	99
fixed	4	7	9	971138	3	2	2	1	0	1092	1	4	0	112	80	0	1	99
fixed	4	7	10	972617	1	4	4	1	0	1285	1	4	0	128	81	0	1	99
fixed	4	7	11	974476	5	2	0	1	2	0	3	4	0	112	81	0	2	98
fixed	4	7	12	977883	4	3	3	1	0	974	1	4	0	120	82	0	2	98
fixed	4	8	1	979796	4	1	1	1	0	740	1	4	0	104	83	0	2	98
fixed	4	8	2	980936	1	2	2	1	0	1124	1	4	0	112	84	0	2	98
fixed	4	8	3	982643	6	4	4	1	0	1132	1	4	0	128	85	0	2	98
fixed	4	8	4	984711	2	1	1	1	0	932	1	4	0	104	86	0	2	98
fixed	4	8	5	986324	5	3	3	1	0	1040	1	4	0	120	87	0	2	98
fixed	4	8	6	988234	6	4	4	1	0	839	1	4	0	128	88	0	2	98
fixed	4	8	7	989666	3	1	1	1	0	851	1	4	0	104	89	0	2	98
fixed	4	8	8	991270	2	3	3	1	0	1239	1	4	0	120	90	0	2	98
fixed	4	8	9	993092	3	2	2	1	0	1010	1	4	0	112	91	0	2	98
fixed	4	8	10	994689	1	4	0	0	2	0	3	4	0	128	91	0	3	97
fixed	4	8	11	997580	5	2	2	1	0	1715	1	4	0	112	92	0	3	97
fixed	4	8	12	999862	4	3	3	1	0	1226	1	4	0	120	93	0	3	97
fixed	4	9	1	1001733	4	1	1	1	0	1083	1	4	0	104	94	0	3	97
fixed	4	9	2	1003461	1	2	2	1	0	1026	1	4	0	112	95	0	3	97
fixed	4	9	3	1005064	6	4	4	1	0	942	1	4	0	128	96	0	3	97
fixed	4	9	4	1006802	2	1	1	1	0	925	1	4	0	104	97	0	3	97
fixed	4	9	5	1008274	5	3	3	1	0	1079	1	4	0	120	98	0	3	97
fixed	4	9	6	1009821	6	4	4	1	0	949	1	4	0	128	99	0	3	97
fixed	4	9	7	1011095	3	1	1	1	0	967	1	4	0	104	100	0	3	97
fixed	4	9	8	1013063	2	3	3	1	0	1235	1	4	0	120	101	0	3	97
fixed	4	9	9	1015030	3	2	2	1	0	832	1	4	0	112	102	0	3	97
fixed	4	9	10	1016833	1	4	4	1	0	868	1	4	0	128	103	0	3	97
fixed	4	9	11	1018274	5	2	2	1	0	959	1	4	0	112	104	0	3	97
fixed	4	9	12	1019672	4	3	3	1	0	932	1	4	0	120	105	0	3	97
fixed	4	10	1	1021816	4	1	1	1	0	1025	1	4	0	104	106	0	3	97
fixed	4	10	2	1023208	1	2	2	1	0	1366	1	4	0	112	107	0	3	97
fixed	4	10	3	1024895	6	4	4	1	0	1022	1	4	0	128	108	0	3	97
fixed	4	10	4	1026486	2	1	1	1	0	795	1	4	0	104	109	0	3	97
fixed	4	10	5	1027626	5	3	3	1	0	971	1	4	0	120	110	0	3	97
fixed	4	10	6	1029551	6	4	4	1	0	1073	1	4	0	128	111	0	3	97
fixed	4	10	7	1031056	3	1	1	1	0	985	1	4	0	104	112	0	3	97
fixed	4	10	8	1032809	2	3	3	1	0	1263	1	4	0	120	113	0	3	97
fixed	4	10	9	1034949	3	2	2	1	0	1484	1	4	0	112	114	0	3	97
fixed	4	10	10	1037373	1	4	4	1	0	854	1	4	0	128	115	0	3	97
fixed	4	10	11	1038613	5	2	2	1	0	1433	1	4	0	112	116	0	3	97
fixed	4	10	12	1040555	4	3	3	1	0	1111	1	4	0	120	117	0	3	98
fixed	5	1	1	1042765	4	1	1	1	0	849	1	4	0	136	1	0	0	100
fixed	5	1	2	1044216	1	2	2	1	0	1188	1	4	0	144	2	0	0	100
fixed	5	1	3	1046175	6	4	4	1	0	1025	1	4	0	160	3	0	0	100
fixed	5	1	4	1048152	2	1	1	1	0	941	1	4	0	136	4	0	0	100
fixed	5	1	5	1049842	5	3	3	1	0	1142	1	4	0	152	5	0	0	100
fixed	5	1	6	1051339	6	4	4	1	0	1030	1	4	0	160	6	0	0	100
fixed	5	1	7	1053232	3	1	1	1	0	1014	1	4	0	136	7	0	0	100
fixed	5	1	8	1054763	2	3	3	1	0	1565	1	4	0	152	8	0	0	100
fixed	5	1	9	1056622	3	2	2	1	0	1007	1	4	0	144	9	0	0	100
fixed	5	1	10	1058049	1	4	4	1	0	1210	1	4	0	160	10	0	0	100
fixed	5	1	11	1060026	5	2	2	1	0	1422	1	4	0	144	11	0	0	100
fixed	5	1	12	1061870	4	3	3	1	0	688	1	4	0	152	12	0	0	100
fixed	5	2	1	1063552	4	1	1	1	0	913	1	4	0	136	13	0	0	100
fixed	5	2	2	1065083	1	2	2	1	0	1145	1	4	0	144	14	0	0	100
fixed	5	2	3	1066531	6	4	4	1	0	987	1	4	0	160	15	0	0	100
fixed	5	2	4	1067904	2	1	1	1	0	1121	1	4	0	136	16	0	0	100
fixed	5	2	5	1069687	5	3	3	1	0	1125	1	4	0	152	17	0	0	100
fixed	5	2	6	1071347	6	4	4	1	0	927	1	4	0	160	18	0	0	100
fixed	5	2	7	1073155	3	1	1	1	0	835	1	4	0	136	19	0	0	100
fixed	5	2	8	1074570	2	3	3	1	0	1255	1	4	0	152	20	0	0	100
fixed	5	2	9	1076251	3	2	2	1	0	871	1	4	0	144	21	0	0	100
fixed	5	2	10	1077770	1	4	4	1	0	927	1	4	0	160	22	0	0	100
fixed	5	2	11	1079204	5	2	2	1	0	1506	1	4	0	144	23	0	0	100
fixed	5	2	12	1081533	4	3	3	1	0	728	1	4	0	152	24	0	0	100
fixed	5	3	1	1083300	4	1	1	1	0	733	1	4	0	136	25	0	0	100
fixed	5	3	2	1084830	1	2	2	1	0	1124	1	4	0	144	26	0	0	100
fixed	5	3	3	1086965	6	4	4	1	0	922	1	4	0	160	27	0	0	100
fixed	5	3	4	1088639	2	1	1	1	0	891	1	4	0	136	28	0	0	100
fixed	5	3	5	1089995	5	3	3	1	0	1353	1	4	0	152	29	0	0	100
fixed	5	3	6	1092020	6	4	4	1	0	1315	1	4	0	160	30	0	0	100
fixed	5	3	7	1094197	3	1	1	1	0	711	1	4	0	136	31	0	0	100
fixed	5	3	8	1095921	2	3	3	1	0	1350	1	4	0	152	32	0	0	100
fixed	5	3	9	1097676	3	2	2	1	0	940	1	4	0	144	33	0	0	100
fixed	5	3	10	1099152	1	4	4	1	0	846	1	4	0	160	34	0	0	100
fixed	5	3	11	1100341	5	2	2	1	0	1083	1	4	0	144	35	0	0	100
fixed	5	3	12	1102290	4	3	3	1	0	577	1	4	0	152	36	0	0	100
fixed	5	4	1	1103733	4	1	1	1	0	835	1	4	0	136	37	0	0	100
fixed	5	4	2	1105173	1	2	2	1	0	1094	1	4	0	144	38	0	0	100
fixed	5	4	3	1106980	6	4	4	1	0	954	1	4	0	160	39	0	0	100
fixed	5	4	4	1108753	2	1	1	1	0	815	1	4	0	136	40	0	0	100
fixed	5	4	5	1110562	5	3	3	1	0	1626	1	4	0	152	41	0	0	100
fixed	5	4	6	1112669	6	4	4	1	0	1121	1	4	0	160	42	0	0	100
fixed	5	4	7	1114493	3	1	1	1	0	691	1	4	0	136	43	0	0	100
fixed	5	4	8	1115556	2	3	3	1	0	1351	1	4	0	152	44	0	0	100
fixed	5	4	9	1117806	3	2	2	1	0	727	1	4	0	144	45	0	0	100
fixed	5	4	10	1119028	1	4	4	1	0	1060	1	4	0	160	46	0	0	100
fixed	5	4	11	1120937	5	2	2	1	0	1186	1	4	0	144	47	0	0	100
fixed	5	4	12	1122732	4	3	3	1	0	638	1	4	0	152	48	0	0	100
fixed	5	5	1	1124016	4	1	1	1	0	840	1	4	0	136	49	0	0	100
fixed	5	5	2	1125240	1	2	2	1	0	1116	1	4	0	144	50	0	0	100
fixed	5	5	3	1127368	6	4	4	1	0	850	1	4	0	160	51	0	0	100
fixed	5	5	4	1128595	2	1	1	1	0	878	1	4	0	136	52	0	0	100
fixed	5	5	5	1130247	5	3	3	1	0	1168	1	4	0	152	53	0	0	100
fixed	5	5	6	1131822	6	4	4	1	0	902	1	4	0	160	54	0	0	100
fixed	5	5	7	1133268	3	1	1	1	0	881	1	4	0	136	55	0	0	100
fixed	5	5	8	1134582	2	3	3	1	0	1337	1	4	0	152	56	0	0	100
fixed	5	5	9	1136501	3	2	2	1	0	695	1	4	0	144	57	0	0	100
fixed	5	5	10	1138116	1	4	4	1	0	1147	1	4	0	160	58	0	0	100
fixed	5	5	11	1140224	5	2	2	1	0	1482	1	4	0	144	59	0	0	100
fixed	5	5	12	1142454	4	3	3	1	0	619	1	4	0	152	60	0	0	100
fixed	5	6	1	1144283	4	1	1	1	0	774	1	4	0	136	61	0	0	100
fixed	5	6	2	1145902	1	2	2	1	0	1737	1	4	0	144	62	0	0	100
fixed	5	6	3	1148481	6	4	4	1	0	884	1	4	0	160	63	0	0	100
fixed	5	6	4	1149859	2	1	1	1	0	882	1	4	0	136	64	0	0	100
fixed	5	6	5	1151123	5	3	3	1	0	893	1	4	0	152	65	0	0	100
fixed	5	6	6	1152686	6	4	4	1	0	794	1	4	0	160	66	0	0	100
fixed	5	6	7	1154139	3	1	1	1	0	692	1	4	0	136	67	0	0	100
fixed	5	6	8	1155554	2	3	3	1	0	1241	1	4	0	152	68	0	0	100
fixed	5	6	9	1157159	3	2	2	1	0	893	1	4	0	144	69	0	0	100
fixed	5	6	10	1158576	1	4	4	1	0	817	1	4	0	160	70	0	0	100
fixed	5	6	11	1160122	5	2	2	1	0	1199	1	4	0	144	71	0	0	100
fixed	5	6	12	1161956	4	3	3	1	0	1010	1	4	0	152	72	0	0	100
fixed	5	7	1	1163664	4	1	1	1	0	833	1	4	0	136	73	0	0	100
fixed	5	7	2	1164789	1	2	2	1	0	1281	1	4	0	144	74	0	0	100
fixed	5	7	3	1167086	6	4	4	1	0	888	1	4	0	160	75	0	0	100
fixed	5	7	4	1168693	2	1	1	1	0	812	1	4	0	136	76	0	0	100
fixed	5	7	5	1169802	5	3	3	1	0	989	1	4	0	152	77	0	0	100
fixed	5	7	6	1171690	6	4	4	1	0	965	1	4	0	160	78	0	0	100
fixed	5	7	7	1173214	3	1	1	1	0	925	1	4	0	136	79	0	0	100
fixed	5	7	8	1174449	2	3	3	1	0	1424	1	4	0	152	80	0	0	100
fixed	5	7	9	1176201	3	2	2	1	0	1478	1	4	0	144	81	0	0	100
fixed	5	7	10	1178692	1	4	4	1	0	1029	1	4	0	160	82	0	0	100
fixed	5	7	11	1180513	5	2	2	1	0	1111	1	4	0	144	83	0	0	100
fixed	5	7	12	1182234	4	3	3	1	0	1023	1	4	0	152	84	0	0	100
fixed	5	8	1	1184014	4	1	1	1	0	963	1	4	0	136	85	0	0	100
fixed	5	8	2	1185608	1	2	2	1	0	1104	1	4	0	144	86	0	0	100
fixed	5	8	3	1187530	6	4	4	1	0	894	1	4	0	160	87	0	0	100
fixed	5	8	4	1189291	2	1	1	1	0	987	1	4	0	136	88	0	0	100
fixed	5	8	5	1191104	5	3	3	1	0	975	1	4	0	152	89	0	0	100
fixed	5	8	6	1193009	6	4	4	1	0	766	1	4	0	160	90	0	0	100
fixed	5	8	7	1194790	3	1	1	1	0	826	1	4	0	136	91	0	0	100
fixed	5	8	8	1196431	2	3	3	1	0	1221	1	4	0	152	92	0	0	100
fixed	5	8	9	1198596	3	2	2	1	0	986	1	4	0	144	93	0	0	100
fixed	5	8	10	1200570	1	4	4	1	0	830	1	4	0	160	94	0	0	100
fixed	5	8	11	1202151	5	2	2	1	0	1147	1	4	0	144	95	0	0	100
fixed	5	8	12	1204030	4	3	3	1	0	747	1	4	0	152	96	0	0	100
fixed	5	9	1	1205333	4	1	1	1	0	1020	1	4	0	136	97	0	0	100
fixed	5	9	2	1206916	1	2	2	1	0	1281	1	4	0	144	98	0	0	100
fixed	5	9	3	1208602	6	4	4	1	0	1034	1	4	0	160	99	0	0	100
fixed	5	9	4	1210259	2	1	1	1	0	947	1	4	0	136	100	0	0	100
fixed	5	9	5	1211745	5	3	3	1	0	1053	1	4	0	152	101	0	0	100
fixed	5	9	6	1213822	6	4	4	1	0	1052	1	4	0	160	102	0	0	100
fixed	5	9	7	1215346	3	1	1	1	0	716	1	4	0	136	103	0	0	100
fixed	5	9	8	1216991	2	3	3	1	0	1127	1	4	0	152	104	0	0	100
fixed	5	9	9	1218538	3	2	2	1	0	645	1	4	0	144	105	0	0	100
fixed	5	9	10	1219770	1	4	4	1	0	920	1	4	0	160	106	0	0	100
fixed	5	9	11	1221015	5	2	2	1	0	1084	1	4	0	144	107	0	0	100
fixed	5	9	12	1222670	4	3	3	1	0	1014	1	4	0	152	108	0	0	100
fixed	5	10	1	1224279	4	1	1	1	0	913	1	4	0	136	109	0	0	100
fixed	5	10	2	1225812	1	2	2	1	0	1929	1	4	0	144	110	0	0	100
fixed	5	10	3	1228353	6	4	4	1	0	1501	1	4	0	160	111	0	0	100
fixed	5	10	4	1230674	2	1	1	1	0	923	1	4	0	136	112	0	0	100
fixed	5	10	5	1232033	5	3	3	1	0	1993	1	4	0	152	113	0	0	100
fixed	5	10	6	1234646	6	4	0	0	2	0	3	4	0	160	113	0	1	99
fixed	5	10	7	1238026	3	1	1	1	0	964	1	4	0	136	114	0	1	99
fixed	5	10	8	1239322	2	3	3	1	0	1084	1	4	0	152	115	0	1	99
fixed	5	10	9	1241084	3	2	2	1	0	857	1	4	0	144	116	0	1	99
fixed	5	10	10	1242283	1	4	4	1	0	831	1	4	0	160	117	0	1	99
fixed	5	10	11	1243809	5	2	2	1	0	974	1	4	0	144	118	0	1	99
fixed	5	10	12	1245230	4	3	3	1	0	898	1	4	0	152	119	0	1	99
random	6	1	1	1403500	6	1	1	1	0	2290	1	4	0	168	1	0	0	100
random	6	1	2	1406580	4	4	4	1	0	864	1	4	0	192	2	0	0	100
random	6	1	3	1408195	2	2	2	1	0	1244	1	4	0	176	3	0	0	100
random	6	1	4	1409833	3	3	3	1	0	1094	1	4	0	184	4	0	0	100
random	6	1	5	1411572	5	2	2	1	0	1053	1	4	0	176	5	0	0	100
random	6	1	6	1413353	1	4	4	1	0	746	1	4	0	192	6	0	0	100
random	6	1	7	1414521	6	1	1	1	0	856	1	4	0	168	7	0	0	100
random	6	1	8	1415736	2	3	3	1	0	932	1	4	0	184	8	0	0	100
random	6	1	9	1417583	4	2	2	1	0	719	1	4	0	176	9	0	0	100
random	6	1	10	1418594	1	1	1	1	0	1059	1	4	0	168	10	0	0	100
random	6	1	11	1420059	5	4	4	1	0	645	1	4	0	192	11	0	0	100
random	6	1	12	1421545	3	3	3	1	0	718	1	4	0	184	12	0	0	100
random	6	1	13	1423501	5	2	2	1	0	851	1	4	0	176	13	0	0	100
random	6	1	14	1425277	1	4	4	1	0	832	1	4	0	192	14	0	0	100
random	6	1	15	1427019	3	1	1	1	0	911	1	4	0	168	15	0	0	100
random	6	1	16	1428213	4	3	3	1	0	852	1	4	0	184	16	0	0	100
random	6	1	17	1429927	6	4	4	1	0	860	1	4	0	192	17	0	0	100
random	6	1	18	1431237	2	1	1	1	0	804	1	4	0	168	18	0	0	100
random	6	1	19	1432482	5	3	3	1	0	839	1	4	0	184	19	0	0	100
random	6	1	20	1433688	2	2	0	1	2	0	3	4	0	176	19	0	1	95
random	6	1	21	1437065	3	3	3	1	0	1293	1	4	0	184	20	0	1	95
random	6	1	22	1439067	6	1	1	1	0	817	1	4	0	168	21	0	1	95
random	6	1	23	1440424	4	2	2	1	0	935	1	4	0	176	22	0	1	96
random	6	1	24	1441675	1	4	4	1	0	978	1	4	0	192	23	0	1	96
random	6	1	25	1443400	4	3	3	1	0	977	1	4	0	184	24	0	1	96
random	6	1	26	1445184	2	1	1	1	0	1734	1	4	0	168	25	0	1	96
random	6	1	27	1447291	5	2	2	1	0	1428	1	4	0	176	26	0	1	96
random	6	1	28	1449016	6	4	4	1	0	1059	1	4	0	192	27	0	1	96
random	6	1	29	1450969	1	3	3	1	0	1080	1	4	0	184	28	0	1	97
random	6	1	30	1453081	5	2	2	1	0	911	1	4	0	176	29	0	1	97
random	6	1	31	1454281	2	1	1	1	0	772	1	4	0	168	30	0	1	97
random	6	1	32	1455918	3	3	3	1	0	991	1	4	0	184	31	0	1	97
random	6	1	33	1457583	6	4	4	1	0	864	1	4	0	192	32	0	1	97
random	6	1	34	1458971	4	2	2	1	0	893	1	4	0	176	33	0	1	97
random	6	1	35	1460842	3	4	4	1	0	886	1	4	0	192	34	0	1	97
random	6	1	36	1462775	1	1	1	1	0	732	1	4	0	168	35	0	1	97
random	6	1	37	1464368	3	4	4	1	0	1000	1	4	0	192	36	0	1	97
random	6	1	38	1466103	5	3	3	1	0	1135	1	4	0	184	37	0	1	97
random	6	1	39	1467993	6	1	1	1	0	919	1	4	0	168	38	0	1	97
random	6	1	40	1469486	1	2	2	1	0	1008	1	4	0	176	39	0	1	98
random	6	1	41	1471373	2	3	3	1	0	664	1	4	0	184	40	0	1	98
random	6	1	42	1472644	4	4	4	1	0	874	1	4	0	192	41	0	1	98
random	6	1	43	1474179	1	2	2	1	0	1041	1	4	0	176	42	0	1	98
random	6	1	44	1475974	6	3	3	1	0	789	1	4	0	184	43	0	1	98
random	6	1	45	1477448	3	1	1	1	0	1094	1	4	0	168	44	0	1	98
random	6	1	46	1478943	4	4	4	1	0	903	1	4	0	192	45	0	1	98
random	6	1	47	1480888	2	2	2	1	0	1093	1	4	0	176	46	0	1	98
random	6	1	48	1482800	5	1	1	1	0	1268	1	4	0	168	47	0	1	98
random	6	1	49	1485252	2	3	3	1	0	1372	1	4	0	184	48	0	1	98
random	6	1	50	1487634	3	1	1	1	0	879	1	4	0	168	49	0	1	98
random	6	1	51	1488888	1	4	4	1	0	890	1	4	0	192	50	0	1	98
random	6	1	52	1490331	5	3	3	1	0	1373	1	4	0	184	51	0	1	98
random	6	1	53	1492459	3	2	2	1	0	787	1	4	0	176	52	0	1	98
random	6	1	54	1493748	6	4	4	1	0	932	1	4	0	192	53	0	1	98
random	6	1	55	1495067	4	2	2	1	0	1149	1	4	0	176	54	0	1	98
random	6	1	56	1496882	1	1	0	0	2	0	3	4	0	168	54	0	2	96
random	6	1	57	1500218	5	4	4	1	0	867	1	4	0	192	55	0	2	96
random	6	1	58	1501994	2	1	1	1	0	1071	1	4	0	168	56	0	2	97
random	6	1	59	1503658	6	2	2	1	0	1513	1	4	0	176	57	0	2	97
random	6	1	60	1505808	4	3	3	1	0	870	1	4	0	184	58	0	2	97
random	6	1	61	1507273	1	2	2	1	0	1039	1	4	0	176	59	0	2	97
random	6	1	62	1508934	6	4	4	1	0	1121	1	4	0	192	60	0	2	97
random	6	1	63	1510800	4	1	1	1	0	906	1	4	0	168	61	0	2	97
random	6	1	64	1512092	2	2	2	1	0	1139	1	4	0	176	62	0	2	97
random	6	1	65	1514218	4	3	3	1	0	1066	1	4	0	184	63	0	2	97
random	6	1	66	1515990	3	1	1	1	0	1015	1	4	0	168	64	0	2	97
random	6	1	67	1518018	1	3	3	1	0	1152	1	4	0	184	65	0	2	97
random	6	1	68	1519884	5	4	4	1	0	874	1	4	0	192	66	0	2	97
random	6	1	69	1521670	2	2	2	1	0	1342	1	4	0	176	67	0	2	97
random	6	1	70	1524015	3	1	1	1	0	954	1	4	0	168	68	0	2	97
random	6	1	71	1525280	5	4	4	1	0	1277	1	4	0	192	69	0	2	97
random	6	1	72	1527076	6	3	3	1	0	1097	1	4	0	184	70	0	2	97
random	6	1	73	1529294	2	1	1	1	0	1355	1	4	0	168	71	0	2	97
random	6	1	74	1531287	5	3	3	1	0	1182	1	4	0	184	72	0	2	97
random	6	1	75	1533230	1	4	4	1	0	740	1	4	0	192	73	0	2	97
random	6	1	76	1534913	6	2	2	1	0	893	1	4	0	176	74	0	2	97
random	6	1	77	1536144	2	1	1	1	0	1432	1	4	0	168	75	0	2	97
random	6	1	78	1538568	4	4	4	1	0	1314	1	4	0	192	76	0	2	97
random	6	1	79	1540794	3	2	2	1	0	1084	1	4	0	176	77	0	2	97
random	6	1	80	1542336	4	3	3	1	0	771	1	4	0	184	78	0	2	98
random	6	1	81	1543630	1	4	4	1	0	899	1	4	0	192	79	0	2	98
random	6	1	82	1544884	5	1	1	1	0	1022	1	4	0	168	80	0	2	98
random	6	1	83	1546945	3	2	2	1	0	1479	1	4	0	176	81	0	2	98
random	6	1	84	1549020	6	3	3	1	0	728	1	4	0	184	82	0	2	98
random	6	1	85	1550880	3	2	2	1	0	1064	1	4	0	176	83	0	2	98
random	6	1	86	1552259	1	3	3	1	0	806	1	4	0	184	84	0	2	98
random	6	1	87	1553996	4	4	4	1	0	869	1	4	0	192	85	0	2	98
random	6	1	88	1555208	2	1	1	1	0	753	1	4	0	168	86	0	2	98
random	6	1	89	1556890	6	4	4	1	0	954	1	4	0	192	87	0	2	98
random	6	1	90	1558782	3	3	3	1	0	1330	1	4	0	184	88	0	2	98
random	6	1	91	1560649	5	4	4	1	0	899	1	4	0	192	89	0	2	98
random	6	1	92	1561881	1	2	2	1	0	1119	1	4	0	176	90	0	2	98
random	6	1	93	1563417	5	1	1	1	0	1158	1	4	0	168	91	0	2	98
random	6	1	94	1565195	4	3	3	1	0	1035	1	4	0	184	92	0	2	98
random	6	1	95	1566834	6	1	1	1	0	892	1	4	0	168	93	0	2	98
random	6	1	96	1568051	2	2	2	1	0	1418	1	4	0	176	94	0	2	98
random	6	1	97	1570462	4	3	3	1	0	995	1	4	0	184	95	0	2	98
random	6	1	98	1571902	3	2	2	1	0	942	1	4	0	176	96	0	2	98
random	6	1	99	1573202	6	3	3	1	0	1103	1	4	0	184	97	0	2	98
random	6	1	100	1574748	1	4	4	1	0	990	1	4	0	192	98	0	2	98
random	6	1	101	1576058	4	1	1	1	0	1654	1	4	0	168	99	0	2	98
random	6	1	102	1578089	5	2	2	1	0	1136	1	4	0	176	100	0	2	98
random	6	1	103	1579935	2	4	4	1	0	930	1	4	0	192	101	0	2	98
random	6	1	104	1581222	3	1	1	1	0	1123	1	4	0	168	102	0	2	98
random	6	1	105	1582796	1	3	3	1	0	1001	1	4	0	184	103	0	2	98
random	6	1	106	1584099	2	2	2	1	0	809	1	4	0	176	104	0	2	98
random	6	1	107	1585670	5	4	4	1	0	1055	1	4	0	192	105	0	2	98
random	6	1	108	1587592	6	1	1	1	0	646	1	4	0	168	106	0	2	98
random	6	1	109	1588823	5	4	4	1	0	1009	1	4	0	192	107	0	2	98
random	6	1	110	1590849	6	3	3	1	0	1340	1	4	0	184	108	0	2	98
random	6	1	111	1592894	2	2	2	1	0	901	1	4	0	176	109	0	2	98
random	6	1	112	1594561	3	1	1	1	0	1438	1	4	0	168	110	0	2	98
random	6	1	113	1596562	1	2	2	1	0	994	1	4	0	176	111	0	2	98
random	6	1	114	1598049	2	3	3	1	0	811	1	4	0	184	112	0	2	98
random	6	1	115	1599758	3	1	1	1	0	1050	1	4	0	168	113	0	2	98
random	6	1	116	1601825	4	4	4	1	0	899	1	4	0	192	114	0	2	98
random	6	1	117	1603244	6	1	1	1	0	943	1	4	0	168	115	0	2	98
random	6	1	118	1604602	5	3	0	1	2	0	3	4	0	184	115	0	3	97
random	6	1	119	1607596	1	4	4	1	0	935	1	4	0	192	116	0	3	97
random	6	1	120	1609045	4	2	2	1	0	1001	1	4	0	176	117	0	3	98
fixed	7	1	1	1611577	4	1	1	1	0	925	1	4	0	200	1	0	0	100
fixed	7	1	2	1613510	1	2	2	1	0	1116	1	4	0	208	2	0	0	100
fixed	7	1	3	1615178	6	4	4	1	0	941	1	4	0	224	3	0	0	100
fixed	7	1	4	1616811	2	1	1	1	0	1120	1	4	0	200	4	0	0	100
fixed	7	1	5	1618246	5	3	3	1	0	1715	1	4	0	216	5	0	0	100
fixed	7	1	6	1620317	6	4	4	1	0	1259	1	4	0	224	6	0	0	100
fixed	7	1	7	1622228	3	1	1	1	0	883	1	4	0	200	7	0	0	100
fixed	7	1	8	1623560	2	3	3	1	0	1234	1	4	0	216	8	0	0	100
fixed	7	1	9	1625641	3	2	2	1	0	826	1	4	0	208	9	0	0	100
fixed	7	1	10	1626845	1	4	4	1	0	935	1	4	0	224	10	0	0	100
fixed	7	1	11	1628115	5	2	2	1	0	1090	1	4	0	208	11	0	0	100
fixed	7	1	12	1629601	4	3	3	1	0	843	1	4	0	216	12	0	0	100
fixed	7	2	1	1631595	4	1	1	1	0	998	1	4	0	200	1	0	0	8
fixed	7	2	2	1633192	1	2	2	1	0	914	1	4	0	208	2	0	0	14
fixed	7	2	3	1634486	6	4	4	1	0	1131	1	4	0	224	3	0	0	20
fixed	7	2	4	1635974	2	1	1	1	0	1124	1	4	0	200	4	0	0	25
fixed	7	2	5	1637833	5	3	3	1	0	1190	1	4	0	216	5	0	0	29
fixed	7	2	6	1639866	6	4	4	1	0	1023	1	4	0	224	6	0	0	33
fixed	7	2	7	1641340	3	1	1	1	0	889	1	4	0	200	7	0	0	37
fixed	7	2	8	1642753	2	3	3	1	0	837	1	4	0	216	8	0	0	40
fixed	7	2	9	1643953	3	2	2	1	0	1179	1	4	0	208	9	0	0	43
fixed	7	2	10	1645589	1	4	4	1	0	1373	1	4	0	224	10	0	0	45
fixed	7	2	11	1647904	5	2	2	1	0	1371	1	4	0	208	11	0	0	48
fixed	7	2	12	1650094	4	3	3	1	0	838	1	4	0	216	12	0	0	50
fixed	7	3	1	1651661	4	1	1	1	0	948	1	4	0	200	1	0	0	4
fixed	7	3	2	1653546	1	2	2	1	0	972	1	4	0	208	2	0	0	8
fixed	7	3	3	1655036	6	4	4	1	0	973	1	4	0	224	3	0	0	11
fixed	7	3	4	1656743	2	1	1	1	0	869	1	4	0	200	4	0	0	14
fixed	7	3	5	1658011	5	3	3	1	0	2303	1	4	0	216	5	0	0	17
fixed	7	3	6	1661257	6	4	4	1	0	862	1	4	0	224	6	0	0	20
fixed	7	3	7	1662409	3	1	1	1	0	917	1	4	0	200	7	0	0	23
fixed	7	3	8	1664302	2	3	3	1	0	1029	1	4	0	216	8	0	0	25
fixed	7	3	9	1665987	3	2	2	1	0	781	1	4	0	208	9	0	0	27
fixed	7	3	10	1667558	1	4	4	1	0	939	1	4	0	224	10	0	0	29
fixed	7	3	11	1668810	5	2	2	1	0	1006	1	4	0	208	11	0	0	31
fixed	7	3	12	1670856	4	3	3	1	0	1239	1	4	0	216	12	0	0	33
fixed	7	4	1	1673347	4	1	1	1	0	1437	1	4	0	200	1	0	0	3
fixed	7	4	2	1675794	1	2	2	1	0	1190	1	4	0	208	2	0	0	5
fixed	7	4	3	1677480	6	4	4	1	0	870	1	4	0	224	3	0	0	8
fixed	7	4	4	1678748	2	1	1	1	0	1009	1	4	0	200	4	0	0	10
fixed	7	4	5	1680520	5	3	3	1	0	1294	1	4	0	216	5	0	0	12
fixed	7	4	6	1682237	6	4	4	1	0	877	1	4	0	224	6	0	0	14
fixed	7	4	7	1683962	3	1	1	1	0	908	1	4	0	200	7	0	0	16
fixed	7	4	8	1685170	2	3	3	1	0	1201	1	4	0	216	8	0	0	18
fixed	7	4	9	1686907	3	2	2	1	0	1231	1	4	0	208	9	0	0	20
fixed	7	4	10	1688840	1	4	4	1	0	1069	1	4	0	224	10	0	0	22
fixed	7	4	11	1690791	5	2	2	1	0	1250	1	4	0	208	11	0	0	23
fixed	7	4	12	1693016	4	3	3	1	0	1076	1	4	0	216	12	0	0	25
fixed	7	5	1	1694800	4	1	1	1	0	809	1	4	0	200	1	0	0	2
fixed	7	5	2	1696566	1	2	2	1	0	1422	1	4	0	208	2	0	0	4
fixed	7	5	3	1698546	6	4	4	1	0	890	1	4	0	224	3	0	0	6
fixed	7	5	4	1699869	2	1	1	1	0	898	1	4	0	200	4	0	0	8
fixed	7	5	5	1701346	5	3	3	1	0	1252	1	4	0	216	5	0	0	9
fixed	7	5	6	1703111	6	4	4	1	0	905	1	4	0	224	6	0	0	11
fixed	7	5	7	1704366	3	1	1	1	0	924	1	4	0	200	7	0	0	13
fixed	7	5	8	1705937	2	3	3	1	0	1041	1	4	0	216	8	0	0	14
fixed	7	5	9	1707858	3	2	2	1	0	944	1	4	0	208	9	0	0	16
fixed	7	5	10	1709795	1	4	4	1	0	854	1	4	0	224	10	0	0	17
fixed	7	5	11	1711162	5	2	2	1	0	1364	1	4	0	208	11	0	0	19
fixed	7	5	12	1713261	4	3	3	1	0	1059	1	4	0	216	12	0	0	20
fixed	7	6	1	1715267	4	1	1	1	0	806	1	4	0	200	1	0	0	2
fixed	7	6	2	1716635	1	2	2	1	0	1172	1	4	0	208	2	0	0	3
fixed	7	6	3	1718841	6	4	4	1	0	894	1	4	0	224	3	0	0	5
fixed	7	6	4	1720453	2	1	1	1	0	1002	1	4	0	200	4	0	0	6
fixed	7	6	5	1722446	5	3	3	1	0	1166	1	4	0	216	5	0	0	8
fixed	7	6	6	1724175	6	4	4	1	0	997	1	4	0	224	6	0	0	9
fixed	7	6	7	1725853	3	1	1	1	0	910	1	4	0	200	7	0	0	10
fixed	7	6	8	1727212	2	3	3	1	0	1292	1	4	0	216	8	0	0	12
fixed	7	6	9	1729184	3	2	2	1	0	1096	1	4	0	208	9	0	0	13
fixed	7	6	10	1731220	1	4	4	1	0	866	1	4	0	224	10	0	0	14
fixed	7	6	11	1732953	5	2	2	1	0	1145	1	4	0	208	11	0	0	15
fixed	7	6	12	1734876	4	3	3	1	0	1072	1	4	0	216	12	0	0	17
fixed	7	7	1	1736970	4	1	1	1	0	791	1	4	0	200	1	0	0	1
fixed	7	7	2	1738276	1	2	2	1	0	1127	1	4	0	208	2	0	0	3
fixed	7	7	3	1740117	6	4	4	1	0	969	1	4	0	224	3	0	0	4
fixed	7	7	4	1741618	2	1	1	1	0	1066	1	4	0	200	4	0	0	5
fixed	7	7	5	1743416	5	3	0	1	2	0	3	4	0	216	4	0	1	5
fixed	7	7	6	1746881	6	4	4	1	0	1331	1	4	0	224	5	0	1	6
fixed	7	7	7	1748787	3	1	1	1	0	738	1	4	0	200	6	0	1	8
fixed	7	7	8	1750243	2	3	3	1	0	965	1	4	0	216	7	0	1	9
fixed	7	7	9	1751729	3	2	2	1	0	998	1	4	0	208	8	0	1	10
fixed	7	7	10	1753052	1	4	4	1	0	886	1	4	0	224	9	0	1	11
fixed	7	7	11	1754427	5	2	2	1	0	1483	1	4	0	208	10	0	1	12
fixed	7	7	12	1756378	4	3	3	1	0	1025	1	4	0	216	11	0	1	13
fixed	7	8	1	1758523	4	1	1	1	0	782	1	4	0	200	1	0	0	1
fixed	7	8	2	1759593	1	2	2	1	0	1288	1	4	0	208	2	0	0	2
fixed	7	8	3	1761758	6	4	4	1	0	805	1	4	0	224	3	0	0	3
fixed	7	8	4	1763337	2	1	1	1	0	818	1	4	0	200	4	0	0	5
fixed	7	8	5	1764813	5	3	3	1	0	988	1	4	0	216	5	0	0	6
fixed	7	8	6	1766418	6	4	4	1	0	1224	1	4	0	224	6	0	0	7
fixed	7	8	7	1768554	3	1	1	1	0	717	1	4	0	200	7	0	0	8
fixed	7	8	8	1769957	2	3	3	1	0	1306	1	4	0	216	8	0	0	9
fixed	7	8	9	1771654	3	2	2	1	0	841	1	4	0	208	9	0	0	10
fixed	7	8	10	1772797	1	4	4	1	0	913	1	4	0	224	10	0	0	11
fixed	7	8	11	1774475	5	2	2	1	0	1107	1	4	0	208	11	0	0	12
fixed	7	8	12	1775905	4	3	3	1	0	926	1	4	0	216	12	0	0	13
fixed	7	9	1	1777971	4	1	1	1	0	830	1	4	0	200	1	0	0	1
fixed	7	9	2	1779300	1	2	2	1	0	1102	1	4	0	208	2	0	0	2
fixed	7	9	3	1780709	6	4	4	1	0	890	1	4	0	224	3	0	0	3
fixed	7	9	4	1782632	2	1	1	1	0	912	1	4	0	200	4	0	0	4
fixed	7	9	5	1783960	5	3	3	1	0	1025	1	4	0	216	5	0	0	5
fixed	7	9	6	1785942	6	4	4	1	0	852	1	4	0	224	6	0	0	6
fixed	7	9	7	1787814	3	1	1	1	0	837	1	4	0	200	7	0	0	7
fixed	7	9	8	1789372	2	3	3	1	0	1203	1	4	0	216	8	0	0	8
fixed	7	9	9	1791517	3	2	2	1	0	729	1	4	0	208	9	0	0	9
fixed	7	9	10	1793003	1	4	4	1	0	874	1	4	0	224	10	0	0	9
fixed	7	9	11	1794606	5	2	2	1	0	1454	1	4	0	208	11	0	0	10
fixed	7	9	12	1797098	4	3	3	1	0	1164	1	4	0	216	12	0	0	11
fixed	7	10	1	1799490	4	1	1	1	0	847	1	4	0	200	1	0	0	1
fixed	7	10	2	1800682	1	2	2	1	0	1316	1	4	0	208	2	0	0	2
fixed	7	10	3	1802407	6	4	4	1	0	915	1	4	0	224	3	0	0	3
fixed	7	10	4	1804242	2	1	1	1	0	845	1	4	0	200	4	0	0	4
fixed	7	10	5	1805771	5	3	3	1	0	1356	1	4	0	216	5	0	0	4
fixed	7	10	6	1807504	6	4	4	1	0	939	1	4	0	224	6	0	0	5
fixed	7	10	7	1808876	3	1	1	1	0	1113	1	4	0	200	7	0	0	6
fixed	7	10	8	1810628	2	3	3	1	0	1175	1	4	0	216	8	0	0	7
fixed	7	10	9	1812262	3	2	2	1	0	842	1	4	0	208	9	0	0	8
fixed	7	10	10	1813915	1	4	4	1	0	788	1	4	0	224	10	0	0	8
fixed	7	10	11	1815375	5	2	2	1	0	1014	1	4	0	208	11	0	0	9
fixed	7	10	12	1817392	4	3	3	1	0	665	1	4	0	216	12	0	0	10
