type;block;sequ.;trial;time;Pos.;Color;Button;NumRsp;Resp_1;RT_1;R_Code;Resp_2;RT_2;Trigg.;n_hit;n_inc;n_miss;score_%
random;0;0;0;18438;8;3;-1;1;0;2500;14;0;1000;0
random;0;0;1;20952;11;1;-1;1;0;2500;14;0;550;0
random;0;0;2;23467;8;3;-1;1;0;2500;14;0;900;0
random;0;0;3;25979;9;0;-1;1;0;2500;14;0;750;0
random;0;0;4;28495;12;2;-1;1;0;2500;14;0;600;0
random;0;0;5;31010;7;0;-1;1;0;2500;14;0;300;0
random;0;0;6;33529;10;1;-1;1;0;2500;14;0;400;0
random;0;0;7;36034;7;2;-1;1;0;2500;14;0;1000;0
random;0;0;8;38547;11;3;-1;1;0;2500;14;0;500;0
random;0;0;9;41057;10;2;-1;1;0;2500;14;0;800;0
random;0;0;10;43571;12;0;-1;1;0;2500;14;0;650;0
random;0;0;11;46085;9;1;-1;1;0;2500;14;0;700;0
random;0;1;0;48899;11;3;-1;1;0;2500;14;0;650;0
random;0;1;1;51414;12;2;-1;1;0;2500;14;0;600;0
random;0;1;2;53925;9;1;-1;1;0;2500;14;0;300;0
random;0;1;3;56444;8;2;-1;1;0;2500;14;0;1000;0
random;0;1;4;58947;12;1;-1;1;0;2500;14;0;900;0
random;0;1;5;61463;7;0;-1;1;0;2500;14;0;800;0
random;0;1;6;63967;8;3;-1;1;0;2500;14;0;750;0
random;0;1;7;66479;7;2;-1;1;0;2500;14;0;400;0
random;0;1;8;68991;10;1;-1;1;0;2500;14;0;1000;0
random;0;1;9;71502;9;0;-1;1;0;2500;14;0;500;0
random;0;1;10;74018;10;3;-1;1;0;2500;14;0;700;0
random;0;1;11;76527;11;0;-1;1;0;2500;14;0;550;0
random;0;2;0;79346;7;1;-1;1;0;2500;14;0;900;0
random;0;2;1;81850;11;0;-1;1;0;2500;14;0;300;0
random;0;2;2;84353;12;3;-1;1;0;2500;14;0;1000;0
random;0;2;3;86862;10;0;-1;1;0;2500;14;0;550;0
random;0;2;4;89369;9;2;-1;1;0;2500;14;0;1000;0
random;0;2;5;91882;8;1;-1;1;0;2500;14;0;400;0
random;0;2;6;94399;9;3;-1;1;0;2500;14;0;600;0
random;0;2;7;96911;11;2;-1;1;0;2500;14;0;500;0
random;0;2;8;99426;7;3;-1;1;0;2500;14;0;750;0
random;0;2;9;101931;12;2;-1;1;0;2500;14;0;650;0
random;0;2;10;104442;8;0;-1;1;0;2500;14;0;800;0
random;0;2;11;106960;10;1;-1;1;0;2500;14;0;700;0
random;0;3;0;109777;7;0;-1;1;0;2500;14;0;900;0
random;0;3;1;112290;11;2;-1;1;0;2500;14;0;300;0
random;0;3;2;114802;12;1;-1;1;0;2500;14;0;1000;0
random;0;3;3;117315;10;3;-1;1;0;2500;14;0;550;0
random;0;3;4;119830;9;1;-1;1;0;2500;14;0;1000;0
random;0;3;5;122339;8;0;-1;1;0;2500;14;0;400;0
random;0;3;6;124850;9;3;-1;1;0;2500;14;0;600;0
random;0;3;7;127364;11;2;-1;1;0;2500;14;0;500;0
random;0;3;8;129872;7;1;-1;1;0;2500;14;0;750;0
random;0;3;9;132383;12;2;-1;1;0;2500;14;0;650;0
random;0;3;10;134887;8;3;-1;1;0;2500;14;0;800;0
random;0;3;11;137395;10;0;-1;1;0;2500;14;0;700;0
random;0;4;0;140211;8;3;-1;1;0;2500;14;0;500;0
random;0;4;1;142728;12;2;-1;1;0;2500;14;0;600;0
random;0;4;2;145243;9;1;-1;1;0;2500;14;0;900;0
random;0;4;3;147760;12;0;-1;1;0;2500;14;0;1000;0
random;0;4;4;150275;11;3;-1;1;0;2500;14;0;650;0
random;0;4;5;152787;7;1;-1;1;0;2500;14;0;550;0
random;0;4;6;155304;10;3;-1;1;0;2500;14;0;800;0
random;0;4;7;157814;9;0;-1;1;0;2500;14;0;700;0
random;0;4;8;160330;11;2;-1;1;0;2500;14;0;1000;0
random;0;4;9;162848;8;1;-1;1;0;2500;14;0;300;0
random;0;4;10;165367;7;0;-1;1;0;2500;14;0;400;0
random;0;4;11;167884;10;2;-1;1;0;2500;14;0;750;0
random;0;5;0;170711;9;0;-1;1;0;2500;14;0;1000;0
random;0;5;1;173226;11;2;-1;1;0;2500;14;0;400;0
random;0;5;2;175741;7;3;-1;1;0;2500;14;0;750;0
random;0;5;3;178253;11;1;-1;1;0;2500;14;0;900;0
random;0;5;4;180770;8;2;-1;1;0;2500;14;0;300;0
random;0;5;5;183281;7;3;-1;1;0;2500;14;0;650;0
random;0;5;6;185791;10;0;-1;1;0;2500;14;0;550;0
random;0;5;7;188310;12;2;-1;1;0;2500;14;0;800;0
random;0;5;8;190823;10;1;-1;1;0;2500;14;0;500;0
random;0;5;9;193334;9;0;-1;1;0;2500;14;0;1000;0
random;0;5;10;195845;8;3;-1;1;0;2500;14;0;700;0
random;0;5;11;198357;12;1;-1;1;0;2500;14;0;600;0
random;0;6;0;201174;12;0;-1;1;0;2500;14;0;1000;0
random;0;6;1;203687;9;2;-1;1;0;2500;14;0;650;0
random;0;6;2;206200;12;1;-1;1;0;2500;14;0;900;0
random;0;6;3;208709;11;2;-1;1;0;2500;14;0;600;0
random;0;6;4;211228;9;0;-1;1;0;2500;14;0;400;0
random;0;6;5;213737;11;3;-1;1;0;2500;14;0;300;0
random;0;6;6;216244;8;1;-1;1;0;2500;14;0;700;0
random;0;6;7;218752;7;3;-1;1;0;2500;14;0;750;0
random;0;6;8;221260;10;1;-1;1;0;2500;14;0;500;0
random;0;6;9;223772;8;2;-1;1;0;2500;14;0;1000;0
random;0;6;10;226281;7;0;-1;1;0;2500;14;0;800;0
random;0;6;11;228797;10;3;-1;1;0;2500;14;0;550;0
random;0;7;0;231605;11;0;-1;1;0;2500;14;0;500;0
random;0;7;1;234113;7;1;-1;1;0;2500;14;0;650;0
random;0;7;2;236626;9;3;-1;1;0;2500;14;0;400;0
random;0;7;3;239145;10;2;-1;1;0;2500;14;0;750;0
random;0;7;4;241658;12;3;-1;1;0;2500;14;0;550;0
random;0;7;5;244170;11;1;-1;1;0;2500;14;0;700;0
random;0;7;6;246683;8;0;-1;1;0;2500;14;0;900;0
random;0;7;7;249197;7;2;-1;1;0;2500;14;0;1000;0
random;0;7;8;251711;10;3;-1;1;0;2500;14;0;300;0
random;0;7;9;254228;12;0;-1;1;0;2500;14;0;800;0
random;0;7;10;256741;9;2;-1;1;0;2500;14;0;600;0
random;0;7;11;259251;8;1;-1;1;0;2500;14;0;1000;0
random;0;8;0;262062;11;2;-1;1;0;2500;14;0;500;0
random;0;8;1;264570;10;0;-1;1;0;2500;14;0;550;0
random;0;8;2;267074;7;1;-1;1;0;2500;14;0;650;0
random;0;8;3;269583;9;3;-1;1;0;2500;14;0;600;0
random;0;8;4;272090;12;2;-1;1;0;2500;14;0;1000;0
random;0;8;5;274604;11;0;-1;1;0;2500;14;0;700;0
random;0;8;6;277114;8;1;-1;1;0;2500;14;0;400;0
random;0;8;7;279625;10;2;-1;1;0;2500;14;0;1000;0
random;0;8;8;282133;12;3;-1;1;0;2500;14;0;800;0
random;0;8;9;284636;9;0;-1;1;0;2500;14;0;750;0
random;0;8;10;287144;7;1;-1;1;0;2500;14;0;900;0
random;0;8;11;289655;8;3;-1;1;0;2500;14;0;300;0
random;0;9;0;292471;11;1;-1;1;0;2500;14;0;1000;0
random;0;9;1;294983;8;3;-1;1;0;2500;14;0;800;0
random;0;9;2;297492;12;3;-1;1;0;2500;14;0;550;0
random;0;9;3;299995;9;2;-1;1;0;2500;14;0;400;0
random;0;9;4;302509;10;0;-1;1;0;2500;14;0;700;0
random;0;9;5;305027;12;3;-1;1;0;2500;14;0;600;0
random;0;9;6;307530;9;1;-1;1;0;2500;14;0;500;0
random;0;9;7;310048;10;0;-1;1;0;2500;14;0;300;0
random;0;9;8;312562;11;2;-1;1;0;2500;14;0;650;0
random;0;9;9;315079;7;0;-1;1;0;2500;14;0;1000;0
random;0;9;10;317588;8;1;-1;1;0;2500;14;0;900;0
random;0;9;11;320099;7;2;-1;1;0;2500;14;0;750;0
fixed;1;0;0;322928;6;2;-1;1;0;2500;14;0;1000;0
fixed;1;0;1;325443;9;1;-1;1;0;2500;14;0;500;0
fixed;1;0;2;327960;8;0;-1;1;0;2500;14;0;650;0
fixed;1;0;3;330474;11;2;-1;1;0;2500;14;0;900;0
fixed;1;0;4;332992;7;3;-1;1;0;2500;14;0;1000;0
fixed;1;0;5;335510;9;1;-1;1;0;2500;14;0;400;0
fixed;1;0;6;338025;10;2;-1;1;0;2500;14;0;550;0
fixed;1;0;7;340542;8;0;-1;1;0;2500;14;0;800;0
fixed;1;0;8;343058;7;3;-1;1;0;2500;14;0;600;0
fixed;1;0;9;345562;6;1;-1;1;0;2500;14;0;750;0
fixed;1;0;10;348077;11;0;-1;1;0;2500;14;0;300;0
fixed;1;0;11;350592;10;3;-1;1;0;2500;14;0;700;0
fixed;1;1;0;353407;6;2;-1;1;0;2500;14;0;1000;0
fixed;1;1;1;355924;9;1;-1;1;0;2500;14;0;500;0
fixed;1;1;2;358439;8;0;-1;1;0;2500;14;0;650;0
fixed;1;1;3;360947;11;2;-1;1;0;2500;14;0;900;0
fixed;1;1;4;363455;7;3;-1;1;0;2500;14;0;1000;0
fixed;1;1;5;365973;9;1;-1;1;0;2500;14;0;400;0
fixed;1;1;6;368482;10;2;-1;1;0;2500;14;0;550;0
fixed;1;1;7;370997;8;0;-1;1;0;2500;14;0;800;0
fixed;1;1;8;373509;7;3;-1;1;0;2500;14;0;600;0
fixed;1;1;9;376021;6;1;-1;1;0;2500;14;0;750;0
fixed;1;1;10;378540;11;0;-1;1;0;2500;14;0;300;0
fixed;1;1;11;381052;10;3;-1;1;0;2500;14;0;700;0
fixed;1;2;0;383883;6;2;-1;1;0;2500;14;0;1000;0
fixed;1;2;1;386397;9;1;-1;1;0;2500;14;0;500;0
fixed;1;2;2;388912;8;0;-1;1;0;2500;14;0;650;0
fixed;1;2;3;391419;11;2;-1;1;0;2500;14;0;900;0
fixed;1;2;4;393937;7;3;-1;1;0;2500;14;0;1000;0
fixed;1;2;5;396441;9;1;-1;1;0;2500;14;0;400;0
fixed;1;2;6;398948;10;2;-1;1;0;2500;14;0;550;0
fixed;1;2;7;401456;8;0;-1;1;0;2500;14;0;800;0
fixed;1;2;8;403975;7;3;-1;1;0;2500;14;0;600;0
fixed;1;2;9;406481;6;1;-1;1;0;2500;14;0;750;0
fixed;1;2;10;408990;11;0;-1;1;0;2500;14;0;300;0
fixed;1;2;11;411504;10;3;-1;1;0;2500;14;0;700;0
fixed;1;3;0;414310;6;2;-1;1;0;2500;14;0;1000;0
fixed;1;3;1;416822;9;1;-1;1;0;2500;14;0;500;0
fixed;1;3;2;419334;8;0;-1;1;0;2500;14;0;650;0
fixed;1;3;3;421847;11;2;-1;1;0;2500;14;0;900;0
fixed;1;3;4;424362;7;3;-1;1;0;2500;14;0;1000;0
fixed;1;3;5;426878;9;1;-1;1;0;2500;14;0;400;0
fixed;1;3;6;429396;10;2;-1;1;0;2500;14;0;550;0
fixed;1;3;7;431909;8;0;-1;1;0;2500;14;0;800;0
fixed;1;3;8;434426;7;3;-1;1;0;2500;14;0;600;0
fixed;1;3;9;436942;6;1;-1;1;0;2500;14;0;750;0
fixed;1;3;10;439458;11;0;-1;1;0;2500;14;0;300;0
fixed;1;3;11;441974;10;3;-1;1;0;2500;14;0;700;0
fixed;1;4;0;444791;6;2;-1;1;0;2500;14;0;1000;0
fixed;1;4;1;447298;9;1;-1;1;0;2500;14;0;500;0
fixed;1;4;2;449804;8;0;-1;1;0;2500;14;0;650;0
fixed;1;4;3;452317;11;2;-1;1;0;2500;14;0;900;0
fixed;1;4;4;454830;7;3;-1;1;0;2500;14;0;1000;0
fixed;1;4;5;457342;9;1;-1;1;0;2500;14;0;400;0
fixed;1;4;6;459856;10;2;-1;1;0;2500;14;0;550;0
fixed;1;4;7;462369;8;0;-1;1;0;2500;14;0;800;0
fixed;1;4;8;464885;7;3;-1;1;0;2500;14;0;600;0
fixed;1;4;9;467393;6;1;-1;1;0;2500;14;0;750;0
fixed;1;4;10;469905;11;0;-1;1;0;2500;14;0;300;0
fixed;1;4;11;472414;10;3;-1;1;0;2500;14;0;700;0
fixed;1;5;0;475232;6;2;-1;1;0;2500;14;0;1000;0
fixed;1;5;1;477744;9;1;-1;1;0;2500;14;0;500;0
fixed;1;5;2;480255;8;0;-1;1;0;2500;14;0;650;0
fixed;1;5;3;482771;11;2;-1;1;0;2500;14;0;900;0
fixed;1;5;4;485289;7;3;-1;1;0;2500;14;0;1000;0
fixed;1;5;5;487804;9;1;-1;1;0;2500;14;0;400;0
fixed;1;5;6;490319;10;2;-1;1;0;2500;14;0;550;0
fixed;1;5;7;492832;8;0;-1;1;0;2500;14;0;800;0
fixed;1;5;8;495346;7;3;-1;1;0;2500;14;0;600;0
fixed;1;5;9;497862;6;1;-1;1;0;2500;14;0;750;0
fixed;1;5;10;500377;11;0;-1;1;0;2500;14;0;300;0
fixed;1;5;11;502895;10;3;-1;1;0;2500;14;0;700;0
fixed;1;6;0;505708;6;2;-1;1;0;2500;14;0;1000;0
fixed;1;6;1;508216;9;1;-1;1;0;2500;14;0;500;0
fixed;1;6;2;510733;8;0;-1;1;0;2500;14;0;650;0
fixed;1;6;3;513250;11;2;-1;1;0;2500;14;0;900;0
fixed;1;6;4;515767;7;3;-1;1;0;2500;14;0;1000;0
fixed;1;6;5;518277;9;1;-1;1;0;2500;14;0;400;0
fixed;1;6;6;520794;10;2;-1;1;0;2500;14;0;550;0
fixed;1;6;7;523308;8;0;-1;1;0;2500;14;0;800;0
fixed;1;6;8;525824;7;3;-1;1;0;2500;14;0;600;0
fixed;1;6;9;528340;6;1;-1;1;0;2500;14;0;750;0
fixed;1;6;10;530851;11;0;-1;1;0;2500;14;0;300;0
fixed;1;6;11;533366;10;3;-1;1;0;2500;14;0;700;0
fixed;1;7;0;536180;6;2;-1;1;0;2500;14;0;1000;0
fixed;1;7;1;538694;9;1;-1;1;0;2500;14;0;500;0
fixed;1;7;2;541208;8;0;-1;1;0;2500;14;0;650;0
fixed;1;7;3;543714;11;2;-1;1;0;2500;14;0;900;0
fixed;1;7;4;546223;7;3;-1;1;0;2500;14;0;1000;0
fixed;1;7;5;548736;9;1;-1;1;0;2500;14;0;400;0
fixed;1;7;6;551250;10;2;-1;1;0;2500;14;0;550;0
fixed;1;7;7;553764;8;0;-1;1;0;2500;14;0;800;0
fixed;1;7;8;556277;7;3;-1;1;0;2500;14;0;600;0
fixed;1;7;9;558793;6;1;-1;1;0;2500;14;0;750;0
fixed;1;7;10;561305;11;0;-1;1;0;2500;14;0;300;0
fixed;1;7;11;563809;10;3;-1;1;0;2500;14;0;700;0
fixed;1;8;0;566630;6;2;-1;1;0;2500;14;0;1000;0
fixed;1;8;1;569142;9;1;-1;1;0;2500;14;0;500;0
fixed;1;8;2;571657;8;0;-1;1;0;2500;14;0;650;0
fixed;1;8;3;574166;11;2;-1;1;0;2500;14;0;900;0
fixed;1;8;4;576683;7;3;-1;1;0;2500;14;0;1000;0
fixed;1;8;5;579200;9;1;-1;1;0;2500;14;0;400;0
fixed;1;8;6;581716;10;2;-1;1;0;2500;14;0;550;0
fixed;1;8;7;584230;8;0;-1;1;0;2500;14;0;800;0
fixed;1;8;8;586746;7;3;-1;1;0;2500;14;0;600;0
fixed;1;8;9;589257;6;1;-1;1;0;2500;14;0;750;0
fixed;1;8;10;591768;11;0;-1;1;0;2500;14;0;300;0
fixed;1;8;11;594275;10;3;-1;1;0;2500;14;0;700;0
fixed;1;9;0;597092;6;2;-1;1;0;2500;14;0;1000;0
fixed;1;9;1;599607;9;1;-1;1;0;2500;14;0;500;0
fixed;1;9;2;602120;8;0;-1;1;0;2500;14;0;650;0
fixed;1;9;3;604632;11;2;-1;1;0;2500;14;0;900;0
fixed;1;9;4;607145;7;3;-1;1;0;2500;14;0;1000;0
fixed;1;9;5;609650;9;1;-1;1;0;2500;14;0;400;0
fixed;1;9;6;612163;10;2;-1;1;0;2500;14;0;550;0
fixed;1;9;7;614673;8;0;-1;1;0;2500;14;0;800;0
fixed;1;9;8;617181;7;3;-1;1;0;2500;14;0;600;0
fixed;1;9;9;619685;6;1;-1;1;0;2500;14;0;750;0
fixed;1;9;10;622195;11;0;-1;1;0;2500;14;0;300;0
fixed;1;9;11;624705;10;3;-1;1;0;2500;14;0;700;0
fixed;2;0;0;627531;5;2;-1;1;0;2500;14;0;1000;0
fixed;2;0;1;630045;8;1;-1;1;0;2500;14;0;500;0
fixed;2;0;2;632552;7;0;-1;1;0;2500;14;0;650;0
fixed;2;0;3;635071;10;2;-1;1;0;2500;14;0;900;0
fixed;2;0;4;637582;6;3;-1;1;0;2500;14;0;1000;0
fixed;2;0;5;640087;8;1;-1;1;0;2500;14;0;400;0
fixed;2;0;6;642599;9;2;-1;1;0;2500;14;0;550;0
fixed;2;0;7;645104;7;0;-1;1;0;2500;14;0;800;0
fixed;2;0;8;647618;6;3;-1;1;0;2500;14;0;600;0
fixed;2;0;9;650121;5;1;-1;1;0;2500;14;0;750;0
fixed;2;0;10;652633;10;0;-1;1;0;2500;14;0;300;0
fixed;2;0;11;655151;9;3;-1;1;0;2500;14;0;700;0
fixed;2;1;0;657984;5;2;-1;1;0;2500;14;0;1000;0
fixed;2;1;1;660497;8;1;-1;1;0;2500;14;0;500;0
fixed;2;1;2;663009;7;0;-1;1;0;2500;14;0;650;0
fixed;2;1;3;665512;10;2;-1;1;0;2500;14;0;900;0
fixed;2;1;4;668028;6;3;-1;1;0;2500;14;0;1000;0
fixed;2;1;5;670539;8;1;-1;1;0;2500;14;0;400;0
fixed;2;1;6;673054;9;2;-1;1;0;2500;14;0;550;0
fixed;2;1;7;675568;7;0;-1;1;0;2500;14;0;800;0
fixed;2;1;8;678078;6;3;-1;1;0;2500;14;0;600;0
fixed;2;1;9;680592;5;1;-1;1;0;2500;14;0;750;0
fixed;2;1;10;683108;10;0;-1;1;0;2500;14;0;300;0
fixed;2;1;11;685618;9;3;-1;1;0;2500;14;0;700;0
fixed;2;2;0;688433;5;2;-1;1;0;2500;14;0;1000;0
fixed;2;2;1;690949;8;1;-1;1;0;2500;14;0;500;0
fixed;2;2;2;693462;7;0;-1;1;0;2500;14;0;650;0
fixed;2;2;3;695977;10;2;-1;1;0;2500;14;0;900;0
fixed;2;2;4;698482;6;3;-1;1;0;2500;14;0;1000;0
fixed;2;2;5;700993;8;1;-1;1;0;2500;14;0;400;0
fixed;2;2;6;703497;9;2;-1;1;0;2500;14;0;550;0
fixed;2;2;7;706005;7;0;-1;1;0;2500;14;0;800;0
fixed;2;2;8;708516;6;3;-1;1;0;2500;14;0;600;0
fixed;2;2;9;711031;5;1;-1;1;0;2500;14;0;750;0
fixed;2;2;10;713547;10;0;-1;1;0;2500;14;0;300;0
fixed;2;2;11;716062;9;3;-1;1;0;2500;14;0;700;0
fixed;2;3;0;718879;5;2;-1;1;0;2500;14;0;1000;0
fixed;2;3;1;721397;8;1;-1;1;0;2500;14;0;500;0
fixed;2;3;2;723903;7;0;-1;1;0;2500;14;0;650;0
fixed;2;3;3;726419;10;2;-1;1;0;2500;14;0;900;0
fixed;2;3;4;728934;6;3;-1;1;0;2500;14;0;1000;0
fixed;2;3;5;731446;8;1;-1;1;0;2500;14;0;400;0
fixed;2;3;6;733962;9;2;-1;1;0;2500;14;0;550;0
fixed;2;3;7;736473;7;0;-1;1;0;2500;14;0;800;0
fixed;2;3;8;738988;6;3;-1;1;0;2500;14;0;600;0
fixed;2;3;9;741499;5;1;-1;1;0;2500;14;0;750;0
fixed;2;3;10;744015;10;0;-1;1;0;2500;14;0;300;0
fixed;2;3;11;746533;9;3;-1;1;0;2500;14;0;700;0
fixed;2;4;0;749350;5;2;-1;1;0;2500;14;0;1000;0
fixed;2;4;1;751858;8;1;-1;1;0;2500;14;0;500;0
fixed;2;4;2;754373;7;0;-1;1;0;2500;14;0;650;0
fixed;2;4;3;756883;10;2;-1;1;0;2500;14;0;900;0
fixed;2;4;4;759399;6;3;-1;1;0;2500;14;0;1000;0
fixed;2;4;5;761914;8;1;-1;1;0;2500;14;0;400;0
fixed;2;4;6;764428;9;2;-1;1;0;2500;14;0;550;0
fixed;2;4;7;766941;7;0;-1;1;0;2500;14;0;800;0
fixed;2;4;8;769455;6;3;-1;1;0;2500;14;0;600;0
fixed;2;4;9;771969;5;1;-1;1;0;2500;14;0;750;0
fixed;2;4;10;774484;10;0;-1;1;0;2500;14;0;300;0
fixed;2;4;11;776999;9;3;-1;1;0;2500;14;0;700;0
fixed;2;5;0;779815;5;2;-1;1;0;2500;14;0;1000;0
fixed;2;5;1;782322;8;1;-1;1;0;2500;14;0;500;0
fixed;2;5;2;784828;7;0;-1;1;0;2500;14;0;650;0
fixed;2;5;3;787331;10;2;-1;1;0;2500;14;0;900;0
fixed;2;5;4;789848;6;3;-1;1;0;2500;14;0;1000;0
fixed;2;5;5;792361;8;1;-1;1;0;2500;14;0;400;0
fixed;2;5;6;794877;9;2;-1;1;0;2500;14;0;550;0
fixed;2;5;7;797393;7;0;-1;1;0;2500;14;0;800;0
fixed;2;5;8;799907;6;3;-1;1;0;2500;14;0;600;0
fixed;2;5;9;802416;5;1;-1;1;0;2500;14;0;750;0
fixed;2;5;10;804929;10;0;-1;1;0;2500;14;0;300;0
fixed;2;5;11;807436;9;3;-1;1;0;2500;14;0;700;0
fixed;2;6;0;810252;5;2;-1;1;0;2500;14;0;1000;0
fixed;2;6;1;812760;8;1;-1;1;0;2500;14;0;500;0
fixed;2;6;2;815264;7;0;-1;1;0;2500;14;0;650;0
fixed;2;6;3;817771;10;2;-1;1;0;2500;14;0;900;0
fixed;2;6;4;820276;6;3;-1;1;0;2500;14;0;1000;0
fixed;2;6;5;822780;8;1;-1;1;0;2500;14;0;400;0
fixed;2;6;6;825293;9;2;-1;1;0;2500;14;0;550;0
fixed;2;6;7;827808;7;0;-1;1;0;2500;14;0;800;0
fixed;2;6;8;830322;6;3;-1;1;0;2500;14;0;600;0
fixed;2;6;9;832832;5;1;-1;1;0;2500;14;0;750;0
fixed;2;6;10;835335;10;0;-1;1;0;2500;14;0;300;0
fixed;2;6;11;837848;9;3;-1;1;0;2500;14;0;700;0
fixed;2;7;0;840666;5;2;-1;1;0;2500;14;0;1000;0
fixed;2;7;1;843172;8;1;-1;1;0;2500;14;0;500;0
fixed;2;7;2;845689;7;0;-1;1;0;2500;14;0;650;0
fixed;2;7;3;848201;10;2;-1;1;0;2500;14;0;900;0
fixed;2;7;4;850716;6;3;-1;1;0;2500;14;0;1000;0
fixed;2;7;5;853232;8;1;-1;1;0;2500;14;0;400;0
fixed;2;7;6;855748;9;2;-1;1;0;2500;14;0;550;0
fixed;2;7;7;858263;7;0;-1;1;0;2500;14;0;800;0
fixed;2;7;8;860774;6;3;-1;1;0;2500;14;0;600;0
fixed;2;7;9;863293;5;1;-1;1;0;2500;14;0;750;0
fixed;2;7;10;865810;10;0;-1;1;0;2500;14;0;300;0
fixed;2;7;11;868320;9;3;-1;1;0;2500;14;0;700;0
fixed;2;8;0;871127;5;2;-1;1;0;2500;14;0;1000;0
fixed;2;8;1;873639;8;1;-1;1;0;2500;14;0;500;0
fixed;2;8;2;876150;7;0;-1;1;0;2500;14;0;650;0
fixed;2;8;3;878666;10;2;-1;1;0;2500;14;0;900;0
fixed;2;8;4;881182;6;3;-1;1;0;2500;14;0;1000;0
fixed;2;8;5;883698;8;1;-1;1;0;2500;14;0;400;0
fixed;2;8;6;886213;9;2;-1;1;0;2500;14;0;550;0
fixed;2;8;7;888732;7;0;-1;1;0;2500;14;0;800;0
fixed;2;8;8;891248;6;3;-1;1;0;2500;14;0;600;0
fixed;2;8;9;893761;5;1;-1;1;0;2500;14;0;750;0
fixed;2;8;10;896279;10;0;-1;1;0;2500;14;0;300;0
fixed;2;8;11;898786;9;3;-1;1;0;2500;14;0;700;0
fixed;2;9;0;901613;5;2;-1;1;0;2500;14;0;1000;0
fixed;2;9;1;904121;8;1;-1;1;0;2500;14;0;500;0
fixed;2;9;2;906633;7;0;-1;1;0;2500;14;0;650;0
fixed;2;9;3;909147;10;2;-1;1;0;2500;14;0;900;0
fixed;2;9;4;911666;6;3;-1;1;0;2500;14;0;1000;0
fixed;2;9;5;914177;8;1;-1;1;0;2500;14;0;400;0
fixed;2;9;6;916690;9;2;-1;1;0;2500;14;0;550;0
fixed;2;9;7;919196;7;0;-1;1;0;2500;14;0;800;0
fixed;2;9;8;921706;6;3;-1;1;0;2500;14;0;600;0
fixed;2;9;9;924219;5;1;-1;1;0;2500;14;0;750;0
fixed;2;9;10;926731;10;0;-1;1;0;2500;14;0;300;0
fixed;2;9;11;929244;9;3;-1;1;0;2500;14;0;700;0
fixed;3;0;0;932066;4;2;-1;1;0;2500;14;0;1000;0
fixed;3;0;1;934580;7;1;-1;1;0;2500;14;0;500;0
fixed;3;0;2;937095;6;0;-1;1;0;2500;14;0;650;0
fixed;3;0;3;939598;9;2;-1;1;0;2500;14;0;900;0
fixed;3;0;4;942110;5;3;-1;1;0;2500;14;0;1000;0
fixed;3;0;5;944626;7;1;-1;1;0;2500;14;0;400;0
fixed;3;0;6;947136;8;2;-1;1;0;2500;14;0;550;0
fixed;3;0;7;949654;6;0;-1;1;0;2500;14;0;800;0
fixed;3;0;8;952167;5;3;-1;1;0;2500;14;0;600;0
fixed;3;0;9;954684;4;1;-1;1;0;2500;14;0;750;0
fixed;3;0;10;957200;9;0;-1;1;0;2500;14;0;300;0
fixed;3;0;11;959717;8;3;-1;1;0;2500;14;0;700;0
fixed;3;1;0;962529;4;2;-1;1;0;2500;14;0;1000;0
fixed;3;1;1;965048;7;1;-1;1;0;2500;14;0;500;0
fixed;3;1;2;967559;6;0;-1;1;0;2500;14;0;650;0
fixed;3;1;3;970076;9;2;-1;1;0;2500;14;0;900;0
fixed;3;1;4;972587;5;3;-1;1;0;2500;14;0;1000;0
fixed;3;1;5;975100;7;1;-1;1;0;2500;14;0;400;0
fixed;3;1;6;977610;8;2;-1;1;0;2500;14;0;550;0
fixed;3;1;7;980118;6;0;-1;1;0;2500;14;0;800;0
fixed;3;1;8;982628;5;3;-1;1;0;2500;14;0;600;0
fixed;3;1;9;985143;4;1;-1;1;0;2500;14;0;750;0
fixed;3;1;10;987659;9;0;-1;1;0;2500;14;0;300;0
fixed;3;1;11;990163;8;3;-1;1;0;2500;14;0;700;0
fixed;3;2;0;992984;4;2;-1;1;0;2500;14;0;1000;0
fixed;3;2;1;995501;7;1;-1;1;0;2500;14;0;500;0
fixed;3;2;2;998011;6;0;-1;1;0;2500;14;0;650;0
fixed;3;2;3;1000522;9;2;-1;1;0;2500;14;0;900;0
fixed;3;2;4;1003030;5;3;-1;1;0;2500;14;0;1000;0
fixed;3;2;5;1005544;7;1;-1;1;0;2500;14;0;400;0
fixed;3;2;6;1008048;8;2;-1;1;0;2500;14;0;550;0
fixed;3;2;7;1010557;6;0;-1;1;0;2500;14;0;800;0
fixed;3;2;8;1013065;5;3;-1;1;0;2500;14;0;600;0
fixed;3;2;9;1015581;4;1;-1;1;0;2500;14;0;750;0
fixed;3;2;10;1018100;9;0;-1;1;0;2500;14;0;300;0
fixed;3;2;11;1020610;8;3;-1;1;0;2500;14;0;700;0
fixed;3;3;0;1023426;4;2;-1;1;0;2500;14;0;1000;0
fixed;3;3;1;1025942;7;1;-1;1;0;2500;14;0;500;0
fixed;3;3;2;1028458;6;0;-1;1;0;2500;14;0;650;0
fixed;3;3;3;1030970;9;2;-1;1;0;2500;14;0;900;0
fixed;3;3;4;1033488;5;3;-1;1;0;2500;14;0;1000;0
fixed;3;3;5;1036006;7;1;-1;1;0;2500;14;0;400;0
fixed;3;3;6;1038523;8;2;-1;1;0;2500;14;0;550;0
fixed;3;3;7;1041041;6;0;-1;1;0;2500;14;0;800;0
fixed;3;3;8;1043557;5;3;-1;1;0;2500;14;0;600;0
fixed;3;3;9;1046071;4;1;-1;1;0;2500;14;0;750;0
fixed;3;3;10;1048584;9;0;-1;1;0;2500;14;0;300;0
fixed;3;3;11;1051097;8;3;-1;1;0;2500;14;0;700;0
fixed;3;4;0;1053909;4;2;-1;1;0;2500;14;0;1000;0
fixed;3;4;1;1056417;7;1;-1;1;0;2500;14;0;500;0
fixed;3;4;2;1058934;6;0;-1;1;0;2500;14;0;650;0
fixed;3;4;3;1061450;9;2;-1;1;0;2500;14;0;900;0
fixed;3;4;4;1063966;5;3;-1;1;0;2500;14;0;1000;0
fixed;3;4;5;1066482;7;1;-1;1;0;2500;14;0;400;0
fixed;3;4;6;1069000;8;2;-1;1;0;2500;14;0;550;0
fixed;3;4;7;1071517;6;0;-1;1;0;2500;14;0;800;0
fixed;3;4;8;1074033;5;3;-1;1;0;2500;14;0;600;0
fixed;3;4;9;1076550;4;1;-1;1;0;2500;14;0;750;0
fixed;3;4;10;1079062;9;0;-1;1;0;2500;14;0;300;0
fixed;3;4;11;1081574;8;3;-1;1;0;2500;14;0;700;0
fixed;3;5;0;1084392;4;2;-1;1;0;2500;14;0;1000;0
fixed;3;5;1;1086903;7;1;-1;1;0;2500;14;0;500;0
fixed;3;5;2;1089417;6;0;-1;1;0;2500;14;0;650;0
fixed;3;5;3;1091928;9;2;-1;1;0;2500;14;0;900;0
fixed;3;5;4;1094442;5;3;-1;1;0;2500;14;0;1000;0
fixed;3;5;5;1096953;7;1;-1;1;0;2500;14;0;400;0
fixed;3;5;6;1099467;8;2;-1;1;0;2500;14;0;550;0
fixed;3;5;7;1101981;6;0;-1;1;0;2500;14;0;800;0
fixed;3;5;8;1104489;5;3;-1;1;0;2500;14;0;600;0
fixed;3;5;9;1107002;4;1;-1;1;0;2500;14;0;750;0
fixed;3;5;10;1109516;9;0;-1;1;0;2500;14;0;300;0
fixed;3;5;11;1112030;8;3;-1;1;0;2500;14;0;700;0
fixed;3;6;0;1114836;4;2;-1;1;0;2500;14;0;1000;0
fixed;3;6;1;1117350;7;1;-1;1;0;2500;14;0;500;0
fixed;3;6;2;1119864;6;0;-1;1;0;2500;14;0;650;0
fixed;3;6;3;1122375;9;2;-1;1;0;2500;14;0;900;0
fixed;3;6;4;1124892;5;3;-1;1;0;2500;14;0;1000;0
fixed;3;6;5;1127404;7;1;-1;1;0;2500;14;0;400;0
fixed;3;6;6;1129918;8;2;-1;1;0;2500;14;0;550;0
fixed;3;6;7;1132434;6;0;-1;1;0;2500;14;0;800;0
fixed;3;6;8;1134943;5;3;-1;1;0;2500;14;0;600;0
fixed;3;6;9;1137459;4;1;-1;1;0;2500;14;0;750;0
fixed;3;6;10;1139970;9;0;-1;1;0;2500;14;0;300;0
fixed;3;6;11;1142479;8;3;-1;1;0;2500;14;0;700;0
fixed;3;7;0;1145297;4;2;-1;1;0;2500;14;0;1000;0
fixed;3;7;1;1147814;7;1;-1;1;0;2500;14;0;500;0
fixed;3;7;2;1150332;6;0;-1;1;0;2500;14;0;650;0
fixed;3;7;3;1152843;9;2;-1;1;0;2500;14;0;900;0
fixed;3;7;4;1155354;5;3;-1;1;0;2500;14;0;1000;0
fixed;3;7;5;1157867;7;1;-1;1;0;2500;14;0;400;0
fixed;3;7;6;1160386;8;2;-1;1;0;2500;14;0;550;0
fixed;3;7;7;1162902;6;0;-1;1;0;2500;14;0;800;0
fixed;3;7;8;1165416;5;3;-1;1;0;2500;14;0;600;0
fixed;3;7;9;1167933;4;1;-1;1;0;2500;14;0;750;0
fixed;3;7;10;1170446;9;0;-1;1;0;2500;14;0;300;0
fixed;3;7;11;1172958;8;3;-1;1;0;2500;14;0;700;0
fixed;3;8;0;1175770;4;2;-1;1;0;2500;14;0;1000;0
fixed;3;8;1;1178287;7;1;-1;1;0;2500;14;0;500;0
fixed;3;8;2;1180802;6;0;-1;1;0;2500;14;0;650;0
fixed;3;8;3;1183314;9;2;-1;1;0;2500;14;0;900;0
fixed;3;8;4;1185825;5;3;-1;1;0;2500;14;0;1000;0
fixed;3;8;5;1188338;7;1;-1;1;0;2500;14;0;400;0
fixed;3;8;6;1190856;8;2;-1;1;0;2500;14;0;550;0
fixed;3;8;7;1193368;6;0;-1;1;0;2500;14;0;800;0
fixed;3;8;8;1195880;5;3;-1;1;0;2500;14;0;600;0
fixed;3;8;9;1198392;4;1;-1;1;0;2500;14;0;750;0
fixed;3;8;10;1200898;9;0;-1;1;0;2500;14;0;300;0
fixed;3;8;11;1203413;8;3;-1;1;0;2500;14;0;700;0
fixed;3;9;0;1206232;4;2;-1;1;0;2500;14;0;1000;0
fixed;3;9;1;1208747;7;1;-1;1;0;2500;14;0;500;0
fixed;3;9;2;1211250;6;0;-1;1;0;2500;14;0;650;0
fixed;3;9;3;1213762;9;2;-1;1;0;2500;14;0;900;0
fixed;3;9;4;1216278;5;3;-1;1;0;2500;14;0;1000;0
fixed;3;9;5;1218795;7;1;-1;1;0;2500;14;0;400;0
fixed;3;9;6;1221298;8;2;-1;1;0;2500;14;0;550;0
fixed;3;9;7;1223811;6;0;-1;1;0;2500;14;0;800;0
fixed;3;9;8;1226322;5;3;-1;1;0;2500;14;0;600;0
fixed;3;9;9;1228838;4;1;-1;1;0;2500;14;0;750;0
fixed;3;9;10;1231349;9;0;-1;1;0;2500;14;0;300;0
fixed;3;9;11;1233861;8;3;-1;1;0;2500;14;0;700;0
random;4;0;0;1236691;4;3;-1;1;0;2500;14;0;1000;0
random;4;0;1;1239204;7;1;-1;1;0;2500;14;0;550;0
random;4;0;2;1241720;4;3;-1;1;0;2500;14;0;900;0
random;4;0;3;1244234;5;0;-1;1;0;2500;14;0;750;0
random;4;0;4;1246748;8;2;-1;1;0;2500;14;0;600;0
random;4;0;5;1249264;3;0;-1;1;0;2500;14;0;300;0
random;4;0;6;1251779;6;1;-1;1;0;2500;14;0;400;0
random;4;0;7;1254292;3;2;-1;1;0;2500;14;0;1000;0
random;4;0;8;1256806;7;3;-1;1;0;2500;14;0;500;0
random;4;0;9;1259315;6;2;-1;1;0;2500;14;0;800;0
random;4;0;10;1261830;8;0;-1;1;0;2500;14;0;650;0
random;4;0;11;1264342;5;1;-1;1;0;2500;14;0;700;0
random;4;1;0;1267156;7;3;-1;1;0;2500;14;0;650;0
random;4;1;1;1269671;8;2;-1;1;0;2500;14;0;600;0
random;4;1;2;1272185;5;1;-1;1;0;2500;14;0;300;0
random;4;1;3;1274687;4;2;-1;1;0;2500;14;0;1000;0
random;4;1;4;1277201;8;1;-1;1;0;2500;14;0;900;0
random;4;1;5;1279711;3;0;-1;1;0;2500;14;0;800;0
random;4;1;6;1282217;4;3;-1;1;0;2500;14;0;750;0
random;4;1;7;1284721;3;2;-1;1;0;2500;14;0;400;0
random;4;1;8;1287233;6;1;-1;1;0;2500;14;0;1000;0
random;4;1;9;1289747;5;0;-1;1;0;2500;14;0;500;0
random;4;1;10;1292256;6;3;-1;1;0;2500;14;0;700;0
random;4;1;11;1294773;7;0;-1;1;0;2500;14;0;550;0
random;4;2;0;1297590;3;1;-1;1;0;2500;14;0;900;0
random;4;2;1;1300093;7;0;-1;1;0;2500;14;0;300;0
random;4;2;2;1302601;8;3;-1;1;0;2500;14;0;1000;0
random;4;2;3;1305117;6;0;-1;1;0;2500;14;0;550;0
random;4;2;4;1307630;5;2;-1;1;0;2500;14;0;1000;0
random;4;2;5;1310148;4;1;-1;1;0;2500;14;0;400;0
random;4;2;6;1312659;5;3;-1;1;0;2500;14;0;600;0
random;4;2;7;1315171;7;2;-1;1;0;2500;14;0;500;0
random;4;2;8;1317677;3;3;-1;1;0;2500;14;0;750;0
random;4;2;9;1320190;8;2;-1;1;0;2500;14;0;650;0
random;4;2;10;1322697;4;0;-1;1;0;2500;14;0;800;0
random;4;2;11;1325213;6;1;-1;1;0;2500;14;0;700;0
random;4;3;0;1328023;3;0;-1;1;0;2500;14;0;900;0
random;4;3;1;1330539;7;2;-1;1;0;2500;14;0;300;0
random;4;3;2;1333051;8;1;-1;1;0;2500;14;0;1000;0
random;4;3;3;1335566;6;3;-1;1;0;2500;14;0;550;0
random;4;3;4;1338080;5;1;-1;1;0;2500;14;0;1000;0
random;4;3;5;1340589;4;0;-1;1;0;2500;14;0;400;0
random;4;3;6;1343099;5;3;-1;1;0;2500;14;0;600;0
random;4;3;7;1345610;7;2;-1;1;0;2500;14;0;500;0
random;4;3;8;1348125;3;1;-1;1;0;2500;14;0;750;0
random;4;3;9;1350643;8;2;-1;1;0;2500;14;0;650;0
random;4;3;10;1353154;4;3;-1;1;0;2500;14;0;800;0
random;4;3;11;1355667;6;0;-1;1;0;2500;14;0;700;0
random;4;4;0;1358480;4;3;-1;1;0;2500;14;0;500;0
random;4;4;1;1360996;8;2;-1;1;0;2500;14;0;600;0
random;4;4;2;1363507;5;1;-1;1;0;2500;14;0;900;0
random;4;4;3;1366020;8;0;-1;1;0;2500;14;0;1000;0
random;4;4;4;1368533;7;3;-1;1;0;2500;14;0;650;0
random;4;4;5;1371050;3;1;-1;1;0;2500;14;0;550;0
random;4;4;6;1373560;6;3;-1;1;0;2500;14;0;800;0
random;4;4;7;1376078;5;0;-1;1;0;2500;14;0;700;0
random;4;4;8;1378594;7;2;-1;1;0;2500;14;0;1000;0
random;4;4;9;1381108;4;1;-1;1;0;2500;14;0;300;0
random;4;4;10;1383623;3;0;-1;1;0;2500;14;0;400;0
random;4;4;11;1386138;6;2;-1;1;0;2500;14;0;750;0
random;4;5;0;1388969;5;0;-1;1;0;2500;14;0;1000;0
random;4;5;1;1391483;7;2;-1;1;0;2500;14;0;400;0
random;4;5;2;1394000;3;3;-1;1;0;2500;14;0;750;0
random;4;5;3;1396503;7;1;-1;1;0;2500;14;0;900;0
random;4;5;4;1399014;4;2;-1;1;0;2500;14;0;300;0
random;4;5;5;1401526;3;3;-1;1;0;2500;14;0;650;0
random;4;5;6;1404042;6;0;-1;1;0;2500;14;0;550;0
random;4;5;7;1406551;8;2;-1;1;0;2500;14;0;800;0
random;4;5;8;1409059;6;1;-1;1;0;2500;14;0;500;0
random;4;5;9;1411566;5;0;-1;1;0;2500;14;0;1000;0
random;4;5;10;1414074;4;3;-1;1;0;2500;14;0;700;0
random;4;5;11;1416579;8;1;-1;1;0;2500;14;0;600;0
random;4;6;0;1419391;8;0;-1;1;0;2500;14;0;1000;0
random;4;6;1;1421900;5;2;-1;1;0;2500;14;0;650;0
random;4;6;2;1424407;8;1;-1;1;0;2500;14;0;900;0
random;4;6;3;1426920;7;2;-1;1;0;2500;14;0;600;0
random;4;6;4;1429436;5;0;-1;1;0;2500;14;0;400;0
random;4;6;5;1431950;7;3;-1;1;0;2500;14;0;300;0
random;4;6;6;1434463;4;1;-1;1;0;2500;14;0;700;0
random;4;6;7;1436976;3;3;-1;1;0;2500;14;0;750;0
random;4;6;8;1439491;6;1;-1;1;0;2500;14;0;500;0
random;4;6;9;1441999;4;2;-1;1;0;2500;14;0;1000;0
random;4;6;10;1444510;3;0;-1;1;0;2500;14;0;800;0
random;4;6;11;1447021;6;3;-1;1;0;2500;14;0;550;0
random;4;7;0;1449853;7;0;-1;1;0;2500;14;0;500;0
random;4;7;1;1452363;3;1;-1;1;0;2500;14;0;650;0
random;4;7;2;1454874;5;3;-1;1;0;2500;14;0;400;0
random;4;7;3;1457382;6;2;-1;1;0;2500;14;0;750;0
random;4;7;4;1459898;8;3;-1;1;0;2500;14;0;550;0
random;4;7;5;1462414;7;1;-1;1;0;2500;14;0;700;0
random;4;7;6;1464925;4;0;-1;1;0;2500;14;0;900;0
random;4;7;7;1467440;3;2;-1;1;0;2500;14;0;1000;0
random;4;7;8;1469957;6;3;-1;1;0;2500;14;0;300;0
random;4;7;9;1472470;8;0;-1;1;0;2500;14;0;800;0
random;4;7;10;1474982;5;2;-1;1;0;2500;14;0;600;0
random;4;7;11;1477491;4;1;-1;1;0;2500;14;0;1000;0
random;4;8;0;1480329;7;2;-1;1;0;2500;14;0;500;0
random;4;8;1;1482843;6;0;-1;1;0;2500;14;0;550;0
random;4;8;2;1485348;3;1;-1;1;0;2500;14;0;650;0
random;4;8;3;1487864;5;3;-1;1;0;2500;14;0;600;0
random;4;8;4;1490375;8;2;-1;1;0;2500;14;0;1000;0
random;4;8;5;1492890;7;0;-1;1;0;2500;14;0;700;0
random;4;8;6;1495407;4;1;-1;1;0;2500;14;0;400;0
random;4;8;7;1497916;6;2;-1;1;0;2500;14;0;1000;0
random;4;8;8;1500431;8;3;-1;1;0;2500;14;0;800;0
random;4;8;9;1502944;5;0;-1;1;0;2500;14;0;750;0
random;4;8;10;1505461;3;1;-1;1;0;2500;14;0;900;0
random;4;8;11;1507977;4;3;-1;1;0;2500;14;0;300;0
random;4;9;0;1510791;7;1;-1;1;0;2500;14;0;1000;0
random;4;9;1;1513304;4;3;-1;1;0;2500;14;0;800;0
random;4;9;2;1515812;8;3;-1;1;0;2500;14;0;550;0
random;4;9;3;1518321;5;2;-1;1;0;2500;14;0;400;0
random;4;9;4;1520830;6;0;-1;1;0;2500;14;0;700;0
random;4;9;5;1523334;8;3;-1;1;0;2500;14;0;600;0
random;4;9;6;1525845;5;1;-1;1;0;2500;14;0;500;0
random;4;9;7;1528355;6;0;-1;1;0;2500;14;0;300;0
random;4;9;8;1530858;7;2;-1;1;0;2500;14;0;650;0
random;4;9;9;1533370;3;0;-1;1;0;2500;14;0;1000;0
random;4;9;10;1535888;4;1;-1;1;0;2500;14;0;900;0
random;4;9;11;1538404;3;2;-1;1;0;2500;14;0;750;0
fixed;5;0;0;1541235;2;2;-1;1;0;2500;14;0;1000;0
fixed;5;0;1;1543750;5;1;-1;1;0;2500;14;0;500;0
fixed;5;0;2;1546263;4;0;-1;1;0;2500;14;0;650;0
fixed;5;0;3;1548770;7;2;-1;1;0;2500;14;0;900;0
fixed;5;0;4;1551286;3;3;-1;1;0;2500;14;0;1000;0
fixed;5;0;5;1553798;5;1;-1;1;0;2500;14;0;400;0
fixed;5;0;6;1556311;6;2;-1;1;0;2500;14;0;550;0
fixed;5;0;7;1558820;4;0;-1;1;0;2500;14;0;800;0
fixed;5;0;8;1561329;3;3;-1;1;0;2500;14;0;600;0
fixed;5;0;9;1563835;2;1;-1;1;0;2500;14;0;750;0
fixed;5;0;10;1566345;7;0;-1;1;0;2500;14;0;300;0
fixed;5;0;11;1568858;6;3;-1;1;0;2500;14;0;700;0
fixed;5;1;0;1571669;2;2;-1;1;0;2500;14;0;1000;0
fixed;5;1;1;1574183;5;1;-1;1;0;2500;14;0;500;0
fixed;5;1;2;1576692;4;0;-1;1;0;2500;14;0;650;0
fixed;5;1;3;1579206;7;2;-1;1;0;2500;14;0;900;0
fixed;5;1;4;1581717;3;3;-1;1;0;2500;14;0;1000;0
fixed;5;1;5;1584228;5;1;-1;1;0;2500;14;0;400;0
fixed;5;1;6;1586741;6;2;-1;1;0;2500;14;0;550;0
fixed;5;1;7;1589256;4;0;-1;1;0;2500;14;0;800;0
fixed;5;1;8;1591767;3;3;-1;1;0;2500;14;0;600;0
fixed;5;1;9;1594278;2;1;-1;1;0;2500;14;0;750;0
fixed;5;1;10;1596790;7;0;-1;1;0;2500;14;0;300;0
fixed;5;1;11;1599293;6;3;-1;1;0;2500;14;0;700;0
fixed;5;2;0;1602108;2;2;-1;1;0;2500;14;0;1000;0
fixed;5;2;1;1604620;5;1;-1;1;0;2500;14;0;500;0
fixed;5;2;2;1607128;4;0;-1;1;0;2500;14;0;650;0
fixed;5;2;3;1609631;7;2;-1;1;0;2500;14;0;900;0
fixed;5;2;4;1612142;3;3;-1;1;0;2500;14;0;1000;0
fixed;5;2;5;1614658;5;1;-1;1;0;2500;14;0;400;0
fixed;5;2;6;1617170;6;2;-1;1;0;2500;14;0;550;0
fixed;5;2;7;1619685;4;0;-1;1;0;2500;14;0;800;0
fixed;5;2;8;1622194;3;3;-1;1;0;2500;14;0;600;0
fixed;5;2;9;1624701;2;1;-1;1;0;2500;14;0;750;0
fixed;5;2;10;1627208;7;0;-1;1;0;2500;14;0;300;0
fixed;5;2;11;1629714;6;3;-1;1;0;2500;14;0;700;0
fixed;5;3;0;1632524;2;2;-1;1;0;2500;14;0;1000;0
fixed;5;3;1;1635038;5;1;-1;1;0;2500;14;0;500;0
fixed;5;3;2;1637551;4;0;-1;1;0;2500;14;0;650;0
fixed;5;3;3;1640068;7;2;-1;1;0;2500;14;0;900;0
fixed;5;3;4;1642579;3;3;-1;1;0;2500;14;0;1000;0
fixed;5;3;5;1645098;5;1;-1;1;0;2500;14;0;400;0
fixed;5;3;6;1647605;6;2;-1;1;0;2500;14;0;550;0
fixed;5;3;7;1650120;4;0;-1;1;0;2500;14;0;800;0
fixed;5;3;8;1652631;3;3;-1;1;0;2500;14;0;600;0
fixed;5;3;9;1655148;2;1;-1;1;0;2500;14;0;750;0
fixed;5;3;10;1657658;7;0;-1;1;0;2500;14;0;300;0
fixed;5;3;11;1660175;6;3;-1;1;0;2500;14;0;700;0
fixed;5;4;0;1662993;2;2;-1;1;0;2500;14;0;1000;0
fixed;5;4;1;1665502;5;1;-1;1;0;2500;14;0;500;0
fixed;5;4;2;1668013;4;0;-1;1;0;2500;14;0;650;0
fixed;5;4;3;1670531;7;2;-1;1;0;2500;14;0;900;0
fixed;5;4;4;1673045;3;3;-1;1;0;2500;14;0;1000;0
fixed;5;4;5;1675558;5;1;-1;1;0;2500;14;0;400;0
fixed;5;4;6;1678074;6;2;-1;1;0;2500;14;0;550;0
fixed;5;4;7;1680590;4;0;-1;1;0;2500;14;0;800;0
fixed;5;4;8;1683104;3;3;-1;1;0;2500;14;0;600;0
fixed;5;4;9;1685618;2;1;-1;1;0;2500;14;0;750;0
fixed;5;4;10;1688131;7;0;-1;1;0;2500;14;0;300;0
fixed;5;4;11;1690650;6;3;-1;1;0;2500;14;0;700;0
fixed;5;5;0;1693470;2;2;-1;1;0;2500;14;0;1000;0
fixed;5;5;1;1695984;5;1;-1;1;0;2500;14;0;500;0
fixed;5;5;2;1698500;4;0;-1;1;0;2500;14;0;650;0
fixed;5;5;3;1701015;7;2;-1;1;0;2500;14;0;900;0
fixed;5;5;4;1703529;3;3;-1;1;0;2500;14;0;1000;0
fixed;5;5;5;1706038;5;1;-1;1;0;2500;14;0;400;0
fixed;5;5;6;1708552;6;2;-1;1;0;2500;14;0;550;0
fixed;5;5;7;1711065;4;0;-1;1;0;2500;14;0;800;0
fixed;5;5;8;1713580;3;3;-1;1;0;2500;14;0;600;0
fixed;5;5;9;1716093;2;1;-1;1;0;2500;14;0;750;0
fixed;5;5;10;1718609;7;0;-1;1;0;2500;14;0;300;0
fixed;5;5;11;1721116;6;3;-1;1;0;2500;14;0;700;0
fixed;5;6;0;1723932;2;2;-1;1;0;2500;14;0;1000;0
fixed;5;6;1;1726445;5;1;-1;1;0;2500;14;0;500;0
fixed;5;6;2;1728956;4;0;-1;1;0;2500;14;0;650;0
fixed;5;6;3;1731465;7;2;-1;1;0;2500;14;0;900;0
fixed;5;6;4;1733976;3;3;-1;1;0;2500;14;0;1000;0
fixed;5;6;5;1736483;5;1;-1;1;0;2500;14;0;400;0
fixed;5;6;6;1738997;6;2;-1;1;0;2500;14;0;550;0
fixed;5;6;7;1741508;4;0;-1;1;0;2500;14;0;800;0
fixed;5;6;8;1744016;3;3;-1;1;0;2500;14;0;600;0
fixed;5;6;9;1746528;2;1;-1;1;0;2500;14;0;750;0
fixed;5;6;10;1749041;7;0;-1;1;0;2500;14;0;300;0
fixed;5;6;11;1751552;6;3;-1;1;0;2500;14;0;700;0
fixed;5;7;0;1754385;2;2;-1;1;0;2500;14;0;1000;0
fixed;5;7;1;1756899;5;1;-1;1;0;2500;14;0;500;0
fixed;5;7;2;1759414;4;0;-1;1;0;2500;14;0;650;0
fixed;5;7;3;1761924;7;2;-1;1;0;2500;14;0;900;0
fixed;5;7;4;1764431;3;3;-1;1;0;2500;14;0;1000;0
fixed;5;7;5;1766948;5;1;-1;1;0;2500;14;0;400;0
fixed;5;7;6;1769464;6;2;-1;1;0;2500;14;0;550;0
fixed;5;7;7;1771981;4;0;-1;1;0;2500;14;0;800;0
fixed;5;7;8;1774494;3;3;-1;1;0;2500;14;0;600;0
fixed;5;7;9;1777009;2;1;-1;1;0;2500;14;0;750;0
fixed;5;7;10;1779521;7;0;-1;1;0;2500;14;0;300;0
fixed;5;7;11;1782032;6;3;-1;1;0;2500;14;0;700;0
fixed;5;8;0;1784852;2;2;-1;1;0;2500;14;0;1000;0
fixed;5;8;1;1787361;5;1;-1;1;0;2500;14;0;500;0
fixed;5;8;2;1789867;4;0;-1;1;0;2500;14;0;650;0
fixed;5;8;3;1792384;7;2;-1;1;0;2500;14;0;900;0
fixed;5;8;4;1794898;3;3;-1;1;0;2500;14;0;1000;0
fixed;5;8;5;1797407;5;1;-1;1;0;2500;14;0;400;0
fixed;5;8;6;1799924;6;2;-1;1;0;2500;14;0;550;0
fixed;5;8;7;1802433;4;0;-1;1;0;2500;14;0;800;0
fixed;5;8;8;1804950;3;3;-1;1;0;2500;14;0;600;0
fixed;5;8;9;1807462;2;1;-1;1;0;2500;14;0;750;0
fixed;5;8;10;1809977;7;0;-1;1;0;2500;14;0;300;0
fixed;5;8;11;1812489;6;3;-1;1;0;2500;14;0;700;0
fixed;5;9;0;1815308;2;2;-1;1;0;2500;14;0;1000;0
fixed;5;9;1;1817820;5;1;-1;1;0;2500;14;0;500;0
fixed;5;9;2;1820336;4;0;-1;1;0;2500;14;0;650;0
fixed;5;9;3;1822848;7;2;-1;1;0;2500;14;0;900;0
fixed;5;9;4;1825363;3;3;-1;1;0;2500;14;0;1000;0
fixed;5;9;5;1827874;5;1;-1;1;0;2500;14;0;400;0
fixed;5;9;6;1830390;6;2;-1;1;0;2500;14;0;550;0
fixed;5;9;7;1832903;4;0;-1;1;0;2500;14;0;800;0
fixed;5;9;8;1835422;3;3;-1;1;0;2500;14;0;600;0
fixed;5;9;9;1837931;2;1;-1;1;0;2500;14;0;750;0
fixed;5;9;10;1840442;7;0;-1;1;0;2500;14;0;300;0
fixed;5;9;11;1842954;6;3;-1;1;0;2500;14;0;700;0
