type	block	sequ.	trial	time	Pos.	Color	Button	NumRsp	Resp_1	RT_1	R_Code	Resp_2	RT_2	Trigg.	n_hit	n_inc	n_miss	score_%

random	1	1	1	3379	6	1	1	1	0	1011	1	4	0	8	1	0	0	100
random	1	1	2	4964	4	4	4	1	0	864	1	4	0	32	2	0	0	100
random	1	1	3	6470	2	2	2	1	0	968	1	4	0	16	3	0	0	100
random	1	1	4	8230	3	3	3	1	0	774	1	4	0	24	4	0	0	100
random	1	1	5	9913	5	2	2	1	0	982	1	4	0	16	5	0	0	100
random	1	1	6	11626	1	4	4	1	0	702	1	4	0	32	6	0	0	100
random	1	1	7	12866	6	1	1	1	0	802	1	4	0	8	7	0	0	100
random	1	1	8	13974	2	3	3	1	0	1034	1	4	0	24	8	0	0	100
random	1	1	9	15945	4	2	2	1	0	911	1	4	0	16	9	0	0	100
random	1	1	10	17692	1	1	1	1	0	837	1	4	0	8	10	0	0	100
random	1	1	11	18935	5	4	4	1	0	864	1	4	0	32	11	0	0	100
random	1	1	12	20454	3	3	3	1	0	960	1	4	0	24	12	0	0	100
random	1	1	13	22060	5	2	2	1	0	932	1	4	0	16	13	0	0	100
random	1	1	14	24004	1	4	4	1	0	746	1	4	0	32	14	0	0	100
random	1	1	15	25316	3	1	1	1	0	755	1	4	0	8	15	0	0	100
random	1	1	16	27100	4	3	3	1	0	999	1	4	0	24	16	0	0	100
random	1	1	17	28634	6	4	4	1	0	806	1	4	0	32	17	0	0	100
random	1	1	18	29930	2	1	1	1	0	767	1	4	0	8	18	0	0	100
random	1	1	19	31193	5	3	3	1	0	1145	1	4	0	24	19	0	0	100
random	1	1	20	33351	2	2	2	1	0	998	1	4	0	16	20	0	0	100
random	1	1	21	35287	3	3	3	1	0	1020	1	4	0	24	21	0	0	100
random	1	1	22	36900	6	1	1	1	0	711	1	4	0	8	22	0	0	100
random	1	1	23	38634	4	2	2	1	0	1102	1	4	0	16	23	0	0	100
random	1	1	24	40144	1	4	4	1	0	838	1	4	0	32	24	0	0	100
random	1	1	25	41809	4	3	3	1	0	1215	1	4	0	24	25	0	0	100
random	1	1	26	43866	2	1	1	1	0	824	1	4	0	8	26	0	0	100
random	1	1	27	45092	5	2	2	1	0	1261	1	4	0	16	27	0	0	100
random	1	1	28	46866	6	4	4	1	0	882	1	4	0	32	28	0	0	100
random	1	1	29	48467	1	3	3	1	0	1054	1	4	0	24	29	0	0	100
random	1	1	30	50542	5	2	2	1	0	1110	1	4	0	16	30	0	0	100
random	1	1	31	52455	2	1	1	1	0	1349	1	4	0	8	31	0	0	100
random	1	1	32	54265	3	3	3	1	0	1336	1	4	0	24	32	0	0	100
random	1	1	33	56418	6	4	4	1	0	765	1	4	0	32	33	0	0	100
random	1	1	34	58073	4	2	2	1	0	999	1	4	0	16	34	0	0	100
random	1	1	35	59454	3	4	4	1	0	996	1	4	0	32	35	0	0	100
random	1	1	36	61065	1	1	1	1	0	944	1	4	0	8	36	0	0	100
random	1	1	37	62961	3	4	4	1	0	1176	1	4	0	32	37	0	0	100
random	1	1	38	64797	5	3	3	1	0	1410	1	4	0	24	38	0	0	100
random	1	1	39	66732	6	1	1	1	0	856	1	4	0	8	39	0	0	100
random	1	1	40	67920	1	2	2	1	0	901	1	4	0	16	40	0	0	100
random	1	1	41	69768	2	3	3	1	0	1152	1	4	0	24	41	0	0	100
random	1	1	42	71572	4	4	4	1	0	979	1	4	0	32	42	0	0	100
random	1	1	43	73341	1	2	2	1	0	1064	1	4	0	16	43	0	0	100
random	1	1	44	75290	6	3	3	1	0	885	1	4	0	24	44	0	0	100
random	1	1	45	76989	3	1	1	1	0	894	1	4	0	8	45	0	0	100
random	1	1	46	78252	4	4	4	1	0	1248	1	4	0	32	46	0	0	100
random	1	1	47	79874	2	2	2	1	0	1067	1	4	0	16	47	0	0	100
random	1	1	48	81737	5	1	1	1	0	869	1	4	0	8	48	0	0	100
random	1	1	49	83228	2	3	3	1	0	1077	1	4	0	24	49	0	0	100
random	1	1	50	84745	3	1	1	1	0	1005	1	4	0	8	50	0	0	100
random	1	1	51	86773	1	4	4	1	0	839	1	4	0	32	51	0	0	100
random	1	1	52	88335	5	3	3	1	0	941	1	4	0	24	52	0	0	100
random	1	1	53	89673	3	2	2	1	0	1029	1	4	0	16	53	0	0	100
random	1	1	54	91592	6	4	4	1	0	923	1	4	0	32	54	0	0	100
random	1	1	55	92824	4	2	2	1	0	1127	1	4	0	16	55	0	0	100
random	1	1	56	94859	1	1	1	1	0	841	1	4	0	8	56	0	0	100
random	1	1	57	95995	5	4	4	1	0	977	1	4	0	32	57	0	0	100
random	1	1	58	97397	2	1	1	1	0	1045	1	4	0	8	58	0	0	100
random	1	1	59	99021	6	2	2	1	0	1121	1	4	0	16	59	0	0	100
random	1	1	60	100745	4	3	3	1	0	880	1	4	0	24	60	0	0	100
random	1	1	61	102391	1	2	2	1	0	1274	1	4	0	16	61	0	0	100
random	1	1	62	104429	6	4	4	1	0	763	1	4	0	32	62	0	0	100
random	1	1	63	105670	4	1	1	1	0	863	1	4	0	8	63	0	0	100
random	1	1	64	106836	2	2	2	1	0	1189	1	4	0	16	64	0	0	100
random	1	1	65	108778	4	3	3	1	0	947	1	4	0	24	65	0	0	100
random	1	1	66	110651	3	1	1	1	0	820	1	4	0	8	66	0	0	100
random	1	1	67	112091	1	3	3	1	0	1471	1	4	0	24	67	0	0	100
random	1	1	68	114241	5	4	4	1	0	892	1	4	0	32	68	0	0	100
random	1	1	69	116152	2	2	2	1	0	819	1	4	0	16	69	0	0	100
random	1	1	70	117583	3	1	1	1	0	694	1	4	0	8	70	0	0	100
random	1	1	71	118898	5	4	4	1	0	774	1	4	0	32	71	0	0	100
random	1	1	72	120046	6	3	3	1	0	982	1	4	0	24	72	0	0	100
random	1	1	73	122039	2	1	1	1	0	1265	1	4	0	8	73	0	0	100
random	1	1	74	124040	5	3	3	1	0	1237	1	4	0	24	74	0	0	100
random	1	1	75	125630	1	4	4	1	0	785	1	4	0	32	75	0	0	100
random	1	1	76	127063	6	2	2	1	0	797	1	4	0	16	76	0	0	100
random	1	1	77	128853	2	1	1	1	0	921	1	4	0	8	77	0	0	100
random	1	1	78	130474	4	4	4	1	0	932	1	4	0	32	78	0	0	100
random	1	1	79	131818	3	2	2	1	0	1035	1	4	0	16	79	0	0	100
random	1	1	80	133664	4	3	3	1	0	870	1	4	0	24	80	0	0	100
random	1	1	81	135258	1	4	4	1	0	706	1	4	0	32	81	0	0	100
random	1	1	82	136943	5	1	1	1	0	762	1	4	0	8	82	0	0	100
random	1	1	83	138649	3	2	2	1	0	962	1	4	0	16	83	0	0	100
random	1	1	84	140061	6	3	3	1	0	918	1	4	0	24	84	0	0	100
random	1	1	85	141871	3	2	2	1	0	993	1	4	0	16	85	0	0	100
random	1	1	86	143340	1	3	3	2	0	1659	2	4	0	24	86	0	0	100
random	1	1	87	145853	4	4	4	1	0	961	1	4	0	32	87	0	0	100
random	1	1	88	147525	2	1	1	1	0	818	1	4	0	8	88	0	0	100
random	1	1	89	148921	6	4	4	1	0	1167	1	4	0	32	89	0	0	100
random	1	1	90	150666	3	3	3	1	0	1141	1	4	0	24	90	0	0	100
random	1	1	91	152354	5	4	4	1	0	902	1	4	0	32	91	0	0	100
random	1	1	92	153782	1	2	2	1	0	1049	1	4	0	16	92	0	0	100
random	1	1	93	155544	5	1	1	1	0	855	1	4	0	8	93	0	0	100
random	1	1	94	156953	4	3	3	1	0	1251	1	4	0	24	94	0	0	100
random	1	1	95	158906	6	1	1	1	0	840	1	4	0	8	95	0	0	100
random	1	1	96	160774	2	2	2	1	0	905	1	4	0	16	96	0	0	100
random	1	1	97	162305	4	3	3	1	0	1040	1	4	0	24	97	0	0	100
random	1	1	98	164386	3	2	2	1	0	1056	1	4	0	16	98	0	0	100
random	1	1	99	165823	6	3	3	1	0	1211	1	4	0	24	99	0	0	100
random	1	1	100	167929	1	4	4	1	0	890	1	4	0	32	100	0	0	100
random	1	1	101	169691	4	1	1	1	0	831	1	4	0	8	101	0	0	100
random	1	1	102	170927	5	2	2	1	0	1131	1	4	0	16	102	0	0	100
random	1	1	103	172993	2	4	4	1	0	676	1	4	0	32	103	0	0	100
random	1	1	104	174038	3	1	1	1	0	1023	1	4	0	8	104	0	0	100
random	1	1	105	175725	1	3	3	1	0	1504	1	4	0	24	105	0	0	100
random	1	1	106	178141	2	2	2	1	0	1177	1	4	0	16	106	0	0	100
random	1	1	107	179770	5	4	4	2	0	1652	2	4	0	32	107	0	0	100
random	1	1	108	181873	6	1	1	1	0	939	1	4	0	8	108	0	0	100
random	1	1	109	183424	5	4	4	1	0	1057	1	4	0	32	109	0	0	100
random	1	1	110	184927	6	3	3	1	0	1138	1	4	0	24	110	0	0	100
random	1	1	111	186409	2	2	2	1	0	859	1	4	0	16	111	0	0	100
random	1	1	112	187951	3	1	1	1	0	874	1	4	0	8	112	0	0	100
random	1	1	113	189183	1	2	2	1	0	1502	1	4	0	16	113	0	0	100
random	1	1	114	191087	2	3	3	1	0	1173	1	4	0	24	114	0	0	100
random	1	1	115	193266	3	1	1	1	0	953	1	4	0	8	115	0	0	100
random	1	1	116	194881	4	4	4	1	0	877	1	4	0	32	116	0	0	100
random	1	1	117	196742	6	1	1	1	0	1013	1	4	0	8	117	0	0	100
random	1	1	118	198423	5	3	3	1	0	1511	1	4	0	24	118	0	0	100
random	1	1	119	200756	1	4	4	1	0	772	1	4	0	32	119	0	0	100
random	1	1	120	202364	4	2	2	1	0	1192	1	4	0	16	120	0	0	100
fixed	2	1	1	204857	4	1	1	1	0	1142	1	4	0	40	1	0	0	100
fixed	2	1	2	206578	1	2	2	1	0	1221	1	4	0	48	2	0	0	100
fixed	2	1	3	208681	6	4	4	1	0	812	1	4	0	64	3	0	0	100
fixed	2	1	4	210122	2	1	1	1	0	855	1	4	0	40	4	0	0	100
fixed	2	1	5	211993	5	3	3	1	0	1167	1	4	0	56	5	0	0	100
fixed	2	1	6	213923	6	4	4	1	0	758	1	4	0	64	6	0	0	100
fixed	2	1	7	215088	3	1	1	1	0	1268	1	4	0	40	7	0	0	100
fixed	2	1	8	216877	2	3	3	1	0	1609	1	4	0	56	8	0	0	100
fixed	2	1	9	218942	3	2	2	1	0	913	1	4	0	48	9	0	0	100
fixed	2	1	10	220593	1	4	4	1	0	788	1	4	0	64	10	0	0	100
fixed	2	1	11	221906	5	2	2	1	0	1412	1	4	0	48	11	0	0	100
fixed	2	1	12	223944	4	3	3	1	0	1133	1	4	0	56	12	0	0	100
fixed	2	2	1	225727	4	1	1	1	0	946	1	4	0	40	13	0	0	100
fixed	2	2	2	227040	1	2	2	1	0	1291	1	4	0	48	14	0	0	100
fixed	2	2	3	229158	6	4	4	1	0	945	1	4	0	64	15	0	0	100
fixed	2	2	4	230422	2	1	1	1	0	955	1	4	0	40	16	0	0	100
fixed	2	2	5	232274	5	3	3	1	0	1876	1	4	0	56	17	0	0	100
fixed	2	2	6	234567	6	4	4	1	0	1107	1	4	0	64	18	0	0	100
fixed	2	2	7	236134	3	1	1	1	0	1041	1	4	0	40	19	0	0	100
fixed	2	2	8	237514	2	3	3	1	0	1367	1	4	0	56	20	0	0	100
fixed	2	2	9	239468	3	2	2	1	0	1460	1	4	0	48	21	0	0	100
fixed	2	2	10	241576	1	4	4	1	0	1019	1	4	0	64	22	0	0	100
fixed	2	2	11	243053	5	2	2	1	0	1292	1	4	0	48	23	0	0	100
fixed	2	2	12	244986	4	3	3	1	0	1395	1	4	0	56	24	0	0	100
fixed	2	3	1	247196	4	1	1	1	0	876	1	4	0	40	25	0	0	100
fixed	2	3	2	248633	1	2	2	1	0	1175	1	4	0	48	26	0	0	100
fixed	2	3	3	250825	6	4	4	1	0	811	1	4	0	64	27	0	0	100
fixed	2	3	4	252544	2	1	1	1	0	842	1	4	0	40	28	0	0	100
fixed	2	3	5	254229	5	3	3	1	0	1258	1	4	0	56	29	0	0	100
fixed	2	3	6	256454	6	4	4	1	0	844	1	4	0	64	30	0	0	100
fixed	2	3	7	258178	3	1	1	1	0	1291	1	4	0	40	31	0	0	100
fixed	2	3	8	260054	2	3	3	1	0	1116	1	4	0	56	32	0	0	100
fixed	2	3	9	261882	3	2	2	1	0	862	1	4	0	48	33	0	0	100
fixed	2	3	10	263186	1	4	4	1	0	911	1	4	0	64	34	0	0	100
fixed	2	3	11	264965	5	2	2	1	0	1156	1	4	0	48	35	0	0	100
fixed	2	3	12	267017	4	3	3	1	0	925	1	4	0	56	36	0	0	100
fixed	2	4	1	268616	4	1	1	1	0	921	1	4	0	40	37	0	0	100
fixed	2	4	2	270536	1	2	2	1	0	1160	1	4	0	48	38	0	0	100
fixed	2	4	3	272320	6	4	4	1	0	805	1	4	0	64	39	0	0	100
fixed	2	4	4	274135	2	1	1	1	0	920	1	4	0	40	40	0	0	100
fixed	2	4	5	275634	5	3	3	1	0	1224	1	4	0	56	41	0	0	100
fixed	2	4	6	277823	6	4	4	1	0	899	1	4	0	64	42	0	0	100
fixed	2	4	7	279302	3	1	1	1	0	997	1	4	0	40	43	0	0	100
fixed	2	4	8	280642	2	3	3	1	0	1428	1	4	0	56	44	0	0	100
fixed	2	4	9	282999	3	2	2	1	0	936	1	4	0	48	45	0	0	100
fixed	2	4	10	284328	1	4	4	1	0	904	1	4	0	64	46	0	0	100
fixed	2	4	11	285777	5	2	2	1	0	1098	1	4	0	48	47	0	0	100
fixed	2	4	12	287305	4	3	3	1	0	1194	1	4	0	56	48	0	0	100
fixed	2	5	1	289434	4	1	1	1	0	975	1	4	0	40	49	0	0	100
fixed	2	5	2	290881	1	2	2	1	0	1291	1	4	0	48	50	0	0	100
fixed	2	5	3	292968	6	4	4	1	0	690	1	4	0	64	51	0	0	100
fixed	2	5	4	294112	2	1	1	1	0	969	1	4	0	40	52	0	0	100
fixed	2	5	5	295710	5	3	3	1	0	1038	1	4	0	56	53	0	0	100
fixed	2	5	6	297538	6	4	4	1	0	880	1	4	0	64	54	0	0	100
fixed	2	5	7	298972	3	1	1	1	0	987	1	4	0	40	55	0	0	100
fixed	2	5	8	300268	2	3	3	1	0	1453	1	4	0	56	56	0	0	100
fixed	2	5	9	302473	3	2	2	1	0	839	1	4	0	48	57	0	0	100
fixed	2	5	10	303700	1	4	4	1	0	1011	1	4	0	64	58	0	0	100
fixed	2	5	11	305426	5	2	2	1	0	1178	1	4	0	48	59	0	0	100
fixed	2	5	12	307311	4	3	3	1	0	1250	1	4	0	56	60	0	0	100
fixed	2	6	1	309850	4	1	1	1	0	863	1	4	0	40	61	0	0	100
fixed	2	6	2	311386	1	2	2	1	0	1406	1	4	0	48	62	0	0	100
fixed	2	6	3	313318	6	4	4	1	0	868	1	4	0	64	63	0	0	100
fixed	2	6	4	315180	2	1	1	1	0	813	1	4	0	40	64	0	0	100
fixed	2	6	5	316723	5	3	3	1	0	956	1	4	0	56	65	0	0	100
fixed	2	6	6	318282	6	4	4	1	0	1058	1	4	0	64	66	0	0	100
fixed	2	6	7	320095	3	1	1	1	0	989	1	4	0	40	67	0	0	100
fixed	2	6	8	321456	2	3	3	1	0	1780	1	4	0	56	68	0	0	100
fixed	2	6	9	323623	3	2	2	1	0	984	1	4	0	48	69	0	0	100
fixed	2	6	10	325428	1	4	4	1	0	923	1	4	0	64	70	0	0	100
fixed	2	6	11	326993	5	2	2	1	0	1649	1	4	0	48	71	0	0	100
fixed	2	6	12	329106	4	3	3	1	0	1023	1	4	0	56	72	0	0	100
fixed	2	7	1	331002	4	1	1	1	0	919	1	4	0	40	73	0	0	100
fixed	2	7	2	332698	1	2	2	1	0	1263	1	4	0	48	74	0	0	100
fixed	2	7	3	334813	6	4	4	1	0	853	1	4	0	64	75	0	0	100
fixed	2	7	4	336132	2	1	1	1	0	1078	1	4	0	40	76	0	0	100
fixed	2	7	5	338000	5	3	3	1	0	1086	1	4	0	56	77	0	0	100
fixed	2	7	6	339716	6	4	4	1	0	830	1	4	0	64	78	0	0	100
fixed	2	7	7	341408	3	1	1	1	0	990	1	4	0	40	79	0	0	100
fixed	2	7	8	342775	2	3	3	1	0	1301	1	4	0	56	80	0	0	100
fixed	2	7	9	345002	3	2	2	1	0	1054	1	4	0	48	81	0	0	100
fixed	2	7	10	346753	1	4	4	1	0	908	1	4	0	64	82	0	0	100
fixed	2	7	11	348512	5	2	2	1	0	1265	1	4	0	48	83	0	0	100
fixed	2	7	12	350729	4	3	3	1	0	836	1	4	0	56	84	0	0	100
fixed	2	8	1	352488	4	1	1	1	0	953	1	4	0	40	85	0	0	100
fixed	2	8	2	354165	1	2	2	1	0	1394	1	4	0	48	86	0	0	100
fixed	2	8	3	356352	6	4	4	1	0	1085	1	4	0	64	87	0	0	100
fixed	2	8	4	357781	2	1	1	1	0	1137	1	4	0	40	88	0	0	100
fixed	2	8	5	359710	5	3	3	1	0	1167	1	4	0	56	89	0	0	100
fixed	2	8	6	361898	6	4	4	1	0	826	1	4	0	64	90	0	0	100
fixed	2	8	7	363441	3	1	1	1	0	1393	1	4	0	40	91	0	0	100
fixed	2	8	8	365618	2	3	3	1	0	1277	1	4	0	56	92	0	0	100
fixed	2	8	9	367627	3	2	2	1	0	800	1	4	0	48	93	0	0	100
fixed	2	8	10	368764	1	4	4	1	0	872	1	4	0	64	94	0	0	100
fixed	2	8	11	370244	5	2	2	1	0	1017	1	4	0	48	95	0	0	100
fixed	2	8	12	371634	4	3	3	1	0	934	1	4	0	56	96	0	0	100
fixed	2	9	1	373707	4	1	1	1	0	814	1	4	0	40	97	0	0	100
fixed	2	9	2	375524	1	2	2	1	0	1122	1	4	0	48	98	0	0	100
fixed	2	9	3	377461	6	4	4	1	0	736	1	4	0	64	99	0	0	100
fixed	2	9	4	378520	2	1	1	1	0	826	1	4	0	40	100	0	0	100
fixed	2	9	5	379783	5	3	3	1	0	1133	1	4	0	56	101	0	0	100
fixed	2	9	6	381236	6	4	4	1	0	872	1	4	0	64	102	0	0	100
fixed	2	9	7	382564	3	1	1	1	0	967	1	4	0	40	103	0	0	100
fixed	2	9	8	384538	2	3	3	1	0	1580	1	4	0	56	104	0	0	100
fixed	2	9	9	386890	3	2	2	1	0	856	1	4	0	48	105	0	0	100
fixed	2	9	10	388591	1	4	4	1	0	744	1	4	0	64	106	0	0	100
fixed	2	9	11	389935	5	2	2	1	0	1263	1	4	0	48	107	0	0	100
fixed	2	9	12	391550	4	3	3	1	0	1218	1	4	0	56	108	0	0	100
fixed	2	10	1	393355	4	1	1	1	0	806	1	4	0	40	109	0	0	100
fixed	2	10	2	394606	1	2	2	1	0	1833	1	4	0	48	110	0	0	100
fixed	2	10	3	396976	6	4	4	1	0	925	1	4	0	64	111	0	0	100
fixed	2	10	4	398535	2	1	1	1	0	939	1	4	0	40	112	0	0	100
fixed	2	10	5	400134	5	3	3	1	0	1199	1	4	0	56	113	0	0	100
fixed	2	10	6	401926	6	4	4	1	0	771	1	4	0	64	114	0	0	100
fixed	2	10	7	403504	3	1	1	1	0	1248	1	4	0	40	115	0	0	100
fixed	2	10	8	405129	2	3	3	1	0	1668	1	4	0	56	116	0	0	100
fixed	2	10	9	407723	3	2	2	1	0	853	1	4	0	48	117	0	0	100
fixed	2	10	10	409179	1	4	4	1	0	856	1	4	0	64	118	0	0	100
fixed	2	10	11	410493	5	2	2	1	0	1137	1	4	0	48	119	0	0	100
fixed	2	10	12	412097	4	3	3	1	0	1013	1	4	0	56	120	0	0	100
fixed	3	1	1	414287	4	1	1	1	0	959	1	4	0	72	1	0	0	100
fixed	3	1	2	415861	1	2	2	1	0	1013	1	4	0	80	2	0	0	100
fixed	3	1	3	417707	6	4	4	1	0	759	1	4	0	96	3	0	0	100
fixed	3	1	4	419388	2	1	1	1	0	831	1	4	0	72	4	0	0	100
fixed	3	1	5	420883	5	3	3	1	0	1336	1	4	0	88	5	0	0	100
fixed	3	1	6	422954	6	4	4	1	0	945	1	4	0	96	6	0	0	100
fixed	3	1	7	424917	3	1	1	1	0	1149	1	4	0	72	7	0	0	100
fixed	3	1	8	427085	2	3	3	2	0	2426	2	4	0	88	8	0	0	100
fixed	3	1	9	430502	3	2	2	1	0	1113	1	4	0	80	9	0	0	100
fixed	3	1	10	431924	1	4	4	1	0	1093	1	4	0	96	10	0	0	100
fixed	3	1	11	434036	5	2	2	1	0	1067	1	4	0	80	11	0	0	100
fixed	3	1	12	435675	4	3	3	1	0	933	1	4	0	88	12	0	0	100
fixed	3	2	1	437630	4	1	1	1	0	747	1	4	0	72	13	0	0	100
fixed	3	2	2	438878	1	2	2	1	0	1086	1	4	0	80	14	0	0	100
fixed	3	2	3	440288	6	4	4	1	0	842	1	4	0	96	15	0	0	100
fixed	3	2	4	441833	2	1	1	1	0	793	1	4	0	72	16	0	0	100
fixed	3	2	5	443383	5	3	3	2	0	2247	2	4	0	88	17	0	0	100
fixed	3	2	6	446296	6	4	4	1	0	828	1	4	0	96	18	0	0	100
fixed	3	2	7	447848	3	1	1	1	0	1098	1	4	0	72	19	0	0	100
fixed	3	2	8	449408	2	3	3	1	0	1344	1	4	0	88	20	0	0	100
fixed	3	2	9	451652	3	2	2	1	0	833	1	4	0	80	21	0	0	100
fixed	3	2	10	452833	1	4	4	1	0	799	1	4	0	96	22	0	0	100
fixed	3	2	11	453949	5	2	2	1	0	1184	1	4	0	80	23	0	0	100
fixed	3	2	12	455526	4	3	3	1	0	981	1	4	0	88	24	0	0	100
fixed	3	3	1	457746	4	1	1	1	0	831	1	4	0	72	25	0	0	100
fixed	3	3	2	458999	1	2	2	1	0	1002	1	4	0	80	26	0	0	100
fixed	3	3	3	461027	6	4	4	1	0	788	1	4	0	96	27	0	0	100
fixed	3	3	4	462234	2	1	1	1	0	929	1	4	0	72	28	0	0	100
fixed	3	3	5	463453	5	3	3	1	0	1133	1	4	0	88	29	0	0	100
fixed	3	3	6	465109	6	4	4	1	0	935	1	4	0	96	30	0	0	100
fixed	3	3	7	466579	3	1	1	1	0	921	1	4	0	72	31	0	0	100
fixed	3	3	8	468053	2	3	3	1	0	1466	1	4	0	88	32	0	0	100
fixed	3	3	9	470546	3	2	2	1	0	841	1	4	0	80	33	0	0	100
fixed	3	3	10	472295	1	4	4	1	0	823	1	4	0	96	34	0	0	100
fixed	3	3	11	474040	5	2	2	1	0	1029	1	4	0	80	35	0	0	100
fixed	3	3	12	475686	4	3	3	1	0	1287	1	4	0	88	36	0	0	100
fixed	3	4	1	478063	4	1	1	1	0	914	1	4	0	72	37	0	0	100
fixed	3	4	2	479342	1	2	2	1	0	1068	1	4	0	80	38	0	0	100
fixed	3	4	3	481143	6	4	4	1	0	824	1	4	0	96	39	0	0	100
fixed	3	4	4	482591	2	1	1	1	0	778	1	4	0	72	40	0	0	100
fixed	3	4	5	484270	5	3	3	1	0	1220	1	4	0	88	41	0	0	100
fixed	3	4	6	486381	6	4	4	1	0	858	1	4	0	96	42	0	0	100
fixed	3	4	7	487982	3	1	1	1	0	750	1	4	0	72	43	0	0	100
fixed	3	4	8	489187	2	3	3	1	0	1339	1	4	0	88	44	0	0	100
fixed	3	4	9	491441	3	2	2	1	0	1076	1	4	0	80	45	0	0	100
fixed	3	4	10	493352	1	4	4	1	0	1059	1	4	0	96	46	0	0	100
fixed	3	4	11	495160	5	2	2	1	0	1246	1	4	0	80	47	0	0	100
fixed	3	4	12	496916	4	3	3	1	0	1380	1	4	0	88	48	0	0	100
fixed	3	5	1	499048	4	1	1	1	0	969	1	4	0	72	49	0	0	100
fixed	3	5	2	500383	1	2	2	1	0	1185	1	4	0	80	50	0	0	100
fixed	3	5	3	501872	6	4	4	1	0	914	1	4	0	96	51	0	0	100
fixed	3	5	4	503427	2	1	1	1	0	1368	1	4	0	72	52	0	0	100
fixed	3	5	5	505546	5	3	3	1	0	1262	1	4	0	88	53	0	0	100
fixed	3	5	6	507421	6	4	4	1	0	847	1	4	0	96	54	0	0	100
fixed	3	5	7	509157	3	1	1	1	0	1773	1	4	0	72	55	0	0	100
fixed	3	5	8	511721	2	3	3	1	0	1697	1	4	0	88	56	0	0	100
fixed	3	5	9	513881	3	2	2	1	0	1101	1	4	0	80	57	0	0	100
fixed	3	5	10	515420	1	4	4	1	0	916	1	4	0	96	58	0	0	100
fixed	3	5	11	517306	5	2	2	1	0	1644	1	4	0	80	59	0	0	100
fixed	3	5	12	519356	4	3	3	1	0	1254	1	4	0	88	60	0	0	100
fixed	3	6	1	521436	4	1	1	1	0	853	1	4	0	72	61	0	0	100
fixed	3	6	2	523262	1	2	2	1	0	1912	1	4	0	80	62	0	0	100
fixed	3	6	3	526057	6	4	4	1	0	770	1	4	0	96	63	0	0	100
fixed	3	6	4	527253	2	1	1	1	0	1007	1	4	0	72	64	0	0	100
fixed	3	6	5	528680	5	3	3	1	0	1075	1	4	0	88	65	0	0	100
fixed	3	6	6	530580	6	4	4	1	0	922	1	4	0	96	66	0	0	100
fixed	3	6	7	532468	3	1	1	1	0	970	1	4	0	72	67	0	0	100
fixed	3	6	8	533883	2	3	3	1	0	1454	1	4	0	88	68	0	0	100
fixed	3	6	9	535920	3	2	2	1	0	976	1	4	0	80	69	0	0	100
fixed	3	6	10	537535	1	4	4	1	0	980	1	4	0	96	70	0	0	100
fixed	3	6	11	539325	5	2	2	1	0	1192	1	4	0	80	71	0	0	100
fixed	3	6	12	541461	4	3	3	1	0	1341	1	4	0	88	72	0	0	100
fixed	3	7	1	543490	4	1	1	1	0	1839	1	4	0	72	73	0	0	100
fixed	3	7	2	546010	1	2	2	1	0	1565	1	4	0	80	74	0	0	100
fixed	3	7	3	548557	6	4	4	1	0	1009	1	4	0	96	75	0	0	100
fixed	3	7	4	550514	2	1	1	1	0	1758	1	4	0	72	76	0	0	100
fixed	3	7	5	553273	5	3	3	1	0	1265	1	4	0	88	77	0	0	100
fixed	3	7	6	555162	6	4	4	1	0	1425	1	4	0	96	78	0	0	100
fixed	3	7	7	557325	3	1	1	1	0	1797	1	4	0	72	79	0	0	100
fixed	3	7	8	559942	2	3	3	1	0	1263	1	4	0	88	80	0	0	100
fixed	3	7	9	562109	3	2	2	1	0	1059	1	4	0	80	81	0	0	100
fixed	3	7	10	563557	1	4	4	1	0	901	1	4	0	96	82	0	0	100
fixed	3	7	11	565273	5	2	2	1	0	1117	1	4	0	80	83	0	0	100
fixed	3	7	12	567403	4	3	3	1	0	1026	1	4	0	88	84	0	0	100
fixed	3	8	1	569637	4	1	1	1	0	1107	1	4	0	72	85	0	0	100
fixed	3	8	2	571703	1	2	2	1	0	1220	1	4	0	80	86	0	0	100
fixed	3	8	3	573361	6	4	4	1	0	878	1	4	0	96	87	0	0	100
fixed	3	8	4	575220	2	1	1	1	0	903	1	4	0	72	88	0	0	100
fixed	3	8	5	576886	5	3	3	1	0	1272	1	4	0	88	89	0	0	100
fixed	3	8	6	579197	6	4	4	1	0	839	1	4	0	96	90	0	0	100
fixed	3	8	7	580494	3	1	1	1	0	1816	1	4	0	72	91	0	0	100
fixed	3	8	8	582795	2	3	3	1	0	1231	1	4	0	88	92	0	0	100
fixed	3	8	9	585015	3	2	2	1	0	880	1	4	0	80	93	0	0	100
fixed	3	8	10	586705	1	4	4	1	0	993	1	4	0	96	94	0	0	100
fixed	3	8	11	588564	5	2	2	1	0	1546	1	4	0	80	95	0	0	100
fixed	3	8	12	590622	4	3	3	1	0	1011	1	4	0	88	96	0	0	100
fixed	3	9	1	592410	4	1	1	1	0	767	1	4	0	72	97	0	0	100
fixed	3	9	2	593756	1	2	2	1	0	1134	1	4	0	80	98	0	0	100
fixed	3	9	3	595222	6	4	4	1	0	920	1	4	0	96	99	0	0	100
fixed	3	9	4	596552	2	1	1	1	0	1271	1	4	0	72	100	0	0	100
fixed	3	9	5	598745	5	3	3	1	0	1155	1	4	0	88	101	0	0	100
fixed	3	9	6	600507	6	4	4	1	0	824	1	4	0	96	102	0	0	100
fixed	3	9	7	602210	3	1	1	1	0	1272	1	4	0	72	103	0	0	100
fixed	3	9	8	603955	2	3	3	1	0	1470	1	4	0	88	104	0	0	100
fixed	3	9	9	606274	3	2	2	1	0	1604	1	4	0	80	105	0	0	100
fixed	3	9	10	608234	1	4	4	1	0	841	1	4	0	96	106	0	0	100
fixed	3	9	11	609485	5	2	2	1	0	1012	1	4	0	80	107	0	0	100
fixed	3	9	12	611517	4	3	3	1	0	1166	1	4	0	88	108	0	0	100
fixed	3	10	1	613294	4	1	1	1	0	714	1	4	0	72	109	0	0	100
fixed	3	10	2	614845	1	2	2	1	0	1097	1	4	0	80	110	0	0	100
fixed	3	10	3	616697	6	4	4	1	0	707	1	4	0	96	111	0	0	100
fixed	3	10	4	618335	2	1	1	1	0	1069	1	4	0	72	112	0	0	100
fixed	3	10	5	620186	5	3	3	1	0	1351	1	4	0	88	113	0	0	100
fixed	3	10	6	622058	6	4	4	1	0	888	1	4	0	96	114	0	0	100
fixed	3	10	7	623319	3	1	1	1	0	890	1	4	0	72	115	0	0	100
fixed	3	10	8	624628	2	3	3	1	0	1179	1	4	0	88	116	0	0	100
fixed	3	10	9	626772	3	2	2	1	0	840	1	4	0	80	117	0	0	100
fixed	3	10	10	628526	1	4	4	1	0	662	1	4	0	96	118	0	0	100
fixed	3	10	11	630145	5	2	2	1	0	1185	1	4	0	80	119	0	0	100
fixed	3	10	12	632016	4	3	3	1	0	1218	1	4	0	88	120	0	0	100
fixed	4	1	1	811495	4	1	1	1	0	1040	1	4	0	104	1	0	0	100
fixed	4	1	2	812870	1	2	2	1	0	1038	1	4	0	112	2	0	0	100
fixed	4	1	3	814632	6	4	4	1	0	579	1	4	0	128	3	0	0	100
fixed	4	1	4	815678	2	1	1	1	0	775	1	4	0	104	4	0	0	100
fixed	4	1	5	816780	5	3	3	1	0	960	1	4	0	120	5	0	0	100
fixed	4	1	6	818152	6	4	4	1	0	846	1	4	0	128	6	0	0	100
fixed	4	1	7	819474	3	1	1	1	0	710	1	4	0	104	7	0	0	100
fixed	4	1	8	820711	2	3	3	1	0	1010	1	4	0	120	8	0	0	100
fixed	4	1	9	822307	3	2	2	1	0	734	1	4	0	112	9	0	0	100
fixed	4	1	10	823534	1	4	4	1	0	674	1	4	0	128	10	0	0	100
fixed	4	1	11	824911	5	2	2	1	0	815	1	4	0	112	11	0	0	100
fixed	4	1	12	826686	4	3	3	1	0	1132	1	4	0	120	12	0	0	100
fixed	4	2	1	828740	4	1	1	1	0	669	1	4	0	104	13	0	0	100
fixed	4	2	2	829955	1	2	2	1	0	978	1	4	0	112	14	0	0	100
fixed	4	2	3	831440	6	4	4	1	0	683	1	4	0	128	15	0	0	100
fixed	4	2	4	833071	2	1	1	1	0	726	1	4	0	104	16	0	0	100
fixed	4	2	5	834247	5	3	3	1	0	852	1	4	0	120	17	0	0	100
fixed	4	2	6	835980	6	4	4	1	0	771	1	4	0	128	18	0	0	100
fixed	4	2	7	837625	3	1	1	1	0	749	1	4	0	104	19	0	0	100
fixed	4	2	8	838715	2	3	3	1	0	983	1	4	0	120	20	0	0	100
fixed	4	2	9	840488	3	2	2	1	0	844	1	4	0	112	21	0	0	100
fixed	4	2	10	841660	1	4	4	1	0	834	1	4	0	128	22	0	0	100
fixed	4	2	11	843302	5	2	2	1	0	917	1	4	0	112	23	0	0	100
fixed	4	2	12	844714	4	3	3	2	0	1697	2	4	0	120	24	0	0	100
fixed	4	3	1	847419	4	1	1	1	0	806	1	4	0	104	25	0	0	100
fixed	4	3	2	848861	1	2	2	1	0	1081	1	4	0	112	26	0	0	100
fixed	4	3	3	850359	6	4	4	1	0	762	1	4	0	128	27	0	0	100
fixed	4	3	4	851717	2	1	1	1	0	856	1	4	0	104	28	0	0	100
fixed	4	3	5	853241	5	3	3	1	0	1056	1	4	0	120	29	0	0	100
fixed	4	3	6	854890	6	4	4	1	0	834	1	4	0	128	30	0	0	100
fixed	4	3	7	856516	3	1	1	1	0	997	1	4	0	104	31	0	0	100
fixed	4	3	8	858068	2	3	3	1	0	1059	1	4	0	120	32	0	0	100
fixed	4	3	9	859828	3	2	2	1	0	817	1	4	0	112	33	0	0	100
fixed	4	3	10	861082	1	4	4	1	0	844	1	4	0	128	34	0	0	100
fixed	4	3	11	862598	5	2	2	1	0	988	1	4	0	112	35	0	0	100
fixed	4	3	12	864450	4	3	3	2	0	1093	2	4	0	120	36	0	0	100
fixed	4	4	1	866750	4	1	1	1	0	779	1	4	0	104	37	0	0	100
fixed	4	4	2	868439	1	2	2	1	0	1132	1	4	0	112	38	0	0	100
fixed	4	4	3	869928	6	4	4	1	0	917	1	4	0	128	39	0	0	100
fixed	4	4	4	871477	2	1	1	1	0	851	1	4	0	104	40	0	0	100
fixed	4	4	5	872932	5	3	3	1	0	1278	1	4	0	120	41	0	0	100
fixed	4	4	6	875092	6	4	4	1	0	706	1	4	0	128	42	0	0	100
fixed	4	4	7	876123	3	1	1	1	0	990	1	4	0	104	43	0	0	100
fixed	4	4	8	877537	2	3	3	1	0	1379	1	4	0	120	44	0	0	100
fixed	4	4	9	879417	3	2	2	1	0	803	1	4	0	112	45	0	0	100
fixed	4	4	10	880692	1	4	4	1	0	805	1	4	0	128	46	0	0	100
fixed	4	4	11	882133	5	2	2	1	0	1144	1	4	0	112	47	0	0	100
fixed	4	4	12	883742	4	3	3	1	0	988	1	4	0	120	48	0	0	100
fixed	4	5	1	885713	4	1	1	1	0	768	1	4	0	104	49	0	0	100
fixed	4	5	2	887001	1	2	2	1	0	1074	1	4	0	112	50	0	0	100
fixed	4	5	3	888992	6	4	4	1	0	869	1	4	0	128	51	0	0	100
fixed	4	5	4	890456	2	1	1	1	0	895	1	4	0	104	52	0	0	100
fixed	4	5	5	891821	5	3	3	1	0	974	1	4	0	120	53	0	0	100
fixed	4	5	6	893525	6	4	4	1	0	902	1	4	0	128	54	0	0	100
fixed	4	5	7	895431	3	1	1	1	0	972	1	4	0	104	55	0	0	100
fixed	4	5	8	897141	2	3	3	1	0	1276	1	4	0	120	56	0	0	100
fixed	4	5	9	899094	3	2	2	1	0	841	1	4	0	112	57	0	0	100
fixed	4	5	10	900979	1	4	4	1	0	802	1	4	0	128	58	0	0	100
fixed	4	5	11	902166	5	2	2	1	0	1112	1	4	0	112	59	0	0	100
fixed	4	5	12	904195	4	3	3	1	0	1145	1	4	0	120	60	0	0	100
fixed	4	6	1	906413	4	1	1	1	0	811	1	4	0	104	61	0	0	100
fixed	4	6	2	907795	1	2	2	2	0	1697	2	4	0	112	62	0	0	100
fixed	4	6	3	910239	6	4	4	1	0	849	1	4	0	128	63	0	0	100
fixed	4	6	4	911835	2	1	1	1	0	846	1	4	0	104	64	0	0	100
fixed	4	6	5	913251	5	3	3	1	0	1034	1	4	0	120	65	0	0	100
fixed	4	6	6	914686	6	4	4	1	0	861	1	4	0	128	66	0	0	100
fixed	4	6	7	916436	3	1	1	1	0	819	1	4	0	104	67	0	0	100
fixed	4	6	8	918178	2	3	3	1	0	1105	1	4	0	120	68	0	0	100
fixed	4	6	9	920241	3	2	2	1	0	810	1	4	0	112	69	0	0	100
fixed	4	6	10	921628	1	4	4	1	0	783	1	4	0	128	70	0	0	100
fixed	4	6	11	923028	5	2	2	1	0	1068	1	4	0	112	71	0	0	100
fixed	4	6	12	924732	4	3	3	1	0	1204	1	4	0	120	72	0	0	100
fixed	4	7	1	927114	4	1	1	1	0	887	1	4	0	104	73	0	0	100
fixed	4	7	2	928369	1	2	2	1	0	1162	1	4	0	112	74	0	0	100
fixed	4	7	3	930266	6	4	4	1	0	770	1	4	0	128	75	0	0	100
fixed	4	7	4	931550	2	1	1	1	0	947	1	4	0	104	76	0	0	100
fixed	4	7	5	933236	5	3	3	1	0	1020	1	4	0	120	77	0	0	100
fixed	4	7	6	934574	6	4	4	1	0	1035	1	4	0	128	78	0	0	100
fixed	4	7	7	936595	3	1	1	1	0	749	1	4	0	104	79	0	0	100
fixed	4	7	8	937803	2	3	3	1	0	1163	1	4	0	120	80	0	0	100
fixed	4	7	9	939790	3	2	2	1	0	806	1	4	0	112	81	0	0	100
fixed	4	7	10	940925	1	4	4	1	0	910	1	4	0	128	82	0	0	100
fixed	4	7	11	942586	5	2	2	1	0	1031	1	4	0	112	83	0	0	100
fixed	4	7	12	944330	4	3	3	1	0	998	1	4	0	120	84	0	0	100
fixed	4	8	1	945927	4	1	1	1	0	786	1	4	0	104	85	0	0	100
fixed	4	8	2	947118	1	2	2	1	0	1120	1	4	0	112	86	0	0	100
fixed	4	8	3	949072	6	4	4	1	0	837	1	4	0	128	87	0	0	100
fixed	4	8	4	950454	2	1	1	1	0	1090	1	4	0	104	88	0	0	100
fixed	4	8	5	952328	5	3	3	1	0	971	1	4	0	120	89	0	0	100
fixed	4	8	6	953824	6	4	4	1	0	844	1	4	0	128	90	0	0	100
fixed	4	8	7	955392	3	1	1	1	0	1241	1	4	0	104	91	0	0	100
fixed	4	8	8	957240	2	3	3	1	0	1323	1	4	0	120	92	0	0	100
fixed	4	8	9	959508	3	2	2	1	0	842	1	4	0	112	93	0	0	100
fixed	4	8	10	961248	1	4	4	1	0	689	1	4	0	128	94	0	0	100
fixed	4	8	11	962902	5	2	2	1	0	1019	1	4	0	112	95	0	0	100
fixed	4	8	12	964486	4	3	3	1	0	1072	1	4	0	120	96	0	0	100
fixed	4	9	1	966745	4	1	1	1	0	672	1	4	0	104	97	0	0	100
fixed	4	9	2	968092	1	2	2	1	0	1192	1	4	0	112	98	0	0	100
fixed	4	9	3	970219	6	4	4	1	0	941	1	4	0	128	99	0	0	100
fixed	4	9	4	971560	2	1	1	1	0	1388	1	4	0	104	100	0	0	100
fixed	4	9	5	973693	5	3	3	1	0	1090	1	4	0	120	101	0	0	100
fixed	4	9	6	975589	6	4	4	1	0	1002	1	4	0	128	102	0	0	100
fixed	4	9	7	977266	3	1	1	1	0	1155	1	4	0	104	103	0	0	100
fixed	4	9	8	978900	2	3	3	1	0	1398	1	4	0	120	104	0	0	100
fixed	4	9	9	980738	3	2	2	1	0	872	1	4	0	112	105	0	0	100
fixed	4	9	10	982124	1	4	4	1	0	661	1	4	0	128	106	0	0	100
fixed	4	9	11	983081	5	2	2	1	0	949	1	4	0	112	107	0	0	100
fixed	4	9	12	984739	4	3	3	1	0	830	1	4	0	120	108	0	0	100
fixed	4	10	1	986393	4	1	1	1	0	520	1	4	0	104	109	0	0	100
fixed	4	10	2	987287	1	2	2	1	0	962	1	4	0	112	110	0	0	100
fixed	4	10	3	989025	6	4	4	1	0	657	1	4	0	128	111	0	0	100
fixed	4	10	4	990324	2	1	1	1	0	682	1	4	0	104	112	0	0	100
fixed	4	10	5	991870	5	3	3	1	0	880	1	4	0	120	113	0	0	100
fixed	4	10	6	993467	6	4	4	1	0	789	1	4	0	128	114	0	0	100
fixed	4	10	7	994959	3	1	1	1	0	838	1	4	0	104	115	0	0	100
fixed	4	10	8	996256	2	3	3	1	0	910	1	4	0	120	116	0	0	100
fixed	4	10	9	997734	3	2	2	2	0	992	2	4	0	112	117	0	0	100
fixed	4	10	10	999460	1	4	4	1	0	870	1	4	0	128	118	0	0	100
fixed	4	10	11	1001053	5	2	2	1	0	1003	1	4	0	112	119	0	0	100
fixed	4	10	12	1002601	4	3	3	1	0	882	1	4	0	120	120	0	0	100
fixed	5	1	1	1005003	4	1	1	1	0	804	1	4	0	136	1	0	0	100
fixed	5	1	2	1006336	1	2	2	1	0	1140	1	4	0	144	2	0	0	100
fixed	5	1	3	1008143	6	4	4	1	0	735	1	4	0	160	3	0	0	100
fixed	5	1	4	1009640	2	1	1	1	0	728	1	4	0	136	4	0	0	100
fixed	5	1	5	1010763	5	3	3	1	0	936	1	4	0	152	5	0	0	100
fixed	5	1	6	1012103	6	4	4	1	0	951	1	4	0	160	6	0	0	100
fixed	5	1	7	1013954	3	1	1	1	0	1145	1	4	0	136	7	0	0	100
fixed	5	1	8	1015435	2	3	3	1	0	1514	1	4	0	152	8	0	0	100
fixed	5	1	9	1017610	3	2	2	1	0	782	1	4	0	144	9	0	0	100
fixed	5	1	10	1018738	1	4	4	1	0	774	1	4	0	160	10	0	0	100
fixed	5	1	11	1019957	5	2	2	1	0	946	1	4	0	144	11	0	0	100
fixed	5	1	12	1021212	4	3	3	1	0	1021	1	4	0	152	12	0	0	100
fixed	5	2	1	1023016	4	1	1	1	0	737	1	4	0	136	13	0	0	100
fixed	5	2	2	1024055	1	2	2	1	0	1037	1	4	0	144	14	0	0	100
fixed	5	2	3	1025729	6	4	4	1	0	694	1	4	0	160	15	0	0	100
fixed	5	2	4	1026845	2	1	1	1	0	783	1	4	0	136	16	0	0	100
fixed	5	2	5	1028593	5	3	3	1	0	980	1	4	0	152	17	0	0	100
fixed	5	2	6	1030473	6	4	4	1	0	877	1	4	0	160	18	0	0	100
fixed	5	2	7	1032333	3	1	1	1	0	807	1	4	0	136	19	0	0	100
fixed	5	2	8	1033491	2	3	3	1	0	877	1	4	0	152	20	0	0	100
fixed	5	2	9	1035382	3	2	2	1	0	733	1	4	0	144	21	0	0	100
fixed	5	2	10	1037139	1	4	4	1	0	827	1	4	0	160	22	0	0	100
fixed	5	2	11	1038662	5	2	2	1	0	1066	1	4	0	144	23	0	0	100
fixed	5	2	12	1040125	4	3	3	1	0	924	1	4	0	152	24	0	0	100
fixed	5	3	1	1042146	4	1	1	1	0	814	1	4	0	136	25	0	0	100
fixed	5	3	2	1043309	1	2	2	1	0	998	1	4	0	144	26	0	0	100
fixed	5	3	3	1044847	6	4	4	1	0	789	1	4	0	160	27	0	0	100
fixed	5	3	4	1045936	2	1	1	1	0	918	1	4	0	136	28	0	0	100
fixed	5	3	5	1047451	5	3	3	1	0	1230	1	4	0	152	29	0	0	100
fixed	5	3	6	1049457	6	4	4	1	0	833	1	4	0	160	30	0	0	100
fixed	5	3	7	1051017	3	1	1	1	0	823	1	4	0	136	31	0	0	100
fixed	5	3	8	1052381	2	3	3	1	0	1365	1	4	0	152	32	0	0	100
fixed	5	3	9	1054724	3	2	2	1	0	1434	1	4	0	144	33	0	0	100
fixed	5	3	10	1056801	1	4	4	1	0	706	1	4	0	160	34	0	0	100
fixed	5	3	11	1057858	5	2	2	1	0	1157	1	4	0	144	35	0	0	100
fixed	5	3	12	1059471	4	3	3	1	0	1025	1	4	0	152	36	0	0	100
fixed	5	4	1	1061310	4	1	1	1	0	843	1	4	0	136	37	0	0	100
fixed	5	4	2	1063079	1	2	2	1	0	1496	1	4	0	144	38	0	0	100
fixed	5	4	3	1064956	6	4	4	1	0	1241	1	4	0	160	39	0	0	100
fixed	5	4	4	1067148	2	1	1	1	0	988	1	4	0	136	40	0	0	100
fixed	5	4	5	1068627	5	3	3	1	0	1261	1	4	0	152	41	0	0	100
fixed	5	4	6	1070433	6	4	4	1	0	1240	1	4	0	160	42	0	0	100
fixed	5	4	7	1072307	3	1	1	1	0	1241	1	4	0	136	43	0	0	100
fixed	5	4	8	1074332	2	3	3	1	0	1460	1	4	0	152	44	0	0	100
fixed	5	4	9	1076152	3	2	2	1	0	878	1	4	0	144	45	0	0	100
fixed	5	4	10	1077388	1	4	4	1	0	890	1	4	0	160	46	0	0	100
fixed	5	4	11	1078953	5	2	2	1	0	1128	1	4	0	144	47	0	0	100
fixed	5	4	12	1080410	4	3	3	1	0	954	1	4	0	152	48	0	0	100
fixed	5	5	1	1082378	4	1	1	1	0	935	1	4	0	136	49	0	0	100
fixed	5	5	2	1084338	1	2	2	1	0	1244	1	4	0	144	50	0	0	100
fixed	5	5	3	1086085	6	4	4	1	0	913	1	4	0	160	51	0	0	100
fixed	5	5	4	1087810	2	1	1	1	0	1617	1	4	0	136	52	0	0	100
fixed	5	5	5	1089853	5	3	3	1	0	1042	1	4	0	152	53	0	0	100
fixed	5	5	6	1091848	6	4	4	1	0	1286	1	4	0	160	54	0	0	100
fixed	5	5	7	1094154	3	1	1	1	0	1308	1	4	0	136	55	0	0	100
fixed	5	5	8	1096151	2	3	3	1	0	2167	1	4	0	152	56	0	0	100
fixed	5	5	9	1099083	3	2	2	1	0	844	1	4	0	144	57	0	0	100
fixed	5	5	10	1100899	1	4	4	1	0	870	1	4	0	160	58	0	0	100
fixed	5	5	11	1102292	5	2	2	1	0	1059	1	4	0	144	59	0	0	100
fixed	5	5	12	1103936	4	3	3	1	0	846	1	4	0	152	60	0	0	100
fixed	5	6	1	1105535	4	1	1	1	0	930	1	4	0	136	61	0	0	100
fixed	5	6	2	1107148	1	2	2	1	0	1062	1	4	0	144	62	0	0	100
fixed	5	6	3	1109080	6	4	4	1	0	1108	1	4	0	160	63	0	0	100
fixed	5	6	4	1110683	2	1	1	1	0	856	1	4	0	136	64	0	0	100
fixed	5	6	5	1112298	5	3	3	1	0	1876	1	4	0	152	65	0	0	100
fixed	5	6	6	1115089	6	4	4	1	0	805	1	4	0	160	66	0	0	100
fixed	5	6	7	1116509	3	1	1	1	0	1209	1	4	0	136	67	0	0	100
fixed	5	6	8	1118424	2	3	3	1	0	1768	1	4	0	152	68	0	0	100
fixed	5	6	9	1120983	3	2	2	1	0	1020	1	4	0	144	69	0	0	100
fixed	5	6	10	1122976	1	4	4	1	0	1135	1	4	0	160	70	0	0	100
fixed	5	6	11	1124436	5	2	0	0	2	0	3	4	0	144	70	0	1	99
fixed	5	6	12	1127582	4	3	0	0	2	0	3	4	0	152	70	0	2	97
fixed	5	7	1	1131298	4	1	0	0	2	0	3	4	0	136	70	0	3	96
fixed	5	7	2	1134516	1	2	0	0	2	0	3	4	0	144	70	0	4	95
fixed	5	7	3	1137709	6	4	0	0	2	0	3	4	0	160	70	0	5	93
fixed	5	7	4	1140962	2	1	1	1	0	1133	1	4	0	136	71	0	5	93
fixed	5	7	5	1143007	5	3	3	1	0	1559	1	4	0	152	72	0	5	94
fixed	5	7	6	1145183	6	4	4	1	0	866	1	4	0	160	73	0	5	94
fixed	5	7	7	1146612	3	1	1	1	0	1006	1	4	0	136	74	0	5	94
fixed	5	7	8	1148090	2	3	3	1	0	1327	1	4	0	152	75	0	5	94
fixed	5	7	9	1149741	3	2	2	1	0	1041	1	4	0	144	76	0	5	94
fixed	5	7	10	1151454	1	4	4	1	0	857	1	4	0	160	77	0	5	94
fixed	5	7	11	1153174	5	2	2	1	0	928	1	4	0	144	78	0	5	94
fixed	5	7	12	1154597	4	3	3	1	0	1020	1	4	0	152	79	0	5	94
fixed	5	8	1	1156828	4	1	1	1	0	805	1	4	0	136	80	0	5	94
fixed	5	8	2	1158102	1	2	2	1	0	1031	1	4	0	144	81	0	5	94
fixed	5	8	3	1160099	6	4	4	1	0	931	1	4	0	160	82	0	5	94
fixed	5	8	4	1161750	2	1	1	1	0	853	1	4	0	136	83	0	5	94
fixed	5	8	5	1163251	5	3	3	1	0	933	1	4	0	152	84	0	5	94
fixed	5	8	6	1165157	6	4	4	1	0	877	1	4	0	160	85	0	5	94
fixed	5	8	7	1166928	3	1	1	1	0	1194	1	4	0	136	86	0	5	95
fixed	5	8	8	1168940	2	3	3	1	0	964	1	4	0	152	87	0	5	95
fixed	5	8	9	1170564	3	2	2	1	0	816	1	4	0	144	88	0	5	95
fixed	5	8	10	1171788	1	4	4	1	0	764	1	4	0	160	89	0	5	95
fixed	5	8	11	1172966	5	2	2	1	0	1002	1	4	0	144	90	0	5	95
fixed	5	8	12	1174323	4	3	3	1	0	1120	1	4	0	152	91	0	5	95
fixed	5	9	1	1176476	4	1	1	1	0	677	1	4	0	136	92	0	5	95
fixed	5	9	2	1178006	1	2	2	1	0	949	1	4	0	144	93	0	5	95
fixed	5	9	3	1179578	6	4	4	1	0	946	1	4	0	160	94	0	5	95
fixed	5	9	4	1180829	2	1	1	1	0	1061	1	4	0	136	95	0	5	95
fixed	5	9	5	1182827	5	3	3	1	0	984	1	4	0	152	96	0	5	95
fixed	5	9	6	1184841	6	4	4	1	0	835	1	4	0	160	97	0	5	95
fixed	5	9	7	1186542	3	1	1	2	0	1235	2	4	0	136	98	0	5	95
fixed	5	9	8	1188443	2	3	3	1	0	1450	1	4	0	152	99	0	5	95
fixed	5	9	9	1190870	3	2	2	1	0	964	1	4	0	144	100	0	5	95
fixed	5	9	10	1192543	1	4	4	1	0	829	1	4	0	160	101	0	5	95
fixed	5	9	11	1193773	5	2	2	1	0	969	1	4	0	144	102	0	5	95
fixed	5	9	12	1195376	4	3	3	1	0	965	1	4	0	152	103	0	5	95
fixed	5	10	1	1197193	4	1	1	1	0	704	1	4	0	136	104	0	5	95
fixed	5	10	2	1198388	1	2	2	1	0	1005	1	4	0	144	105	0	5	95
fixed	5	10	3	1199968	6	4	4	1	0	866	1	4	0	160	106	0	5	95
fixed	5	10	4	1201588	2	1	1	1	0	1237	1	4	0	136	107	0	5	96
fixed	5	10	5	1203690	5	3	3	1	0	964	1	4	0	152	108	0	5	96
fixed	5	10	6	1205177	6	4	4	1	0	869	1	4	0	160	109	0	5	96
fixed	5	10	7	1206833	3	1	1	1	0	839	1	4	0	136	110	0	5	96
fixed	5	10	8	1208711	2	3	3	1	0	1472	1	4	0	152	111	0	5	96
fixed	5	10	9	1210961	3	2	2	1	0	800	1	4	0	144	112	0	5	96
fixed	5	10	10	1212374	1	4	4	1	0	749	1	4	0	160	113	0	5	96
fixed	5	10	11	1213545	5	2	2	1	0	1035	1	4	0	144	114	0	5	96
fixed	5	10	12	1215521	4	3	3	1	0	879	1	4	0	152	115	0	5	96
random	6	1	1	1448407	6	1	1	1	0	1039	1	4	0	168	1	0	0	100
random	6	1	2	1449967	4	4	4	1	0	1117	1	4	0	192	2	0	0	100
random	6	1	3	1451717	2	2	2	1	0	891	1	4	0	176	3	0	0	100
random	6	1	4	1452977	3	3	3	1	0	782	1	4	0	184	4	0	0	100
random	6	1	5	1454385	5	2	2	1	0	955	1	4	0	176	5	0	0	100
random	6	1	6	1455763	1	4	4	1	0	752	1	4	0	192	6	0	0	100
random	6	1	7	1457253	6	1	1	1	0	745	1	4	0	168	7	0	0	100
random	6	1	8	1458820	2	3	3	1	0	942	1	4	0	184	8	0	0	100
random	6	1	9	1460125	4	2	2	1	0	807	1	4	0	176	9	0	0	100
random	6	1	10	1461483	1	1	1	1	0	798	1	4	0	168	10	0	0	100
random	6	1	11	1462860	5	4	4	1	0	787	1	4	0	192	11	0	0	100
random	6	1	12	1463977	3	3	3	1	0	1052	1	4	0	184	12	0	0	100
random	6	1	13	1466220	5	2	2	1	0	1117	1	4	0	176	13	0	0	100
random	6	1	14	1468256	1	4	4	1	0	759	1	4	0	192	14	0	0	100
random	6	1	15	1469703	3	1	1	1	0	850	1	4	0	168	15	0	0	100
random	6	1	16	1471071	4	3	3	1	0	960	1	4	0	184	16	0	0	100
random	6	1	17	1473007	6	4	4	1	0	798	1	4	0	192	17	0	0	100
random	6	1	18	1474475	2	1	1	1	0	871	1	4	0	168	18	0	0	100
random	6	1	19	1475805	5	3	3	1	0	959	1	4	0	184	19	0	0	100
random	6	1	20	1477415	2	2	2	1	0	651	1	4	0	176	20	0	0	100
random	6	1	21	1479096	3	3	3	1	0	996	1	4	0	184	21	0	0	100
random	6	1	22	1481094	6	1	1	1	0	751	1	4	0	168	22	0	0	100
random	6	1	23	1482430	4	2	2	1	0	1039	1	4	0	176	23	0	0	100
random	6	1	24	1484307	1	4	4	1	0	655	1	4	0	192	24	0	0	100
random	6	1	25	1486252	4	3	3	1	0	1308	1	4	0	184	25	0	0	100
random	6	1	26	1488560	2	1	1	1	0	731	1	4	0	168	26	0	0	100
random	6	1	27	1489622	5	2	2	1	0	1022	1	4	0	176	27	0	0	100
random	6	1	28	1491364	6	4	4	1	0	652	1	4	0	192	28	0	0	100
random	6	1	29	1493027	1	3	3	1	0	1022	1	4	0	184	29	0	0	100
random	6	1	30	1494481	5	2	2	1	0	800	1	4	0	176	30	0	0	100
random	6	1	31	1496011	2	1	1	1	0	967	1	4	0	168	31	0	0	100
random	6	1	32	1497769	3	3	3	1	0	933	1	4	0	184	32	0	0	100
random	6	1	33	1499148	6	4	4	1	0	858	1	4	0	192	33	0	0	100
random	6	1	34	1500608	4	2	2	1	0	829	1	4	0	176	34	0	0	100
random	6	1	35	1501730	3	4	4	1	0	925	1	4	0	192	35	0	0	100
random	6	1	36	1503610	1	1	1	1	0	725	1	4	0	168	36	0	0	100
random	6	1	37	1505132	3	4	4	1	0	1053	1	4	0	192	37	0	0	100
random	6	1	38	1506689	5	3	3	1	0	1043	1	4	0	184	38	0	0	100
random	6	1	39	1508759	6	1	1	1	0	731	1	4	0	168	39	0	0	100
random	6	1	40	1510310	1	2	2	1	0	1097	1	4	0	176	40	0	0	100
random	6	1	41	1511766	2	3	3	1	0	1212	1	4	0	184	41	0	0	100
random	6	1	42	1513890	4	4	4	1	0	730	1	4	0	192	42	0	0	100
random	6	1	43	1515394	1	2	2	1	0	1362	1	4	0	176	43	0	0	100
random	6	1	44	1517163	6	3	3	1	0	871	1	4	0	184	44	0	0	100
random	6	1	45	1518833	3	1	1	1	0	729	1	4	0	168	45	0	0	100
random	6	1	46	1520037	4	4	4	1	0	718	1	4	0	192	46	0	0	100
random	6	1	47	1521631	2	2	2	1	0	970	1	4	0	176	47	0	0	100
random	6	1	48	1522924	5	1	1	1	0	875	1	4	0	168	48	0	0	100
random	6	1	49	1524513	2	3	3	1	0	1168	1	4	0	184	49	0	0	100
random	6	1	50	1526277	3	1	1	1	0	830	1	4	0	168	50	0	0	100
random	6	1	51	1527869	1	4	4	1	0	866	1	4	0	192	51	0	0	100
random	6	1	52	1529162	5	3	3	1	0	931	1	4	0	184	52	0	0	100
random	6	1	53	1531103	3	2	2	1	0	729	1	4	0	176	53	0	0	100
random	6	1	54	1532444	6	4	4	1	0	673	1	4	0	192	54	0	0	100
random	6	1	55	1533826	4	2	2	1	0	934	1	4	0	176	55	0	0	100
random	6	1	56	1535381	1	1	1	1	0	724	1	4	0	168	56	0	0	100
random	6	1	57	1536476	5	4	4	1	0	861	1	4	0	192	57	0	0	100
random	6	1	58	1537700	2	1	1	1	0	898	1	4	0	168	58	0	0	100
random	6	1	59	1539384	6	2	2	1	0	1018	1	4	0	176	59	0	0	100
random	6	1	60	1541419	4	3	3	1	0	756	1	4	0	184	60	0	0	100
random	6	1	61	1542858	1	2	2	1	0	951	1	4	0	176	61	0	0	100
random	6	1	62	1544218	6	4	4	1	0	830	1	4	0	192	62	0	0	100
random	6	1	63	1545389	4	1	1	1	0	900	1	4	0	168	63	0	0	100
random	6	1	64	1546959	2	2	2	1	0	1058	1	4	0	176	64	0	0	100
random	6	1	65	1548661	4	3	3	1	0	1137	1	4	0	184	65	0	0	100
random	6	1	66	1550563	3	1	1	1	0	881	1	4	0	168	66	0	0	100
random	6	1	67	1552351	1	3	3	1	0	973	1	4	0	184	67	0	0	100
random	6	1	68	1554134	5	4	4	1	0	769	1	4	0	192	68	0	0	100
random	6	1	69	1555946	2	2	2	1	0	829	1	4	0	176	69	0	0	100
random	6	1	70	1557569	3	1	1	1	0	760	1	4	0	168	70	0	0	100
random	6	1	71	1559080	5	4	4	1	0	720	1	4	0	192	71	0	0	100
random	6	1	72	1560449	6	3	3	1	0	926	1	4	0	184	72	0	0	100
random	6	1	73	1562088	2	1	1	1	0	888	1	4	0	168	73	0	0	100
random	6	1	74	1563508	5	3	3	1	0	940	1	4	0	184	74	0	0	100
random	6	1	75	1565410	1	4	4	1	0	820	1	4	0	192	75	0	0	100
random	6	1	76	1567235	6	2	2	1	0	1038	1	4	0	176	76	0	0	100
random	6	1	77	1568637	2	1	1	1	0	995	1	4	0	168	77	0	0	100
random	6	1	78	1570357	4	4	4	1	0	850	1	4	0	192	78	0	0	100
random	6	1	79	1571734	3	2	2	1	0	896	1	4	0	176	79	0	0	100
random	6	1	80	1573046	4	3	3	1	0	1096	1	4	0	184	80	0	0	100
random	6	1	81	1574530	1	4	4	1	0	834	1	4	0	192	81	0	0	100
random	6	1	82	1576073	5	1	1	1	0	848	1	4	0	168	82	0	0	100
random	6	1	83	1577866	3	2	2	1	0	996	1	4	0	176	83	0	0	100
random	6	1	84	1579743	6	3	3	1	0	949	1	4	0	184	84	0	0	100
random	6	1	85	1581753	3	2	2	1	0	1024	1	4	0	176	85	0	0	100
random	6	1	86	1583307	1	3	3	1	0	910	1	4	0	184	86	0	0	100
random	6	1	87	1584924	4	4	4	1	0	770	1	4	0	192	87	0	0	100
random	6	1	88	1586349	2	1	1	1	0	725	1	4	0	168	88	0	0	100
random	6	1	89	1587806	6	4	4	1	0	775	1	4	0	192	89	0	0	100
random	6	1	90	1589159	3	3	3	1	0	1150	1	4	0	184	90	0	0	100
random	6	1	91	1591149	5	4	4	1	0	938	1	4	0	192	91	0	0	100
random	6	1	92	1592874	1	2	2	1	0	881	1	4	0	176	92	0	0	100
random	6	1	93	1594212	5	1	1	1	0	920	1	4	0	168	93	0	0	100
random	6	1	94	1596022	4	3	3	1	0	923	1	4	0	184	94	0	0	100
random	6	1	95	1597885	6	1	1	1	0	829	1	4	0	168	95	0	0	100
random	6	1	96	1599649	2	2	2	1	0	1026	1	4	0	176	96	0	0	100
random	6	1	97	1601953	4	3	3	1	0	1376	1	4	0	184	97	0	0	100
random	6	1	98	1604028	3	2	2	1	0	1064	1	4	0	176	98	0	0	100
random	6	1	99	1605920	6	3	3	1	0	1144	1	4	0	184	99	0	0	100
random	6	1	100	1607925	1	4	4	1	0	835	1	4	0	192	100	0	0	100
random	6	1	101	1609374	4	1	1	1	0	838	1	4	0	168	101	0	0	100
random	6	1	102	1610794	5	2	2	1	0	1146	1	4	0	176	102	0	0	100
random	6	1	103	1612673	2	4	4	1	0	986	1	4	0	192	103	0	0	100
random	6	1	104	1614306	3	1	1	1	0	1005	1	4	0	168	104	0	0	100
random	6	1	105	1615937	1	3	3	1	0	1200	1	4	0	184	105	0	0	100
random	6	1	106	1618080	2	2	2	1	0	957	1	4	0	176	106	0	0	100
random	6	1	107	1619400	5	4	4	1	0	773	1	4	0	192	107	0	0	100
random	6	1	108	1621024	6	1	1	1	0	841	1	4	0	168	108	0	0	100
random	6	1	109	1622988	5	4	4	1	0	1109	1	4	0	192	109	0	0	100
random	6	1	110	1624466	6	3	3	2	0	1087	2	4	0	184	110	0	0	100
random	6	1	111	1626126	2	2	2	1	0	848	1	4	0	176	111	0	0	100
random	6	1	112	1627899	3	1	1	1	0	877	1	4	0	168	112	0	0	100
random	6	1	113	1629776	1	2	2	1	0	982	1	4	0	176	113	0	0	100
random	6	1	114	1631119	2	3	3	1	0	901	1	4	0	184	114	0	0	100
random	6	1	115	1632858	3	1	1	1	0	684	1	4	0	168	115	0	0	100
random	6	1	116	1634429	4	4	4	1	0	761	1	4	0	192	116	0	0	100
random	6	1	117	1635572	6	1	1	1	0	1168	1	4	0	168	117	0	0	100
random	6	1	118	1637095	5	3	3	1	0	1008	1	4	0	184	118	0	0	100
random	6	1	119	1638932	1	4	4	1	0	778	1	4	0	192	119	0	0	100
random	6	1	120	1640666	4	2	2	1	0	680	1	4	0	176	120	0	0	100
fixed	7	1	1	1642400	4	1	1	1	0	983	1	4	0	200	1	0	0	100
fixed	7	1	2	1643974	1	2	2	1	0	1028	1	4	0	208	2	0	0	100
fixed	7	1	3	1645669	6	4	4	1	0	685	1	4	0	224	3	0	0	100
fixed	7	1	4	1647076	2	1	1	1	0	1073	1	4	0	200	4	0	0	100
fixed	7	1	5	1649102	5	3	3	1	0	923	1	4	0	216	5	0	0	100
fixed	7	1	6	1650934	6	4	4	1	0	846	1	4	0	224	6	0	0	100
fixed	7	1	7	1652626	3	1	1	1	0	918	1	4	0	200	7	0	0	100
fixed	7	1	8	1653961	2	3	3	1	0	1493	1	4	0	216	8	0	0	100
fixed	7	1	9	1656282	3	2	2	1	0	803	1	4	0	208	9	0	0	100
fixed	7	1	10	1658001	1	4	4	1	0	643	1	4	0	224	10	0	0	100
fixed	7	1	11	1659021	5	2	2	1	0	927	1	4	0	208	11	0	0	100
fixed	7	1	12	1660559	4	3	3	1	0	798	1	4	0	216	12	0	0	100
fixed	7	2	1	1661900	4	1	1	1	0	885	1	4	0	200	1	0	0	8
fixed	7	2	2	1663641	1	2	2	1	0	811	1	4	0	208	2	0	0	14
fixed	7	2	3	1665458	6	4	4	1	0	622	1	4	0	224	3	0	0	20
fixed	7	2	4	1666973	2	1	1	1	0	887	1	4	0	200	4	0	0	25
fixed	7	2	5	1668394	5	3	3	1	0	770	1	4	0	216	5	0	0	29
fixed	7	2	6	1670042	6	4	4	1	0	732	1	4	0	224	6	0	0	33
fixed	7	2	7	1671473	3	1	1	1	0	855	1	4	0	200	7	0	0	37
fixed	7	2	8	1673142	2	3	3	1	0	953	1	4	0	216	8	0	0	40
fixed	7	2	9	1674478	3	2	2	1	0	688	1	4	0	208	9	0	0	43
fixed	7	2	10	1676044	1	4	4	1	0	694	1	4	0	224	10	0	0	45
fixed	7	2	11	1677034	5	2	2	1	0	869	1	4	0	208	11	0	0	48
fixed	7	2	12	1678887	4	3	3	2	0	1214	2	4	0	216	12	0	0	50
fixed	7	3	1	1681114	4	1	1	1	0	791	1	4	0	200	1	0	0	4
fixed	7	3	2	1682716	1	2	2	1	0	947	1	4	0	208	2	0	0	8
fixed	7	3	3	1684157	6	4	4	1	0	838	1	4	0	224	3	0	0	11
fixed	7	3	4	1685305	2	1	1	1	0	1078	1	4	0	200	4	0	0	14
fixed	7	3	5	1687380	5	3	3	1	0	1126	1	4	0	216	5	0	0	17
fixed	7	3	6	1689044	6	4	4	1	0	864	1	4	0	224	6	0	0	20
fixed	7	3	7	1690888	3	1	1	1	0	737	1	4	0	200	7	0	0	23
fixed	7	3	8	1692350	2	3	3	1	0	1076	1	4	0	216	8	0	0	25
fixed	7	3	9	1693950	3	2	2	1	0	736	1	4	0	208	9	0	0	27
fixed	7	3	10	1695005	1	4	4	1	0	883	1	4	0	224	10	0	0	29
fixed	7	3	11	1696632	5	2	2	1	0	950	1	4	0	208	11	0	0	31
fixed	7	3	12	1698134	4	3	3	1	0	911	1	4	0	216	12	0	0	33
fixed	7	4	1	1700177	4	1	1	1	0	888	1	4	0	200	1	0	0	3
fixed	7	4	2	1701712	1	2	2	1	0	1175	1	4	0	208	2	0	0	5
fixed	7	4	3	1703853	6	4	4	1	0	780	1	4	0	224	3	0	0	8
fixed	7	4	4	1705092	2	1	1	1	0	1040	1	4	0	200	4	0	0	10
fixed	7	4	5	1706687	5	3	3	1	0	1204	1	4	0	216	5	0	0	12
fixed	7	4	6	1708884	6	4	4	1	0	695	1	4	0	224	6	0	0	14
fixed	7	4	7	1710540	3	1	1	1	0	873	1	4	0	200	7	0	0	16
fixed	7	4	8	1711709	2	3	3	1	0	1184	1	4	0	216	8	0	0	18
fixed	7	4	9	1713888	3	2	2	1	0	1051	1	4	0	208	9	0	0	20
fixed	7	4	10	1715303	1	4	4	1	0	775	1	4	0	224	10	0	0	22
fixed	7	4	11	1717050	5	2	2	1	0	989	1	4	0	208	11	0	0	23
fixed	7	4	12	1718718	4	3	3	1	0	959	1	4	0	216	12	0	0	25
fixed	7	5	1	1720260	4	1	1	1	0	805	1	4	0	200	1	0	0	2
fixed	7	5	2	1721511	1	2	2	1	0	960	1	4	0	208	2	0	0	4
fixed	7	5	3	1723133	6	4	4	1	0	803	1	4	0	224	3	0	0	6
fixed	7	5	4	1724614	2	1	1	1	0	757	1	4	0	200	4	0	0	8
fixed	7	5	5	1726326	5	3	3	1	0	1116	1	4	0	216	5	0	0	9
fixed	7	5	6	1727902	6	4	4	1	0	802	1	4	0	224	6	0	0	11
fixed	7	5	7	1729485	3	1	1	1	0	766	1	4	0	200	7	0	0	13
fixed	7	5	8	1731103	2	3	3	1	0	1306	1	4	0	216	8	0	0	14
fixed	7	5	9	1733333	3	2	2	1	0	868	1	4	0	208	9	0	0	16
fixed	7	5	10	1734565	1	4	4	1	0	847	1	4	0	224	10	0	0	17
fixed	7	5	11	1736044	5	2	2	1	0	1201	1	4	0	208	11	0	0	19
fixed	7	5	12	1737629	4	3	3	1	0	1014	1	4	0	216	12	0	0	20
fixed	7	6	1	1739908	4	1	1	1	0	557	1	4	0	200	1	0	0	2
fixed	7	6	2	1741186	1	2	2	1	0	1023	1	4	0	208	2	0	0	3
fixed	7	6	3	1742549	6	4	4	1	0	909	1	4	0	224	3	0	0	5
fixed	7	6	4	1743804	2	1	1	1	0	936	1	4	0	200	4	0	0	6
fixed	7	6	5	1745588	5	3	3	1	0	1076	1	4	0	216	5	0	0	8
fixed	7	6	6	1747422	6	4	4	1	0	831	1	4	0	224	6	0	0	9
fixed	7	6	7	1749122	3	1	1	1	0	775	1	4	0	200	7	0	0	10
fixed	7	6	8	1750204	2	3	3	1	0	1249	1	4	0	216	8	0	0	12
fixed	7	6	9	1752172	3	2	2	1	0	709	1	4	0	208	9	0	0	13
fixed	7	6	10	1753907	1	4	4	1	0	852	1	4	0	224	10	0	0	14
fixed	7	6	11	1755808	5	2	2	1	0	988	1	4	0	208	11	0	0	15
fixed	7	6	12	1757187	4	3	3	1	0	841	1	4	0	216	12	0	0	17
fixed	7	7	1	1759122	4	1	1	1	0	807	1	4	0	200	1	0	0	1
fixed	7	7	2	1760635	1	2	2	1	0	1255	1	4	0	208	2	0	0	3
fixed	7	7	3	1762577	6	4	4	1	0	829	1	4	0	224	3	0	0	4
fixed	7	7	4	1763916	2	1	1	1	0	828	1	4	0	200	4	0	0	5
fixed	7	7	5	1765387	5	3	3	1	0	934	1	4	0	216	5	0	0	6
fixed	7	7	6	1766611	6	4	4	1	0	898	1	4	0	224	6	0	0	8
fixed	7	7	7	1768269	3	1	1	1	0	892	1	4	0	200	7	0	0	9
fixed	7	7	8	1769812	2	3	3	1	0	1122	1	4	0	216	8	0	0	10
fixed	7	7	9	1771364	3	2	2	1	0	809	1	4	0	208	9	0	0	11
fixed	7	7	10	1772940	1	4	4	1	0	702	1	4	0	224	10	0	0	12
fixed	7	7	11	1774522	5	2	2	2	0	1091	2	4	0	208	11	0	0	13
fixed	7	7	12	1776049	4	3	3	1	0	834	1	4	0	216	12	0	0	14
fixed	7	8	1	1778002	4	1	1	1	0	1104	1	4	0	200	1	0	0	1
fixed	7	8	2	1780034	1	2	2	1	0	1074	1	4	0	208	2	0	0	2
fixed	7	8	3	1781994	6	4	4	1	0	654	1	4	0	224	3	0	0	3
fixed	7	8	4	1783455	2	1	1	1	0	689	1	4	0	200	4	0	0	5
fixed	7	8	5	1784813	5	3	3	1	0	920	1	4	0	216	5	0	0	6
fixed	7	8	6	1786656	6	4	4	1	0	833	1	4	0	224	6	0	0	7
fixed	7	8	7	1788344	3	1	1	1	0	754	1	4	0	200	7	0	0	8
fixed	7	8	8	1789746	2	3	3	1	0	1214	1	4	0	216	8	0	0	9
fixed	7	8	9	1791358	3	2	2	1	0	794	1	4	0	208	9	0	0	10
fixed	7	8	10	1793099	1	4	4	1	0	784	1	4	0	224	10	0	0	11
fixed	7	8	11	1794754	5	2	2	1	0	1042	1	4	0	208	11	0	0	12
fixed	7	8	12	1796660	4	3	3	1	0	970	1	4	0	216	12	0	0	13
fixed	7	9	1	1798702	4	1	1	1	0	907	1	4	0	200	1	0	0	1
fixed	7	9	2	1800603	1	2	2	1	0	1203	1	4	0	208	2	0	0	2
fixed	7	9	3	1802677	6	4	4	1	0	1122	1	4	0	224	3	0	0	3
fixed	7	9	4	1804535	2	1	1	2	0	2228	2	4	0	200	4	0	0	4
fixed	7	9	5	1807454	5	3	3	1	0	1008	1	4	0	216	5	0	0	5
fixed	7	9	6	1809214	6	4	4	1	0	854	1	4	0	224	6	0	0	6
fixed	7	9	7	1810829	3	1	1	1	0	913	1	4	0	200	7	0	0	7
fixed	7	9	8	1812615	2	3	3	1	0	1334	1	4	0	216	8	0	0	8
fixed	7	9	9	1814448	3	2	2	1	0	736	1	4	0	208	9	0	0	9
fixed	7	9	10	1816134	1	4	4	1	0	705	1	4	0	224	10	0	0	9
fixed	7	9	11	1817509	5	2	2	1	0	967	1	4	0	208	11	0	0	10
fixed	7	9	12	1819427	4	3	3	1	0	917	1	4	0	216	12	0	0	11
fixed	7	10	1	1821442	4	1	1	1	0	808	1	4	0	200	1	0	0	1
fixed	7	10	2	1822744	1	2	2	1	0	888	1	4	0	208	2	0	0	2
fixed	7	10	3	1824277	6	4	4	1	0	824	1	4	0	224	3	0	0	3
fixed	7	10	4	1825937	2	1	1	1	0	897	1	4	0	200	4	0	0	4
fixed	7	10	5	1827867	5	3	3	1	0	1120	1	4	0	216	5	0	0	4
fixed	7	10	6	1829536	6	4	4	1	0	921	1	4	0	224	6	0	0	5
fixed	7	10	7	1830938	3	1	1	1	0	958	1	4	0	200	7	0	0	6
fixed	7	10	8	1832282	2	3	3	1	0	1412	1	4	0	216	8	0	0	7
fixed	7	10	9	1834337	3	2	2	1	0	757	1	4	0	208	9	0	0	8
fixed	7	10	10	1835767	1	4	4	1	0	785	1	4	0	224	10	0	0	8
fixed	7	10	11	1837439	5	2	2	1	0	954	1	4	0	208	11	0	0	9
fixed	7	10	12	1838916	4	3	3	1	0	779	1	4	0	216	12	0	0	10
