type	block	sequ.	trial	time	Pos.	Color	Button	NumRsp	Resp_1	RT_1	R_Code	Resp_2	RT_2	Trigg.	n_hit	n_inc	n_miss	score_%

random	1	1	1	1968	6	1	1	1	0	1358	1	4	0	8	1	0	0	100
random	1	1	2	4321	4	4	4	1	0	771	1	4	0	32	2	0	0	100
random	1	1	3	5825	2	2	2	1	0	971	1	4	0	16	3	0	0	100
random	1	1	4	7594	3	3	3	1	0	648	1	4	0	24	4	0	0	100
random	1	1	5	8815	5	2	2	1	0	949	1	4	0	16	5	0	0	100
random	1	1	6	10332	1	4	4	1	0	724	1	4	0	32	6	0	0	100
random	1	1	7	11463	6	1	1	1	0	788	1	4	0	8	7	0	0	100
random	1	1	8	13153	2	3	3	1	0	1021	1	4	0	24	8	0	0	100
random	1	1	9	15122	4	2	2	1	0	937	1	4	0	16	9	0	0	100
random	1	1	10	16475	1	1	1	1	0	864	1	4	0	8	10	0	0	100
random	1	1	11	18020	5	4	4	1	0	815	1	4	0	32	11	0	0	100
random	1	1	12	19705	3	3	3	1	0	887	1	4	0	24	12	0	0	100
random	1	1	13	21784	5	2	2	1	0	1103	1	4	0	16	13	0	0	100
random	1	1	14	23380	1	4	4	1	0	716	1	4	0	32	14	0	0	100
random	1	1	15	24913	3	1	1	1	0	698	1	4	0	8	15	0	0	100
random	1	1	16	26184	4	3	3	1	0	709	1	4	0	24	16	0	0	100
random	1	1	17	27917	6	4	4	1	0	803	1	4	0	32	17	0	0	100
random	1	1	18	29095	2	1	1	1	0	826	1	4	0	8	18	0	0	100
random	1	1	19	30680	5	3	3	1	0	990	1	4	0	24	19	0	0	100
random	1	1	20	32331	2	2	2	1	0	608	1	4	0	16	20	0	0	100
random	1	1	21	33519	3	3	3	1	0	878	1	4	0	24	21	0	0	100
random	1	1	22	35032	6	1	1	1	0	766	1	4	0	8	22	0	0	100
random	1	1	23	36119	4	2	2	1	0	1040	1	4	0	16	23	0	0	100
random	1	1	24	37577	1	4	4	1	0	746	1	4	0	32	24	0	0	100
random	1	1	25	39028	4	3	3	1	0	1164	1	4	0	24	25	0	0	100
random	1	1	26	40847	2	1	1	1	0	655	1	4	0	8	26	0	0	100
random	1	1	27	42175	5	2	2	1	0	903	1	4	0	16	27	0	0	100
random	1	1	28	44024	6	4	4	1	0	673	1	4	0	32	28	0	0	100
random	1	1	29	45252	1	3	3	1	0	909	1	4	0	24	29	0	0	100
random	1	1	30	46925	5	2	2	1	0	942	1	4	0	16	30	0	0	100
random	1	1	31	48459	2	1	1	1	0	757	1	4	0	8	31	0	0	100
random	1	1	32	49726	3	3	3	1	0	1120	1	4	0	24	32	0	0	100
random	1	1	33	51551	6	4	4	1	0	906	1	4	0	32	33	0	0	100
random	1	1	34	52749	4	2	2	1	0	888	1	4	0	16	34	0	0	100
random	1	1	35	54108	3	4	4	1	0	766	1	4	0	32	35	0	0	100
random	1	1	36	55867	1	1	1	1	0	835	1	4	0	8	36	0	0	100
random	1	1	37	57523	3	4	4	1	0	1125	1	4	0	32	37	0	0	100
random	1	1	38	59662	5	3	3	1	0	1003	1	4	0	24	38	0	0	100
random	1	1	39	61226	6	1	1	1	0	769	1	4	0	8	39	0	0	100
random	1	1	40	62385	1	2	2	1	0	935	1	4	0	16	40	0	0	100
random	1	1	41	64175	2	3	3	1	0	811	1	4	0	24	41	0	0	100
random	1	1	42	65802	4	4	4	1	0	743	1	4	0	32	42	0	0	100
random	1	1	43	67016	1	2	2	1	0	971	1	4	0	16	43	0	0	100
random	1	1	44	68503	6	3	3	1	0	804	1	4	0	24	44	0	0	100
random	1	1	45	70124	3	1	1	1	0	792	1	4	0	8	45	0	0	100
random	1	1	46	71525	4	4	4	1	0	900	1	4	0	32	46	0	0	100
random	1	1	47	72779	2	2	2	1	0	1095	1	4	0	16	47	0	0	100
random	1	1	48	74277	5	1	1	1	0	1048	1	4	0	8	48	0	0	100
random	1	1	49	76470	2	3	3	1	0	1251	1	4	0	24	49	0	0	100
random	1	1	50	78596	3	1	1	1	0	817	1	4	0	8	50	0	0	100
random	1	1	51	79988	1	4	4	1	0	798	1	4	0	32	51	0	0	100
random	1	1	52	81768	5	3	3	1	0	1082	1	4	0	24	52	0	0	100
random	1	1	53	83348	3	2	2	1	0	824	1	4	0	16	53	0	0	100
random	1	1	54	85206	6	4	4	1	0	665	1	4	0	32	54	0	0	100
random	1	1	55	86593	4	2	2	1	0	838	1	4	0	16	55	0	0	100
random	1	1	56	87900	1	1	1	1	0	823	1	4	0	8	56	0	0	100
random	1	1	57	89228	5	4	4	1	0	791	1	4	0	32	57	0	0	100
random	1	1	58	90592	2	1	1	1	0	925	1	4	0	8	58	0	0	100
random	1	1	59	92058	6	2	2	1	0	798	1	4	0	16	59	0	0	100
random	1	1	60	93853	4	3	3	1	0	1179	1	4	0	24	60	0	0	100
random	1	1	61	95684	1	2	2	1	0	997	1	4	0	16	61	0	0	100
random	1	1	62	97363	6	4	4	1	0	702	1	4	0	32	62	0	0	100
random	1	1	63	98909	4	1	1	1	0	804	1	4	0	8	63	0	0	100
random	1	1	64	100430	2	2	2	1	0	1076	1	4	0	16	64	0	0	100
random	1	1	65	102320	4	3	3	2	0	2060	2	4	0	24	65	0	0	100
random	1	1	66	105157	3	1	1	1	0	812	1	4	0	8	66	0	0	100
random	1	1	67	106302	1	3	3	1	0	1316	1	4	0	24	67	0	0	100
random	1	1	68	108062	5	4	4	1	0	848	1	4	0	32	68	0	0	100
random	1	1	69	109611	2	2	2	1	0	911	1	4	0	16	69	0	0	100
random	1	1	70	111065	3	1	1	1	0	778	1	4	0	8	70	0	0	100
random	1	1	71	112199	5	4	4	1	0	874	1	4	0	32	71	0	0	100
random	1	1	72	113581	6	3	3	1	0	983	1	4	0	24	72	0	0	100
random	1	1	73	115365	2	1	1	1	0	1147	1	4	0	8	73	0	0	100
random	1	1	74	117153	5	3	3	1	0	1016	1	4	0	24	74	0	0	100
random	1	1	75	118817	1	4	4	1	0	641	1	4	0	32	75	0	0	100
random	1	1	76	119869	6	2	2	1	0	813	1	4	0	16	76	0	0	100
random	1	1	77	121255	2	1	1	1	0	778	1	4	0	8	77	0	0	100
random	1	1	78	122846	4	4	4	1	0	863	1	4	0	32	78	0	0	100
random	1	1	79	124338	3	2	2	1	0	919	1	4	0	16	79	0	0	100
random	1	1	80	125695	4	3	3	1	0	990	1	4	0	24	80	0	0	100
random	1	1	81	127486	1	4	4	1	0	778	1	4	0	32	81	0	0	100
random	1	1	82	128641	5	1	1	1	0	793	1	4	0	8	82	0	0	100
random	1	1	83	129798	3	2	2	1	0	872	1	4	0	16	83	0	0	100
random	1	1	84	130975	6	3	3	1	0	814	1	4	0	24	84	0	0	100
random	1	1	85	132992	3	2	2	1	0	1049	1	4	0	16	85	0	0	100
random	1	1	86	134953	1	3	3	1	0	1038	1	4	0	24	86	0	0	100
random	1	1	87	136511	4	4	4	1	0	676	1	4	0	32	87	0	0	100
random	1	1	88	137809	2	1	1	2	0	1477	2	4	0	8	88	0	0	100
random	1	1	89	139703	6	4	4	1	0	957	1	4	0	32	89	0	0	100
random	1	1	90	141131	3	3	3	1	0	1168	1	4	0	24	90	0	0	100
random	1	1	91	142621	5	4	4	1	0	1113	1	4	0	32	91	0	0	100
random	1	1	92	144642	1	2	2	1	0	996	1	4	0	16	92	0	0	100
random	1	1	93	146608	5	1	1	1	0	744	1	4	0	8	93	0	0	100
random	1	1	94	148040	4	3	3	1	0	1244	1	4	0	24	94	0	0	100
random	1	1	95	150291	6	1	1	1	0	1100	1	4	0	8	95	0	0	100
random	1	1	96	152095	2	2	2	1	0	1416	1	4	0	16	96	0	0	100
random	1	1	97	154779	4	3	3	1	0	1358	1	4	0	24	97	0	0	100
random	1	1	98	156459	3	2	2	1	0	1031	1	4	0	16	98	0	0	100
random	1	1	99	158264	6	3	3	1	0	979	1	4	0	24	99	0	0	100
random	1	1	100	159684	1	4	4	1	0	623	1	4	0	32	100	0	0	100
random	1	1	101	161141	4	1	1	1	0	833	1	4	0	8	101	0	0	100
random	1	1	102	162722	5	2	2	1	0	822	1	4	0	16	102	0	0	100
random	1	1	103	164465	2	4	4	1	0	572	1	4	0	32	103	0	0	100
random	1	1	104	165473	3	1	1	2	0	993	2	4	0	8	104	0	0	100
random	1	1	105	166840	1	3	3	1	0	1031	1	4	0	24	105	0	0	100
random	1	1	106	168511	2	2	2	1	0	984	1	4	0	16	106	0	0	100
random	1	1	107	169949	5	4	4	1	0	787	1	4	0	32	107	0	0	100
random	1	1	108	171317	6	1	1	1	0	905	1	4	0	8	108	0	0	100
random	1	1	109	173458	5	4	4	1	0	1031	1	4	0	32	109	0	0	100
random	1	1	110	175424	6	3	3	1	0	1124	1	4	0	24	110	0	0	100
random	1	1	111	177246	2	2	2	1	0	759	1	4	0	16	111	0	0	100
random	1	1	112	178290	3	1	1	1	0	770	1	4	0	8	112	0	0	100
random	1	1	113	179589	1	2	2	1	0	835	1	4	0	16	113	0	0	100
random	1	1	114	180908	2	3	3	1	0	923	1	4	0	24	114	0	0	100
random	1	1	115	182629	3	1	1	1	0	826	1	4	0	8	115	0	0	100
random	1	1	116	184361	4	4	4	1	0	785	1	4	0	32	116	0	0	100
random	1	1	117	185750	6	1	1	1	0	935	1	4	0	8	117	0	0	100
random	1	1	118	187454	5	3	3	2	0	967	2	4	0	24	118	0	0	100
random	1	1	119	188948	1	4	4	1	0	735	1	4	0	32	119	0	0	100
random	1	1	120	190157	4	2	2	1	0	892	1	4	0	16	120	0	0	100
fixed	2	1	1	192051	4	1	1	1	0	1011	1	4	0	40	1	0	0	100
fixed	2	1	2	193823	1	2	2	1	0	1216	1	4	0	48	2	0	0	100
fixed	2	1	3	195894	6	4	4	1	0	736	1	4	0	64	3	0	0	100
fixed	2	1	4	197671	2	1	1	1	0	717	1	4	0	40	4	0	0	100
fixed	2	1	5	198941	5	3	3	1	0	864	1	4	0	56	5	0	0	100
fixed	2	1	6	200691	6	4	4	1	0	853	1	4	0	64	6	0	0	100
fixed	2	1	7	202113	3	1	1	1	0	841	1	4	0	40	7	0	0	100
fixed	2	1	8	203465	2	3	3	1	0	944	1	4	0	56	8	0	0	100
fixed	2	1	9	205187	3	2	2	1	0	847	1	4	0	48	9	0	0	100
fixed	2	1	10	206437	1	4	4	1	0	946	1	4	0	64	10	0	0	100
fixed	2	1	11	207797	5	2	2	1	0	841	1	4	0	48	11	0	0	100
fixed	2	1	12	209454	4	3	3	1	0	883	1	4	0	56	12	0	0	100
fixed	2	2	1	211518	4	1	1	1	0	723	1	4	0	40	13	0	0	100
fixed	2	2	2	212746	1	2	2	1	0	943	1	4	0	48	14	0	0	100
fixed	2	2	3	214617	6	4	4	1	0	672	1	4	0	64	15	0	0	100
fixed	2	2	4	215748	2	1	1	1	0	768	1	4	0	40	16	0	0	100
fixed	2	2	5	217427	5	3	3	1	0	873	1	4	0	56	17	0	0	100
fixed	2	2	6	218995	6	4	4	1	0	630	1	4	0	64	18	0	0	100
fixed	2	2	7	220581	3	1	1	1	0	651	1	4	0	40	19	0	0	100
fixed	2	2	8	221882	2	3	3	1	0	804	1	4	0	56	20	0	0	100
fixed	2	2	9	223722	3	2	2	1	0	678	1	4	0	48	21	0	0	100
fixed	2	2	10	225066	1	4	4	1	0	645	1	4	0	64	22	0	0	100
fixed	2	2	11	226280	5	2	2	1	0	914	1	4	0	48	23	0	0	100
fixed	2	2	12	228010	4	3	3	1	0	1008	1	4	0	56	24	0	0	100
fixed	2	3	1	230147	4	1	1	1	0	726	1	4	0	40	25	0	0	100
fixed	2	3	2	231166	1	2	2	1	0	947	1	4	0	48	26	0	0	100
fixed	2	3	3	232637	6	4	4	1	0	660	1	4	0	64	27	0	0	100
fixed	2	3	4	234062	2	1	1	1	0	752	1	4	0	40	28	0	0	100
fixed	2	3	5	235798	5	3	3	1	0	807	1	4	0	56	29	0	0	100
fixed	2	3	6	237613	6	4	4	1	0	761	1	4	0	64	30	0	0	100
fixed	2	3	7	238869	3	1	1	1	0	772	1	4	0	40	31	0	0	100
fixed	2	3	8	240124	2	3	3	1	0	951	1	4	0	56	32	0	0	100
fixed	2	3	9	241704	3	2	2	1	0	637	1	4	0	48	33	0	0	100
fixed	2	3	10	242905	1	4	4	1	0	698	1	4	0	64	34	0	0	100
fixed	2	3	11	244103	5	2	2	1	0	823	1	4	0	48	35	0	0	100
fixed	2	3	12	245936	4	3	3	1	0	1265	1	4	0	56	36	0	0	100
fixed	2	4	1	248258	4	1	1	1	0	823	1	4	0	40	37	0	0	100
fixed	2	4	2	249558	1	2	2	1	0	1128	1	4	0	48	38	0	0	100
fixed	2	4	3	251670	6	4	4	1	0	694	1	4	0	64	39	0	0	100
fixed	2	4	4	253127	2	1	1	1	0	809	1	4	0	40	40	0	0	100
fixed	2	4	5	254401	5	3	3	1	0	907	1	4	0	56	41	0	0	100
fixed	2	4	6	256003	6	4	4	1	0	807	1	4	0	64	42	0	0	100
fixed	2	4	7	257367	3	1	1	1	0	749	1	4	0	40	43	0	0	100
fixed	2	4	8	258890	2	3	3	1	0	805	1	4	0	56	44	0	0	100
fixed	2	4	9	260546	3	2	2	1	0	687	1	4	0	48	45	0	0	100
fixed	2	4	10	261956	1	4	4	1	0	618	1	4	0	64	46	0	0	100
fixed	2	4	11	263130	5	2	2	1	0	809	1	4	0	48	47	0	0	100
fixed	2	4	12	264539	4	3	3	1	0	821	1	4	0	56	48	0	0	100
fixed	2	5	1	266118	4	1	1	1	0	714	1	4	0	40	49	0	0	100
fixed	2	5	2	267487	1	2	2	1	0	912	1	4	0	48	50	0	0	100
fixed	2	5	3	268742	6	4	4	1	0	683	1	4	0	64	51	0	0	100
fixed	2	5	4	270052	2	1	1	1	0	780	1	4	0	40	52	0	0	100
fixed	2	5	5	271511	5	3	3	1	0	734	1	4	0	56	53	0	0	100
fixed	2	5	6	273193	6	4	4	1	0	935	1	4	0	64	54	0	0	100
fixed	2	5	7	274686	3	1	1	1	0	911	1	4	0	40	55	0	0	100
fixed	2	5	8	275978	2	3	3	1	0	793	1	4	0	56	56	0	0	100
fixed	2	5	9	277343	3	2	2	1	0	647	1	4	0	48	57	0	0	100
fixed	2	5	10	278907	1	4	4	1	0	661	1	4	0	64	58	0	0	100
fixed	2	5	11	279948	5	2	2	1	0	825	1	4	0	48	59	0	0	100
fixed	2	5	12	281159	4	3	3	1	0	861	1	4	0	56	60	0	0	100
fixed	2	6	1	282609	4	1	1	1	0	624	1	4	0	40	61	0	0	100
fixed	2	6	2	283822	1	2	2	1	0	869	1	4	0	48	62	0	0	100
fixed	2	6	3	285667	6	4	4	1	0	630	1	4	0	64	63	0	0	100
fixed	2	6	4	286791	2	1	1	1	0	807	1	4	0	40	64	0	0	100
fixed	2	6	5	288180	5	3	3	1	0	804	1	4	0	56	65	0	0	100
fixed	2	6	6	289380	6	4	4	1	0	777	1	4	0	64	66	0	0	100
fixed	2	6	7	290719	3	1	1	1	0	561	1	4	0	40	67	0	0	100
fixed	2	6	8	291931	2	3	3	1	0	725	1	4	0	56	68	0	0	100
fixed	2	6	9	293411	3	2	2	1	0	767	1	4	0	48	69	0	0	100
fixed	2	6	10	294784	1	4	4	1	0	701	1	4	0	64	70	0	0	100
fixed	2	6	11	295946	5	2	2	1	0	803	1	4	0	48	71	0	0	100
fixed	2	6	12	297682	4	3	3	1	0	1266	1	4	0	56	72	0	0	100
fixed	2	7	1	299517	4	1	1	1	0	676	1	4	0	40	73	0	0	100
fixed	2	7	2	300787	1	2	2	1	0	878	1	4	0	48	74	0	0	100
fixed	2	7	3	302136	6	4	4	1	0	765	1	4	0	64	75	0	0	100
fixed	2	7	4	303440	2	1	1	1	0	758	1	4	0	40	76	0	0	100
fixed	2	7	5	305007	5	3	3	1	0	916	1	4	0	56	77	0	0	100
fixed	2	7	6	306286	6	4	4	1	0	781	1	4	0	64	78	0	0	100
fixed	2	7	7	307767	3	1	1	2	0	1431	2	4	0	40	79	0	0	100
fixed	2	7	8	309636	2	3	3	1	0	1448	1	4	0	56	80	0	0	100
fixed	2	7	9	311792	3	2	2	1	0	956	1	4	0	48	81	0	0	100
fixed	2	7	10	313132	1	4	4	1	0	779	1	4	0	64	82	0	0	100
fixed	2	7	11	314835	5	2	2	1	0	987	1	4	0	48	83	0	0	100
fixed	2	7	12	316785	4	3	3	1	0	1009	1	4	0	56	84	0	0	100
fixed	2	8	1	318814	4	1	1	1	0	698	1	4	0	40	85	0	0	100
fixed	2	8	2	319811	1	2	2	1	0	1337	1	4	0	48	86	0	0	100
fixed	2	8	3	321893	6	4	4	1	0	968	1	4	0	64	87	0	0	100
fixed	2	8	4	323388	2	1	1	1	0	921	1	4	0	40	88	0	0	100
fixed	2	8	5	325138	5	3	3	1	0	871	1	4	0	56	89	0	0	100
fixed	2	8	6	326831	6	4	4	2	0	1007	2	4	0	64	90	0	0	100
fixed	2	8	7	328740	3	1	1	1	0	1054	1	4	0	40	91	0	0	100
fixed	2	8	8	330226	2	3	3	1	0	927	1	4	0	56	92	0	0	100
fixed	2	8	9	331450	3	2	2	1	0	731	1	4	0	48	93	0	0	100
fixed	2	8	10	332678	1	4	4	1	0	680	1	4	0	64	94	0	0	100
fixed	2	8	11	333851	5	2	2	1	0	1053	1	4	0	48	95	0	0	100
fixed	2	8	12	335697	4	3	3	1	0	1120	1	4	0	56	96	0	0	100
fixed	2	9	1	337410	4	1	1	1	0	815	1	4	0	40	97	0	0	100
fixed	2	9	2	338744	1	2	2	1	0	926	1	4	0	48	98	0	0	100
fixed	2	9	3	340659	6	4	4	1	0	597	1	4	0	64	99	0	0	100
fixed	2	9	4	341999	2	1	1	1	0	989	1	4	0	40	100	0	0	100
fixed	2	9	5	343615	5	3	3	1	0	904	1	4	0	56	101	0	0	100
fixed	2	9	6	344867	6	4	4	1	0	891	1	4	0	64	102	0	0	100
fixed	2	9	7	346633	3	1	1	1	0	744	1	4	0	40	103	0	0	100
fixed	2	9	8	348355	2	3	3	1	0	839	1	4	0	56	104	0	0	100
fixed	2	9	9	349993	3	2	2	1	0	746	1	4	0	48	105	0	0	100
fixed	2	9	10	351363	1	4	4	1	0	888	1	4	0	64	106	0	0	100
fixed	2	9	11	353024	5	2	2	1	0	826	1	4	0	48	107	0	0	100
fixed	2	9	12	354385	4	3	3	1	0	1144	1	4	0	56	108	0	0	100
fixed	2	10	1	356273	4	1	1	1	0	736	1	4	0	40	109	0	0	100
fixed	2	10	2	357886	1	2	2	1	0	876	1	4	0	48	110	0	0	100
fixed	2	10	3	359245	6	4	4	1	0	642	1	4	0	64	111	0	0	100
fixed	2	10	4	360869	2	1	1	1	0	685	1	4	0	40	112	0	0	100
fixed	2	10	5	361942	5	3	3	1	0	744	1	4	0	56	113	0	0	100
fixed	2	10	6	363242	6	4	4	1	0	865	1	4	0	64	114	0	0	100
fixed	2	10	7	364823	3	1	1	1	0	798	1	4	0	40	115	0	0	100
fixed	2	10	8	366552	2	3	3	1	0	1021	1	4	0	56	116	0	0	100
fixed	2	10	9	368190	3	2	2	1	0	679	1	4	0	48	117	0	0	100
fixed	2	10	10	369393	1	4	4	1	0	684	1	4	0	64	118	0	0	100
fixed	2	10	11	370424	5	2	2	1	0	944	1	4	0	48	119	0	0	100
fixed	2	10	12	371873	4	3	3	1	0	900	1	4	0	56	120	0	0	100
fixed	3	1	1	374231	4	1	1	1	0	847	1	4	0	72	1	0	0	100
fixed	3	1	2	375843	1	2	2	1	0	907	1	4	0	80	2	0	0	100
fixed	3	1	3	377382	6	4	4	1	0	714	1	4	0	96	3	0	0	100
fixed	3	1	4	378557	2	1	1	1	0	1072	1	4	0	72	4	0	0	100
fixed	3	1	5	380375	5	3	3	1	0	899	1	4	0	88	5	0	0	100
fixed	3	1	6	381641	6	4	4	1	0	878	1	4	0	96	6	0	0	100
fixed	3	1	7	382953	3	1	1	1	0	846	1	4	0	72	7	0	0	100
fixed	3	1	8	384429	2	3	3	1	0	831	1	4	0	88	8	0	0	100
fixed	3	1	9	385670	3	2	2	1	0	763	1	4	0	80	9	0	0	100
fixed	3	1	10	387284	1	4	4	1	0	966	1	4	0	96	10	0	0	100
fixed	3	1	11	389063	5	2	2	1	0	907	1	4	0	80	11	0	0	100
fixed	3	1	12	390427	4	3	3	1	0	1129	1	4	0	88	12	0	0	100
fixed	3	2	1	392829	4	1	1	1	0	771	1	4	0	72	13	0	0	100
fixed	3	2	2	394141	1	2	2	1	0	916	1	4	0	80	14	0	0	100
fixed	3	2	3	395835	6	4	4	1	0	716	1	4	0	96	15	0	0	100
fixed	3	2	4	397080	2	1	1	1	0	896	1	4	0	72	16	0	0	100
fixed	3	2	5	398464	5	3	3	1	0	853	1	4	0	88	17	0	0	100
fixed	3	2	6	399925	6	4	4	1	0	687	1	4	0	96	18	0	0	100
fixed	3	2	7	400949	3	1	1	1	0	908	1	4	0	72	19	0	0	100
fixed	3	2	8	402265	2	3	3	1	0	972	1	4	0	88	20	0	0	100
fixed	3	2	9	403528	3	2	2	1	0	703	1	4	0	80	21	0	0	100
fixed	3	2	10	404994	1	4	4	1	0	736	1	4	0	96	22	0	0	100
fixed	3	2	11	406323	5	2	2	1	0	856	1	4	0	80	23	0	0	100
fixed	3	2	12	407961	4	3	3	1	0	691	1	4	0	88	24	0	0	100
fixed	3	3	1	409788	4	1	1	1	0	701	1	4	0	72	25	0	0	100
fixed	3	3	2	410977	1	2	2	1	0	1027	1	4	0	80	26	0	0	100
fixed	3	3	3	412976	6	4	4	1	0	782	1	4	0	96	27	0	0	100
fixed	3	3	4	414301	2	1	1	1	0	1104	1	4	0	72	28	0	0	100
fixed	3	3	5	415779	5	3	3	1	0	1352	1	4	0	88	29	0	0	100
fixed	3	3	6	417738	6	4	4	1	0	1020	1	4	0	96	30	0	0	100
fixed	3	3	7	419260	3	1	1	1	0	716	1	4	0	72	31	0	0	100
fixed	3	3	8	420469	2	3	3	1	0	737	1	4	0	88	32	0	0	100
fixed	3	3	9	422220	3	2	2	1	0	975	1	4	0	80	33	0	0	100
fixed	3	3	10	423567	1	4	4	1	0	822	1	4	0	96	34	0	0	100
fixed	3	3	11	424886	5	2	2	1	0	798	1	4	0	80	35	0	0	100
fixed	3	3	12	426208	4	3	3	1	0	918	1	4	0	88	36	0	0	100
fixed	3	4	1	427698	4	1	1	1	0	679	1	4	0	72	37	0	0	100
fixed	3	4	2	429276	1	2	2	1	0	892	1	4	0	80	38	0	0	100
fixed	3	4	3	430884	6	4	4	1	0	616	1	4	0	96	39	0	0	100
fixed	3	4	4	431905	2	1	1	1	0	877	1	4	0	72	40	0	0	100
fixed	3	4	5	433673	5	3	3	1	0	866	1	4	0	88	41	0	0	100
fixed	3	4	6	435211	6	4	4	1	0	721	1	4	0	96	42	0	0	100
fixed	3	4	7	436828	3	1	1	1	0	908	1	4	0	72	43	0	0	100
fixed	3	4	8	438602	2	3	3	1	0	1113	1	4	0	88	44	0	0	100
fixed	3	4	9	440703	3	2	2	1	0	704	1	4	0	80	45	0	0	100
fixed	3	4	10	441816	1	4	4	1	0	801	1	4	0	96	46	0	0	100
fixed	3	4	11	443008	5	2	2	1	0	790	1	4	0	80	47	0	0	100
fixed	3	4	12	444288	4	3	3	1	0	1072	1	4	0	88	48	0	0	100
fixed	3	5	1	445943	4	1	1	1	0	690	1	4	0	72	49	0	0	100
fixed	3	5	2	447326	1	2	2	1	0	1072	1	4	0	80	50	0	0	100
fixed	3	5	3	448973	6	4	4	1	0	826	1	4	0	96	51	0	0	100
fixed	3	5	4	450274	2	1	1	1	0	1043	1	4	0	72	52	0	0	100
fixed	3	5	5	452143	5	3	3	1	0	1043	1	4	0	88	53	0	0	100
fixed	3	5	6	454122	6	4	4	1	0	736	1	4	0	96	54	0	0	100
fixed	3	5	7	455191	3	1	1	1	0	1235	1	4	0	72	55	0	0	100
fixed	3	5	8	457247	2	3	3	1	0	915	1	4	0	88	56	0	0	100
fixed	3	5	9	458887	3	2	2	1	0	766	1	4	0	80	57	0	0	100
fixed	3	5	10	460646	1	4	4	1	0	651	1	4	0	96	58	0	0	100
fixed	3	5	11	462066	5	2	2	1	0	911	1	4	0	80	59	0	0	100
fixed	3	5	12	463558	4	3	3	1	0	1248	1	4	0	88	60	0	0	100
fixed	3	6	1	465975	4	1	1	1	0	793	1	4	0	72	61	0	0	100
fixed	3	6	2	467353	1	2	2	1	0	855	1	4	0	80	62	0	0	100
fixed	3	6	3	468985	6	4	4	1	0	706	1	4	0	96	63	0	0	100
fixed	3	6	4	470223	2	1	1	1	0	966	1	4	0	72	64	0	0	100
fixed	3	6	5	471624	5	3	3	1	0	818	1	4	0	88	65	0	0	100
fixed	3	6	6	472933	6	4	4	1	0	859	1	4	0	96	66	0	0	100
fixed	3	6	7	474462	3	1	1	1	0	754	1	4	0	72	67	0	0	100
fixed	3	6	8	475596	2	3	3	1	0	1010	1	4	0	88	68	0	0	100
fixed	3	6	9	477392	3	2	2	1	0	710	1	4	0	80	69	0	0	100
fixed	3	6	10	478551	1	4	4	1	0	941	1	4	0	96	70	0	0	100
fixed	3	6	11	480019	5	2	2	1	0	791	1	4	0	80	71	0	0	100
fixed	3	6	12	481295	4	3	0	2	2	0	3	4	0	88	71	0	1	99
fixed	3	7	1	484621	4	1	1	1	0	1004	1	4	0	72	72	0	1	99
fixed	3	7	2	486592	1	2	2	1	0	1272	1	4	0	80	73	0	1	99
fixed	3	7	3	488364	6	4	4	1	0	693	1	4	0	96	74	0	1	99
fixed	3	7	4	489851	2	1	1	1	0	998	1	4	0	72	75	0	1	99
fixed	3	7	5	491876	5	3	3	1	0	985	1	4	0	88	76	0	1	99
fixed	3	7	6	493851	6	4	4	1	0	709	1	4	0	96	77	0	1	99
fixed	3	7	7	495442	3	1	1	1	0	706	1	4	0	72	78	0	1	99
fixed	3	7	8	497125	2	3	3	1	0	1122	1	4	0	88	79	0	1	99
fixed	3	7	9	498664	3	2	2	1	0	849	1	4	0	80	80	0	1	99
fixed	3	7	10	500179	1	4	4	1	0	673	1	4	0	96	81	0	1	99
fixed	3	7	11	501325	5	2	2	1	0	1049	1	4	0	80	82	0	1	99
fixed	3	7	12	503181	4	3	3	1	0	969	1	4	0	88	83	0	1	99
fixed	3	8	1	504821	4	1	1	1	0	740	1	4	0	72	84	0	1	99
fixed	3	8	2	505948	1	2	2	1	0	917	1	4	0	80	85	0	1	99
fixed	3	8	3	507718	6	4	4	1	0	730	1	4	0	96	86	0	1	99
fixed	3	8	4	509298	2	1	1	1	0	918	1	4	0	72	87	0	1	99
fixed	3	8	5	511042	5	3	3	1	0	925	1	4	0	88	88	0	1	99
fixed	3	8	6	512331	6	4	4	1	0	814	1	4	0	96	89	0	1	99
fixed	3	8	7	514023	3	1	1	1	0	1311	1	4	0	72	90	0	1	99
fixed	3	8	8	515717	2	3	3	1	0	1767	1	4	0	88	91	0	1	99
fixed	3	8	9	518233	3	2	2	1	0	781	1	4	0	80	92	0	1	99
fixed	3	8	10	519320	1	4	4	1	0	679	1	4	0	96	93	0	1	99
fixed	3	8	11	520521	5	2	2	1	0	820	1	4	0	80	94	0	1	99
fixed	3	8	12	522265	4	3	3	1	0	865	1	4	0	88	95	0	1	99
fixed	3	9	1	524285	4	1	1	1	0	732	1	4	0	72	96	0	1	99
fixed	3	9	2	525928	1	2	2	1	0	1278	1	4	0	80	97	0	1	99
fixed	3	9	3	527724	6	4	4	1	0	706	1	4	0	96	98	0	1	99
fixed	3	9	4	528772	2	1	1	1	0	958	1	4	0	72	99	0	1	99
fixed	3	9	5	530633	5	3	3	1	0	1047	1	4	0	88	100	0	1	99
fixed	3	9	6	532052	6	4	4	1	0	779	1	4	0	96	101	0	1	99
fixed	3	9	7	533198	3	1	1	2	0	1698	2	4	0	72	102	0	1	99
fixed	3	9	8	535527	2	3	3	1	0	1215	1	4	0	88	103	0	1	99
fixed	3	9	9	537571	3	2	2	1	0	873	1	4	0	80	104	0	1	99
fixed	3	9	10	538794	1	4	4	1	0	766	1	4	0	96	105	0	1	99
fixed	3	9	11	540453	5	2	2	1	0	1007	1	4	0	80	106	0	1	99
fixed	3	9	12	542101	4	3	3	1	0	801	1	4	0	88	107	0	1	99
fixed	3	10	1	544034	4	1	1	1	0	847	1	4	0	72	108	0	1	99
fixed	3	10	2	545826	1	2	2	1	0	996	1	4	0	80	109	0	1	99
fixed	3	10	3	547227	6	4	4	1	0	848	1	4	0	96	110	0	1	99
fixed	3	10	4	548642	2	1	1	1	0	908	1	4	0	72	111	0	1	99
fixed	3	10	5	550386	5	3	3	1	0	1282	1	4	0	88	112	0	1	99
fixed	3	10	6	552029	6	4	4	1	0	741	1	4	0	96	113	0	1	99
fixed	3	10	7	553746	3	1	1	1	0	780	1	4	0	72	114	0	1	99
fixed	3	10	8	555044	2	3	3	1	0	1085	1	4	0	88	115	0	1	99
fixed	3	10	9	556859	3	2	2	1	0	840	1	4	0	80	116	0	1	99
fixed	3	10	10	558178	1	4	4	1	0	665	1	4	0	96	117	0	1	99
fixed	3	10	11	559708	5	2	2	1	0	1079	1	4	0	80	118	0	1	99
fixed	3	10	12	561173	4	3	3	1	0	1137	1	4	0	88	119	0	1	99
fixed	4	1	1	647669	4	1	1	1	0	1306	1	4	0	104	1	0	0	100
fixed	4	1	2	649465	1	2	2	2	0	1102	2	4	0	112	2	0	0	100
fixed	4	1	3	651480	6	4	4	1	0	744	1	4	0	128	3	0	0	100
fixed	4	1	4	652542	2	1	1	1	0	788	1	4	0	104	4	0	0	100
fixed	4	1	5	653773	5	3	3	1	0	943	1	4	0	120	5	0	0	100
fixed	4	1	6	655082	6	4	4	1	0	728	1	4	0	128	6	0	0	100
fixed	4	1	7	656527	3	1	1	1	0	651	1	4	0	104	7	0	0	100
fixed	4	1	8	657488	2	3	3	1	0	842	1	4	0	120	8	0	0	100
fixed	4	1	9	659239	3	2	2	1	0	624	1	4	0	112	9	0	0	100
fixed	4	1	10	660499	1	4	4	1	0	699	1	4	0	128	10	0	0	100
fixed	4	1	11	661913	5	2	2	1	0	895	1	4	0	112	11	0	0	100
fixed	4	1	12	663432	4	3	3	1	0	822	1	4	0	120	12	0	0	100
fixed	4	2	1	665481	4	1	1	1	0	527	1	4	0	104	13	0	0	100
fixed	4	2	2	666992	1	2	2	1	0	1016	1	4	0	112	14	0	0	100
fixed	4	2	3	668910	6	4	4	1	0	566	1	4	0	128	15	0	0	100
fixed	4	2	4	670226	2	1	1	1	0	710	1	4	0	104	16	0	0	100
fixed	4	2	5	671403	5	3	3	1	0	805	1	4	0	120	17	0	0	100
fixed	4	2	6	672892	6	4	4	1	0	718	1	4	0	128	18	0	0	100
fixed	4	2	7	674298	3	1	1	1	0	850	1	4	0	104	19	0	0	100
fixed	4	2	8	676088	2	3	3	1	0	998	1	4	0	120	20	0	0	100
fixed	4	2	9	677953	3	2	2	1	0	751	1	4	0	112	21	0	0	100
fixed	4	2	10	679374	1	4	4	1	0	819	1	4	0	128	22	0	0	100
fixed	4	2	11	680574	5	2	2	1	0	856	1	4	0	112	23	0	0	100
fixed	4	2	12	682471	4	3	3	1	0	1048	1	4	0	120	24	0	0	100
fixed	4	3	1	684478	4	1	1	1	0	611	1	4	0	104	25	0	0	100
fixed	4	3	2	685865	1	2	2	1	0	856	1	4	0	112	26	0	0	100
fixed	4	3	3	687226	6	4	4	1	0	823	1	4	0	128	27	0	0	100
fixed	4	3	4	689011	2	1	1	1	0	867	1	4	0	104	28	0	0	100
fixed	4	3	5	690718	5	3	3	1	0	891	1	4	0	120	29	0	0	100
fixed	4	3	6	692190	6	4	4	1	0	749	1	4	0	128	30	0	0	100
fixed	4	3	7	693797	3	1	1	2	0	1297	2	4	0	104	31	0	0	100
fixed	4	3	8	695683	2	3	3	1	0	1160	1	4	0	120	32	0	0	100
fixed	4	3	9	697178	3	2	2	1	0	753	1	4	0	112	33	0	0	100
fixed	4	3	10	698618	1	4	4	1	0	684	1	4	0	128	34	0	0	100
fixed	4	3	11	700087	5	2	2	1	0	998	1	4	0	112	35	0	0	100
fixed	4	3	12	701574	4	3	3	1	0	759	1	4	0	120	36	0	0	100
fixed	4	4	1	703508	4	1	1	1	0	749	1	4	0	104	37	0	0	100
fixed	4	4	2	704589	1	2	2	1	0	999	1	4	0	112	38	0	0	100
fixed	4	4	3	706067	6	4	4	1	0	712	1	4	0	128	39	0	0	100
fixed	4	4	4	707504	2	1	1	1	0	780	1	4	0	104	40	0	0	100
fixed	4	4	5	709171	5	3	0	0	2	0	3	4	0	120	40	0	1	98
fixed	4	4	6	712065	6	4	4	1	0	906	1	4	0	128	41	0	1	98
fixed	4	4	7	713435	3	1	1	1	0	744	1	4	0	104	42	0	1	98
fixed	4	4	8	714732	2	3	3	1	0	962	1	4	0	120	43	0	1	98
fixed	4	4	9	716057	3	2	2	1	0	801	1	4	0	112	44	0	1	98
fixed	4	4	10	717415	1	4	4	1	0	696	1	4	0	128	45	0	1	98
fixed	4	4	11	718901	5	2	2	1	0	985	1	4	0	112	46	0	1	98
fixed	4	4	12	720651	4	3	3	1	0	839	1	4	0	120	47	0	1	98
fixed	4	5	1	722738	4	1	1	1	0	718	1	4	0	104	48	0	1	98
fixed	4	5	2	723958	1	2	2	1	0	1011	1	4	0	112	49	0	1	98
fixed	4	5	3	725559	6	4	4	1	0	679	1	4	0	128	50	0	1	98
fixed	4	5	4	726568	2	1	1	1	0	780	1	4	0	104	51	0	1	98
fixed	4	5	5	727951	5	3	3	1	0	945	1	4	0	120	52	0	1	98
fixed	4	5	6	729558	6	4	4	2	0	2102	2	4	0	128	53	0	1	98
fixed	4	5	7	732217	3	1	1	1	0	1709	1	4	0	104	54	0	1	98
fixed	4	5	8	734476	2	3	3	1	0	909	1	4	0	120	55	0	1	98
fixed	4	5	9	736136	3	2	2	1	0	791	1	4	0	112	56	0	1	98
fixed	4	5	10	737704	1	4	4	1	0	733	1	4	0	128	57	0	1	98
fixed	4	5	11	739090	5	2	2	1	0	898	1	4	0	112	58	0	1	98
fixed	4	5	12	740290	4	3	3	1	0	943	1	4	0	120	59	0	1	98
fixed	4	6	1	742119	4	1	1	1	0	761	1	4	0	104	60	0	1	98
fixed	4	6	2	743334	1	2	2	1	0	942	1	4	0	112	61	0	1	98
fixed	4	6	3	744719	6	4	4	1	0	724	1	4	0	128	62	0	1	98
fixed	4	6	4	746445	2	1	1	1	0	922	1	4	0	104	63	0	1	98
fixed	4	6	5	748315	5	3	3	1	0	1155	1	4	0	120	64	0	1	98
fixed	4	6	6	750409	6	4	4	1	0	826	1	4	0	128	65	0	1	98
fixed	4	6	7	751654	3	1	1	1	0	1006	1	4	0	104	66	0	1	99
fixed	4	6	8	753498	2	3	3	1	0	823	1	4	0	120	67	0	1	99
fixed	4	6	9	754619	3	2	2	1	0	672	1	4	0	112	68	0	1	99
fixed	4	6	10	755845	1	4	4	1	0	652	1	4	0	128	69	0	1	99
fixed	4	6	11	756988	5	2	2	1	0	852	1	4	0	112	70	0	1	99
fixed	4	6	12	758869	4	3	3	2	0	1492	2	4	0	120	71	0	1	99
fixed	4	7	1	761317	4	1	1	1	0	804	1	4	0	104	72	0	1	99
fixed	4	7	2	762813	1	2	2	1	0	1333	1	4	0	112	73	0	1	99
fixed	4	7	3	764943	6	4	4	1	0	715	1	4	0	128	74	0	1	99
fixed	4	7	4	766177	2	1	1	1	0	806	1	4	0	104	75	0	1	99
fixed	4	7	5	767821	5	3	3	1	0	1001	1	4	0	120	76	0	1	99
fixed	4	7	6	769105	6	4	4	1	0	762	1	4	0	128	77	0	1	99
fixed	4	7	7	770649	3	1	1	1	0	721	1	4	0	104	78	0	1	99
fixed	4	7	8	771896	2	3	3	1	0	852	1	4	0	120	79	0	1	99
fixed	4	7	9	773626	3	2	2	1	0	707	1	4	0	112	80	0	1	99
fixed	4	7	10	775133	1	4	4	1	0	731	1	4	0	128	81	0	1	99
fixed	4	7	11	776369	5	2	2	1	0	967	1	4	0	112	82	0	1	99
fixed	4	7	12	777932	4	3	3	1	0	981	1	4	0	120	83	0	1	99
fixed	4	8	1	779912	4	1	1	1	0	801	1	4	0	104	84	0	1	99
fixed	4	8	2	781586	1	2	2	1	0	1090	1	4	0	112	85	0	1	99
fixed	4	8	3	783319	6	4	4	1	0	640	1	4	0	128	86	0	1	99
fixed	4	8	4	784951	2	1	1	1	0	996	1	4	0	104	87	0	1	99
fixed	4	8	5	786758	5	3	3	1	0	935	1	4	0	120	88	0	1	99
fixed	4	8	6	788261	6	4	4	1	0	1008	1	4	0	128	89	0	1	99
fixed	4	8	7	789651	3	1	1	1	0	1052	1	4	0	104	90	0	1	99
fixed	4	8	8	791251	2	3	3	1	0	1145	1	4	0	120	91	0	1	99
fixed	4	8	9	793367	3	2	2	1	0	647	1	4	0	112	92	0	1	99
fixed	4	8	10	794992	1	4	4	1	0	706	1	4	0	128	93	0	1	99
fixed	4	8	11	796630	5	2	2	1	0	1157	1	4	0	112	94	0	1	99
fixed	4	8	12	798243	4	3	3	1	0	1072	1	4	0	120	95	0	1	99
fixed	4	9	1	800011	4	1	1	1	0	477	1	4	0	104	96	0	1	99
fixed	4	9	2	801245	1	2	2	1	0	985	1	4	0	112	97	0	1	99
fixed	4	9	3	802738	6	4	4	1	0	1082	1	4	0	128	98	0	1	99
fixed	4	9	4	804460	2	1	1	1	0	833	1	4	0	104	99	0	1	99
fixed	4	9	5	805675	5	3	3	1	0	1181	1	4	0	120	100	0	1	99
fixed	4	9	6	807173	6	4	4	1	0	782	1	4	0	128	101	0	1	99
fixed	4	9	7	808644	3	1	1	1	0	712	1	4	0	104	102	0	1	99
fixed	4	9	8	809682	2	3	3	1	0	1188	1	4	0	120	103	0	1	99
fixed	4	9	9	811810	3	2	2	1	0	682	1	4	0	112	104	0	1	99
fixed	4	9	10	812777	1	4	4	1	0	841	1	4	0	128	105	0	1	99
fixed	4	9	11	814458	5	2	2	1	0	1098	1	4	0	112	106	0	1	99
fixed	4	9	12	816541	4	3	3	1	0	1113	1	4	0	120	107	0	1	99
fixed	4	10	1	818323	4	1	1	1	0	710	1	4	0	104	108	0	1	99
fixed	4	10	2	819615	1	2	2	1	0	1615	1	4	0	112	109	0	1	99
fixed	4	10	3	821732	6	4	4	1	0	733	1	4	0	128	110	0	1	99
fixed	4	10	4	823056	2	1	1	1	0	701	1	4	0	104	111	0	1	99
fixed	4	10	5	824219	5	3	3	1	0	988	1	4	0	120	112	0	1	99
fixed	4	10	6	826177	6	4	4	1	0	769	1	4	0	128	113	0	1	99
fixed	4	10	7	827841	3	1	1	1	0	635	1	4	0	104	114	0	1	99
fixed	4	10	8	829042	2	3	3	1	0	832	1	4	0	120	115	0	1	99
fixed	4	10	9	830446	3	2	2	1	0	629	1	4	0	112	116	0	1	99
fixed	4	10	10	831930	1	4	4	1	0	718	1	4	0	128	117	0	1	99
fixed	4	10	11	833103	5	2	2	1	0	1148	1	4	0	112	118	0	1	99
fixed	4	10	12	834992	4	3	3	1	0	716	1	4	0	120	119	0	1	99
fixed	5	1	1	836682	4	1	1	1	0	1308	1	4	0	136	1	0	0	100
fixed	5	1	2	838470	1	2	2	1	0	888	1	4	0	144	2	0	0	100
fixed	5	1	3	839883	6	4	4	1	0	1045	1	4	0	160	3	0	0	100
fixed	5	1	4	841287	2	1	1	1	0	785	1	4	0	136	4	0	0	100
fixed	5	1	5	842456	5	3	3	2	0	1304	2	4	0	152	5	0	0	100
fixed	5	1	6	844517	6	4	4	1	0	1985	1	4	0	160	6	0	0	100
fixed	5	1	7	847299	3	1	1	1	0	899	1	4	0	136	7	0	0	100
fixed	5	1	8	848793	2	3	3	1	0	1067	1	4	0	152	8	0	0	100
fixed	5	1	9	850300	3	2	2	1	0	643	1	4	0	144	9	0	0	100
fixed	5	1	10	851255	1	4	4	1	0	795	1	4	0	160	10	0	0	100
fixed	5	1	11	852832	5	2	2	1	0	913	1	4	0	144	11	0	0	100
fixed	5	1	12	854379	4	3	3	1	0	855	1	4	0	152	12	0	0	100
fixed	5	2	1	856199	4	1	1	1	0	514	1	4	0	136	13	0	0	100
fixed	5	2	2	857660	1	2	2	1	0	924	1	4	0	144	14	0	0	100
fixed	5	2	3	859471	6	4	4	1	0	743	1	4	0	160	15	0	0	100
fixed	5	2	4	860664	2	1	1	1	0	1325	1	4	0	136	16	0	0	100
fixed	5	2	5	862401	5	3	3	1	0	1043	1	4	0	152	17	0	0	100
fixed	5	2	6	864014	6	4	4	1	0	815	1	4	0	160	18	0	0	100
fixed	5	2	7	865854	3	1	1	1	0	1273	1	4	0	136	19	0	0	100
fixed	5	2	8	868082	2	3	3	1	0	1106	1	4	0	152	20	0	0	100
fixed	5	2	9	869925	3	2	2	1	0	989	1	4	0	144	21	0	0	100
fixed	5	2	10	871753	1	4	4	1	0	679	1	4	0	160	22	0	0	100
fixed	5	2	11	873132	5	2	2	1	0	997	1	4	0	144	23	0	0	100
fixed	5	2	12	874906	4	3	3	1	0	986	1	4	0	152	24	0	0	100
fixed	5	3	1	876466	4	1	1	1	0	967	1	4	0	136	25	0	0	100
fixed	5	3	2	877864	1	2	2	1	0	1020	1	4	0	144	26	0	0	100
fixed	5	3	3	879288	6	4	4	1	0	1048	1	4	0	160	27	0	0	100
fixed	5	3	4	881087	2	1	1	1	0	1292	1	4	0	136	28	0	0	100
fixed	5	3	5	883353	5	3	3	2	0	1220	2	4	0	152	29	0	0	100
fixed	5	3	6	885244	6	4	4	1	0	700	1	4	0	160	30	0	0	100
fixed	5	3	7	886300	3	1	1	1	0	1743	1	4	0	136	31	0	0	100
fixed	5	3	8	888572	2	3	3	1	0	823	1	4	0	152	32	0	0	100
fixed	5	3	9	889972	3	2	2	1	0	891	1	4	0	144	33	0	0	100
fixed	5	3	10	891425	1	4	4	1	0	830	1	4	0	160	34	0	0	100
fixed	5	3	11	893115	5	2	2	1	0	1254	1	4	0	144	35	0	0	100
fixed	5	3	12	894769	4	3	3	1	0	1064	1	4	0	152	36	0	0	100
fixed	5	4	1	896682	4	1	1	1	0	847	1	4	0	136	37	0	0	100
fixed	5	4	2	897851	1	2	2	1	0	1213	1	4	0	144	38	0	0	100
fixed	5	4	3	899938	6	4	4	1	0	1045	1	4	0	160	39	0	0	100
fixed	5	4	4	901706	2	1	1	1	0	1339	1	4	0	136	40	0	0	100
fixed	5	4	5	903394	5	3	3	1	0	1043	1	4	0	152	41	0	0	100
fixed	5	4	6	905143	6	4	4	1	0	1193	1	4	0	160	42	0	0	100
fixed	5	4	7	907176	3	1	1	1	0	1163	1	4	0	136	43	0	0	100
fixed	5	4	8	908758	2	3	3	1	0	1120	1	4	0	152	44	0	0	100
fixed	5	4	9	910838	3	2	2	1	0	1224	1	4	0	144	45	0	0	100
fixed	5	4	10	912442	1	4	4	1	0	1020	1	4	0	160	46	0	0	100
fixed	5	4	11	914234	5	2	2	1	0	1768	1	4	0	144	47	0	0	100
fixed	5	4	12	916938	4	3	3	1	0	1309	1	4	0	152	48	0	0	100
fixed	5	5	1	919037	4	1	1	1	0	964	1	4	0	136	49	0	0	100
fixed	5	5	2	920979	1	2	2	1	0	1674	1	4	0	144	50	0	0	100
fixed	5	5	3	923205	6	4	4	1	0	828	1	4	0	160	51	0	0	100
fixed	5	5	4	924616	2	1	1	1	0	952	1	4	0	136	52	0	0	100
fixed	5	5	5	926398	5	3	3	1	0	893	1	4	0	152	53	0	0	100
fixed	5	5	6	928293	6	4	4	1	0	1132	1	4	0	160	54	0	0	100
fixed	5	5	7	929713	3	1	1	1	0	1440	1	4	0	136	55	0	0	100
fixed	5	5	8	932132	2	3	3	1	0	1161	1	4	0	152	56	0	0	100
fixed	5	5	9	934199	3	2	2	1	0	826	1	4	0	144	57	0	0	100
fixed	5	5	10	935711	1	4	4	1	0	674	1	4	0	160	58	0	0	100
fixed	5	5	11	937367	5	2	2	1	0	1100	1	4	0	144	59	0	0	100
fixed	5	5	12	939333	4	3	3	1	0	913	1	4	0	152	60	0	0	100
fixed	5	6	1	941375	4	1	1	1	0	778	1	4	0	136	61	0	0	100
fixed	5	6	2	943160	1	2	2	1	0	870	1	4	0	144	62	0	0	100
fixed	5	6	3	944437	6	4	4	2	0	1056	2	4	0	160	63	0	0	100
fixed	5	6	4	945794	2	1	1	1	0	1031	1	4	0	136	64	0	0	100
fixed	5	6	5	947138	5	3	3	1	0	1014	1	4	0	152	65	0	0	100
fixed	5	6	6	948947	6	4	4	1	0	889	1	4	0	160	66	0	0	100
fixed	5	6	7	950203	3	1	1	1	0	1220	1	4	0	136	67	0	0	100
fixed	5	6	8	952333	2	3	3	1	0	906	1	4	0	152	68	0	0	100
fixed	5	6	9	953872	3	2	2	1	0	801	1	4	0	144	69	0	0	100
fixed	5	6	10	955689	1	4	4	1	0	892	1	4	0	160	70	0	0	100
fixed	5	6	11	957236	5	2	2	1	0	1066	1	4	0	144	71	0	0	100
fixed	5	6	12	958618	4	3	3	1	0	2224	1	4	0	152	72	0	0	100
fixed	5	7	1	961591	4	1	1	1	0	890	1	4	0	136	73	0	0	100
fixed	5	7	2	963204	1	2	2	1	0	998	1	4	0	144	74	0	0	100
fixed	5	7	3	964795	6	4	4	1	0	787	1	4	0	160	75	0	0	100
fixed	5	7	4	966129	2	1	1	1	0	1098	1	4	0	136	76	0	0	100
fixed	5	7	5	967675	5	3	3	1	0	952	1	4	0	152	77	0	0	100
fixed	5	7	6	969076	6	4	4	1	0	765	1	4	0	160	78	0	0	100
fixed	5	7	7	970298	3	1	1	1	0	1089	1	4	0	136	79	0	0	100
fixed	5	7	8	972137	2	3	3	1	0	875	1	4	0	152	80	0	0	100
fixed	5	7	9	973727	3	2	2	1	0	792	1	4	0	144	81	0	0	100
fixed	5	7	10	975224	1	4	4	1	0	784	1	4	0	160	82	0	0	100
fixed	5	7	11	976463	5	2	2	1	0	908	1	4	0	144	83	0	0	100
fixed	5	7	12	977675	4	3	3	1	0	993	1	4	0	152	84	0	0	100
fixed	5	8	1	979619	4	1	1	1	0	758	1	4	0	136	85	0	0	100
fixed	5	8	2	980720	1	2	2	1	0	983	1	4	0	144	86	0	0	100
fixed	5	8	3	982741	6	4	4	1	0	1058	1	4	0	160	87	0	0	100
fixed	5	8	4	984300	2	1	1	1	0	1248	1	4	0	136	88	0	0	100
fixed	5	8	5	986472	5	3	3	1	0	1004	1	4	0	152	89	0	0	100
fixed	5	8	6	988077	6	4	4	1	0	1152	1	4	0	160	90	0	0	100
fixed	5	8	7	989777	3	1	1	1	0	824	1	4	0	136	91	0	0	100
fixed	5	8	8	991562	2	3	3	1	0	980	1	4	0	152	92	0	0	100
fixed	5	8	9	993466	3	2	2	1	0	1492	1	4	0	144	93	0	0	100
fixed	5	8	10	995870	1	4	4	1	0	838	1	4	0	160	94	0	0	100
fixed	5	8	11	997064	5	2	2	1	0	1827	1	4	0	144	95	0	0	100
fixed	5	8	12	999342	4	3	3	1	0	1011	1	4	0	152	96	0	0	100
fixed	5	9	1	1001405	4	1	1	1	0	1963	1	4	0	136	97	0	0	100
fixed	5	9	2	1004241	1	2	2	1	0	1036	1	4	0	144	98	0	0	100
fixed	5	9	3	1005641	6	4	4	1	0	872	1	4	0	160	99	0	0	100
fixed	5	9	4	1007133	2	1	1	1	0	793	1	4	0	136	100	0	0	100
fixed	5	9	5	1008465	5	3	3	1	0	929	1	4	0	152	101	0	0	100
fixed	5	9	6	1009973	6	4	4	1	0	1033	1	4	0	160	102	0	0	100
fixed	5	9	7	1011597	3	1	1	1	0	1100	1	4	0	136	103	0	0	100
fixed	5	9	8	1013090	2	3	3	1	0	1069	1	4	0	152	104	0	0	100
fixed	5	9	9	1014960	3	2	2	1	0	894	1	4	0	144	105	0	0	100
fixed	5	9	10	1016626	1	4	4	1	0	775	1	4	0	160	106	0	0	100
fixed	5	9	11	1018228	5	2	2	1	0	1363	1	4	0	144	107	0	0	100
fixed	5	9	12	1020597	4	3	3	1	0	1239	1	4	0	152	108	0	0	100
fixed	5	10	1	1022457	4	1	1	1	0	992	1	4	0	136	109	0	0	100
fixed	5	10	2	1024439	1	2	2	1	0	932	1	4	0	144	110	0	0	100
fixed	5	10	3	1025722	6	4	4	1	0	950	1	4	0	160	111	0	0	100
fixed	5	10	4	1027222	2	1	1	1	0	1862	1	4	0	136	112	0	0	100
fixed	5	10	5	1029594	5	3	3	1	0	1338	1	4	0	152	113	0	0	100
fixed	5	10	6	1031434	6	4	4	1	0	804	1	4	0	160	114	0	0	100
fixed	5	10	7	1032653	3	1	1	1	0	1848	1	4	0	136	115	0	0	100
fixed	5	10	8	1034879	2	3	3	1	0	1234	1	4	0	152	116	0	0	100
fixed	5	10	9	1036933	3	2	2	2	0	1435	2	4	0	144	117	0	0	100
fixed	5	10	10	1039174	1	4	4	1	0	884	1	4	0	160	118	0	0	100
fixed	5	10	11	1040818	5	2	2	1	0	1070	1	4	0	144	119	0	0	100
fixed	5	10	12	1042805	4	3	3	1	0	1554	1	4	0	152	120	0	0	100
random	6	1	1	1132608	6	1	1	1	0	934	1	4	0	168	1	0	0	100
random	6	1	2	1134486	4	4	4	1	0	815	1	4	0	192	2	0	0	100
random	6	1	3	1136223	2	2	2	1	0	725	1	4	0	176	3	0	0	100
random	6	1	4	1137927	3	3	3	1	0	621	1	4	0	184	4	0	0	100
random	6	1	5	1138889	5	2	2	1	0	853	1	4	0	176	5	0	0	100
random	6	1	6	1140180	1	4	4	1	0	662	1	4	0	192	6	0	0	100
random	6	1	7	1141190	6	1	1	1	0	891	1	4	0	168	7	0	0	100
random	6	1	8	1142896	2	3	3	1	0	939	1	4	0	184	8	0	0	100
random	6	1	9	1144255	4	2	2	1	0	753	1	4	0	176	9	0	0	100
random	6	1	10	1145703	1	1	1	1	0	740	1	4	0	168	10	0	0	100
random	6	1	11	1147383	5	4	4	1	0	805	1	4	0	192	11	0	0	100
random	6	1	12	1148653	3	3	3	1	0	1023	1	4	0	184	12	0	0	100
random	6	1	13	1150438	5	2	2	1	0	771	1	4	0	176	13	0	0	100
random	6	1	14	1151508	1	4	4	1	0	758	1	4	0	192	14	0	0	100
random	6	1	15	1153002	3	1	1	1	0	767	1	4	0	168	15	0	0	100
random	6	1	16	1154127	4	3	3	1	0	911	1	4	0	184	16	0	0	100
random	6	1	17	1155430	6	4	4	1	0	792	1	4	0	192	17	0	0	100
random	6	1	18	1156764	2	1	1	1	0	792	1	4	0	168	18	0	0	100
random	6	1	19	1158020	5	3	3	1	0	858	1	4	0	184	19	0	0	100
random	6	1	20	1159561	2	2	2	1	0	945	1	4	0	176	20	0	0	100
random	6	1	21	1161381	3	3	3	1	0	1212	1	4	0	184	21	0	0	100
random	6	1	22	1163586	6	1	1	1	0	742	1	4	0	168	22	0	0	100
random	6	1	23	1164790	4	2	2	1	0	1171	1	4	0	176	23	0	0	100
random	6	1	24	1166763	1	4	4	1	0	688	1	4	0	192	24	0	0	100
random	6	1	25	1168465	4	3	3	1	0	1224	1	4	0	184	25	0	0	100
random	6	1	26	1170532	2	1	1	1	0	945	1	4	0	168	26	0	0	100
random	6	1	27	1171977	5	2	2	1	0	939	1	4	0	176	27	0	0	100
random	6	1	28	1173811	6	4	4	1	0	653	1	4	0	192	28	0	0	100
random	6	1	29	1175080	1	3	3	1	0	951	1	4	0	184	29	0	0	100
random	6	1	30	1176405	5	2	2	1	0	912	1	4	0	176	30	0	0	100
random	6	1	31	1178003	2	1	1	1	0	628	1	4	0	168	31	0	0	100
random	6	1	32	1179230	3	3	3	1	0	1088	1	4	0	184	32	0	0	100
random	6	1	33	1181213	6	4	4	1	0	900	1	4	0	192	33	0	0	100
random	6	1	34	1182556	4	2	2	1	0	1123	1	4	0	176	34	0	0	100
random	6	1	35	1184196	3	4	4	1	0	934	1	4	0	192	35	0	0	100
random	6	1	36	1185952	1	1	1	1	0	763	1	4	0	168	36	0	0	100
random	6	1	37	1187980	3	4	4	1	0	1277	1	4	0	192	37	0	0	100
random	6	1	38	1189888	5	3	3	1	0	1020	1	4	0	184	38	0	0	100
random	6	1	39	1191208	6	1	1	1	0	837	1	4	0	168	39	0	0	100
random	6	1	40	1192889	1	2	2	1	0	862	1	4	0	176	40	0	0	100
random	6	1	41	1194357	2	3	3	1	0	832	1	4	0	184	41	0	0	100
random	6	1	42	1195509	4	4	4	1	0	959	1	4	0	192	42	0	0	100
random	6	1	43	1196956	1	2	2	1	0	833	1	4	0	176	43	0	0	100
random	6	1	44	1198767	6	3	3	2	0	1333	2	4	0	184	44	0	0	100
random	6	1	45	1200429	3	1	1	1	0	934	1	4	0	168	45	0	0	100
random	6	1	46	1202140	4	4	4	1	0	822	1	4	0	192	46	0	0	100
random	6	1	47	1203279	2	2	2	1	0	1094	1	4	0	176	47	0	0	100
random	6	1	48	1205021	5	1	1	1	0	843	1	4	0	168	48	0	0	100
random	6	1	49	1206592	2	3	3	1	0	1473	1	4	0	184	49	0	0	100
random	6	1	50	1208615	3	1	1	1	0	707	1	4	0	168	50	0	0	100
random	6	1	51	1209912	1	4	4	1	0	685	1	4	0	192	51	0	0	100
random	6	1	52	1210992	5	3	3	1	0	871	1	4	0	184	52	0	0	100
random	6	1	53	1212488	3	2	2	1	0	671	1	4	0	176	53	0	0	100
random	6	1	54	1213510	6	4	4	1	0	852	1	4	0	192	54	0	0	100
random	6	1	55	1214681	4	2	2	1	0	1146	1	4	0	176	55	0	0	100
random	6	1	56	1216252	1	1	1	1	0	920	1	4	0	168	56	0	0	100
random	6	1	57	1218080	5	4	4	1	0	915	1	4	0	192	57	0	0	100
random	6	1	58	1219394	2	1	0	1	2	0	3	4	0	168	57	0	1	98
random	6	1	59	1222758	6	2	2	2	0	1140	2	4	0	176	58	0	1	98
random	6	1	60	1224286	4	3	3	1	0	1339	1	4	0	184	59	0	1	98
random	6	1	61	1226491	1	2	2	1	0	1078	1	4	0	176	60	0	1	98
random	6	1	62	1228478	6	4	4	1	0	882	1	4	0	192	61	0	1	98
random	6	1	63	1229855	4	1	1	1	0	816	1	4	0	168	62	0	1	98
random	6	1	64	1231280	2	2	2	1	0	940	1	4	0	176	63	0	1	98
random	6	1	65	1232635	4	3	3	1	0	1154	1	4	0	184	64	0	1	98
random	6	1	66	1234349	3	1	1	1	0	865	1	4	0	168	65	0	1	98
random	6	1	67	1235566	1	3	3	1	0	862	1	4	0	184	66	0	1	99
random	6	1	68	1237179	5	4	4	1	0	706	1	4	0	192	67	0	1	99
random	6	1	69	1238542	2	2	2	1	0	1224	1	4	0	176	68	0	1	99
random	6	1	70	1240501	3	1	1	1	0	845	1	4	0	168	69	0	1	99
random	6	1	71	1242376	5	4	4	1	0	798	1	4	0	192	70	0	1	99
random	6	1	72	1243486	6	3	3	1	0	1102	1	4	0	184	71	0	1	99
random	6	1	73	1245337	2	1	1	1	0	728	1	4	0	168	72	0	1	99
random	6	1	74	1246450	5	3	3	1	0	1169	1	4	0	184	73	0	1	99
random	6	1	75	1247928	1	4	4	1	0	778	1	4	0	192	74	0	1	99
random	6	1	76	1249597	6	2	2	1	0	1451	1	4	0	176	75	0	1	99
random	6	1	77	1251907	2	1	1	1	0	850	1	4	0	168	76	0	1	99
random	6	1	78	1253255	4	4	4	1	0	896	1	4	0	192	77	0	1	99
random	6	1	79	1255057	3	2	2	1	0	885	1	4	0	176	78	0	1	99
random	6	1	80	1256855	4	3	3	1	0	768	1	4	0	184	79	0	1	99
random	6	1	81	1258275	1	4	4	1	0	772	1	4	0	192	80	0	1	99
random	6	1	82	1259462	5	1	1	1	0	970	1	4	0	168	81	0	1	99
random	6	1	83	1261399	3	2	2	1	0	944	1	4	0	176	82	0	1	99
random	6	1	84	1263064	6	3	3	1	0	1177	1	4	0	184	83	0	1	99
random	6	1	85	1265336	3	2	2	1	0	1001	1	4	0	176	84	0	1	99
random	6	1	86	1266683	1	3	3	1	0	1184	1	4	0	184	85	0	1	99
random	6	1	87	1268838	4	4	4	1	0	877	1	4	0	192	86	0	1	99
random	6	1	88	1270539	2	1	1	1	0	813	1	4	0	168	87	0	1	99
random	6	1	89	1271816	6	4	4	1	0	894	1	4	0	192	88	0	1	99
random	6	1	90	1273169	3	3	3	1	0	1117	1	4	0	184	89	0	1	99
random	6	1	91	1274704	5	4	4	1	0	1052	1	4	0	192	90	0	1	99
random	6	1	92	1276745	1	2	2	1	0	1565	1	4	0	176	91	0	1	99
random	6	1	93	1278956	5	1	1	1	0	816	1	4	0	168	92	0	1	99
random	6	1	94	1280198	4	3	3	1	0	1284	1	4	0	184	93	0	1	99
random	6	1	95	1282463	6	1	1	1	0	915	1	4	0	168	94	0	1	99
random	6	1	96	1284032	2	2	2	1	0	1081	1	4	0	176	95	0	1	99
random	6	1	97	1286354	4	3	3	1	0	1086	1	4	0	184	96	0	1	99
random	6	1	98	1288032	3	2	2	1	0	1288	1	4	0	176	97	0	1	99
random	6	1	99	1289865	6	3	3	1	0	1146	1	4	0	184	98	0	1	99
random	6	1	100	1291914	1	4	4	1	0	940	1	4	0	192	99	0	1	99
random	6	1	101	1293679	4	1	1	1	0	1257	1	4	0	168	100	0	1	99
random	6	1	102	1295607	5	2	2	1	0	1343	1	4	0	176	101	0	1	99
random	6	1	103	1297559	2	4	4	1	0	860	1	4	0	192	102	0	1	99
random	6	1	104	1299353	3	1	1	1	0	1040	1	4	0	168	103	0	1	99
random	6	1	105	1301279	1	3	3	1	0	1087	1	4	0	184	104	0	1	99
random	6	1	106	1303245	2	2	2	1	0	1083	1	4	0	176	105	0	1	99
random	6	1	107	1304653	5	4	4	1	0	816	1	4	0	192	106	0	1	99
random	6	1	108	1305937	6	1	1	1	0	889	1	4	0	168	107	0	1	99
random	6	1	109	1307657	5	4	4	1	0	1256	1	4	0	192	108	0	1	99
random	6	1	110	1309244	6	3	3	1	0	1013	1	4	0	184	109	0	1	99
random	6	1	111	1310876	2	2	2	1	0	792	1	4	0	176	110	0	1	99
random	6	1	112	1312614	3	1	1	1	0	855	1	4	0	168	111	0	1	99
random	6	1	113	1314384	1	2	2	1	0	1188	1	4	0	176	112	0	1	99
random	6	1	114	1316553	2	3	0	0	2	0	3	4	0	184	112	0	2	98
random	6	1	115	1319911	3	1	1	1	0	786	1	4	0	168	113	0	2	98
random	6	1	116	1321045	4	4	4	1	0	1017	1	4	0	192	114	0	2	98
random	6	1	117	1322357	6	1	1	1	0	881	1	4	0	168	115	0	2	98
random	6	1	118	1323680	5	3	3	1	0	914	1	4	0	184	116	0	2	98
random	6	1	119	1325207	1	4	4	1	0	1049	1	4	0	192	117	0	2	98
random	6	1	120	1326592	4	2	2	1	0	1046	1	4	0	176	118	0	2	98
fixed	7	1	1	1328472	4	1	1	1	0	854	1	4	0	200	1	0	0	100
fixed	7	1	2	1330047	1	2	2	1	0	1020	1	4	0	208	2	0	0	100
fixed	7	1	3	1331812	6	4	4	1	0	850	1	4	0	224	3	0	0	100
fixed	7	1	4	1333300	2	1	1	1	0	1178	1	4	0	200	4	0	0	100
fixed	7	1	5	1335030	5	3	3	1	0	1233	1	4	0	216	5	0	0	100
fixed	7	1	6	1336802	6	4	4	1	0	766	1	4	0	224	6	0	0	100
fixed	7	1	7	1338220	3	1	1	1	0	1114	1	4	0	200	7	0	0	100
fixed	7	1	8	1340025	2	3	3	1	0	1110	1	4	0	216	8	0	0	100
fixed	7	1	9	1341643	3	2	2	1	0	817	1	4	0	208	9	0	0	100
fixed	7	1	10	1342830	1	4	4	1	0	1223	1	4	0	224	10	0	0	100
fixed	7	1	11	1344440	5	2	2	1	0	1931	1	4	0	208	11	0	0	100
fixed	7	1	12	1347073	4	3	3	1	0	1027	1	4	0	216	12	0	0	100
fixed	7	2	1	1348874	4	1	1	1	0	782	1	4	0	200	1	0	0	8
fixed	7	2	2	1350088	1	2	2	1	0	1116	1	4	0	208	2	0	0	14
fixed	7	2	3	1352098	6	4	4	1	0	926	1	4	0	224	3	0	0	20
fixed	7	2	4	1354034	2	1	1	1	0	1076	1	4	0	200	4	0	0	25
fixed	7	2	5	1355584	5	3	3	1	0	1283	1	4	0	216	5	0	0	29
fixed	7	2	6	1357701	6	4	4	1	0	849	1	4	0	224	6	0	0	33
fixed	7	2	7	1359089	3	1	1	1	0	1774	1	4	0	200	7	0	0	37
fixed	7	2	8	1361583	2	3	3	1	0	1381	1	4	0	216	8	0	0	40
fixed	7	2	9	1363644	3	2	2	1	0	901	1	4	0	208	9	0	0	43
fixed	7	2	10	1365162	1	4	4	1	0	812	1	4	0	224	10	0	0	45
fixed	7	2	11	1366911	5	2	2	1	0	931	1	4	0	208	11	0	0	48
fixed	7	2	12	1368406	4	3	3	1	0	1307	1	4	0	216	12	0	0	50
fixed	7	3	1	1370895	4	1	1	1	0	890	1	4	0	200	1	0	0	4
fixed	7	3	2	1372363	1	2	2	1	0	987	1	4	0	208	2	0	0	8
fixed	7	3	3	1373738	6	4	4	1	0	841	1	4	0	224	3	0	0	11
fixed	7	3	4	1374931	2	1	1	1	0	1615	1	4	0	200	4	0	0	14
fixed	7	3	5	1377119	5	3	3	1	0	1091	1	4	0	216	5	0	0	17
fixed	7	3	6	1378838	6	4	4	1	0	994	1	4	0	224	6	0	0	20
fixed	7	3	7	1380649	3	1	1	1	0	965	1	4	0	200	7	0	0	23
fixed	7	3	8	1382160	2	3	3	1	0	1077	1	4	0	216	8	0	0	25
fixed	7	3	9	1383644	3	2	2	1	0	1214	1	4	0	208	9	0	0	27
fixed	7	3	10	1385681	1	4	4	1	0	767	1	4	0	224	10	0	0	29
fixed	7	3	11	1387091	5	2	2	1	0	1148	1	4	0	208	11	0	0	31
fixed	7	3	12	1388984	4	3	3	1	0	844	1	4	0	216	12	0	0	33
fixed	7	4	1	1390710	4	1	1	1	0	882	1	4	0	200	1	0	0	3
fixed	7	4	2	1392083	1	2	2	1	0	1145	1	4	0	208	2	0	0	5
fixed	7	4	3	1393801	6	4	4	1	0	1096	1	4	0	224	3	0	0	8
fixed	7	4	4	1395736	2	1	1	1	0	1550	1	4	0	200	4	0	0	10
fixed	7	4	5	1397832	5	3	3	1	0	909	1	4	0	216	5	0	0	12
fixed	7	4	6	1399418	6	4	4	1	0	1058	1	4	0	224	6	0	0	14
fixed	7	4	7	1401253	3	1	1	1	0	1492	1	4	0	200	7	0	0	16
fixed	7	4	8	1403745	2	3	3	1	0	1115	1	4	0	216	8	0	0	18
fixed	7	4	9	1405167	3	2	2	1	0	1366	1	4	0	208	9	0	0	20
fixed	7	4	10	1407471	1	4	4	1	0	917	1	4	0	224	10	0	0	22
fixed	7	4	11	1408981	5	2	2	1	0	1141	1	4	0	208	11	0	0	23
fixed	7	4	12	1411142	4	3	3	1	0	1065	1	4	0	216	12	0	0	25
fixed	7	5	1	1412764	4	1	1	1	0	1036	1	4	0	200	1	0	0	2
fixed	7	5	2	1414562	1	2	2	1	0	1681	1	4	0	208	2	0	0	4
fixed	7	5	3	1416630	6	4	4	1	0	1081	1	4	0	224	3	0	0	6
fixed	7	5	4	1418709	2	1	1	1	0	953	1	4	0	200	4	0	0	8
fixed	7	5	5	1420171	5	3	3	1	0	899	1	4	0	216	5	0	0	9
fixed	7	5	6	1421663	6	4	4	1	0	916	1	4	0	224	6	0	0	11
fixed	7	5	7	1423441	3	1	1	1	0	1424	1	4	0	200	7	0	0	13
fixed	7	5	8	1425718	2	3	3	1	0	1736	1	4	0	216	8	0	0	14
fixed	7	5	9	1428289	3	2	2	1	0	939	1	4	0	208	9	0	0	16
fixed	7	5	10	1430133	1	4	4	1	0	1277	1	4	0	224	10	0	0	17
fixed	7	5	11	1432329	5	2	2	1	0	1312	1	4	0	208	11	0	0	19
fixed	7	5	12	1434522	4	3	3	1	0	1011	1	4	0	216	12	0	0	20
fixed	7	6	1	1436623	4	1	0	0	2	0	3	4	0	200	0	0	1	0
fixed	7	6	2	1439671	1	2	2	1	0	985	1	4	0	208	1	0	1	2
fixed	7	6	3	1440997	6	4	4	1	0	769	1	4	0	224	2	0	1	3
fixed	7	6	4	1442376	2	1	1	1	0	870	1	4	0	200	3	0	1	5
fixed	7	6	5	1443905	5	3	3	2	0	1533	2	4	0	216	4	0	1	6
fixed	7	6	6	1445787	6	4	4	1	0	822	1	4	0	224	5	0	1	8
fixed	7	6	7	1447292	3	1	1	1	0	782	1	4	0	200	6	0	1	9
fixed	7	6	8	1448951	2	3	3	1	0	1064	1	4	0	216	7	0	1	10
fixed	7	6	9	1450327	3	2	2	1	0	822	1	4	0	208	8	0	1	12
fixed	7	6	10	1452045	1	4	4	1	0	773	1	4	0	224	9	0	1	13
fixed	7	6	11	1453493	5	2	2	1	0	960	1	4	0	208	10	0	1	14
fixed	7	6	12	1455268	4	3	3	2	0	1396	2	4	0	216	11	0	1	15
fixed	7	7	1	1457658	4	1	1	1	0	1519	1	4	0	200	1	0	0	1
fixed	7	7	2	1460163	1	2	2	1	0	869	1	4	0	208	2	0	0	3
fixed	7	7	3	1462058	6	4	4	1	0	749	1	4	0	224	3	0	0	4
fixed	7	7	4	1463110	2	1	1	1	0	936	1	4	0	200	4	0	0	5
fixed	7	7	5	1464811	5	3	3	1	0	1080	1	4	0	216	5	0	0	6
fixed	7	7	6	1466861	6	4	4	1	0	729	1	4	0	224	6	0	0	8
fixed	7	7	7	1468099	3	1	1	1	0	789	1	4	0	200	7	0	0	9
fixed	7	7	8	1469660	2	3	3	1	0	859	1	4	0	216	8	0	0	10
fixed	7	7	9	1471278	3	2	2	1	0	950	1	4	0	208	9	0	0	11
fixed	7	7	10	1473201	1	4	4	1	0	901	1	4	0	224	10	0	0	12
fixed	7	7	11	1475021	5	2	2	1	0	1008	1	4	0	208	11	0	0	13
fixed	7	7	12	1476363	4	3	3	1	0	1591	1	4	0	216	12	0	0	14
fixed	7	8	1	1478893	4	1	1	1	0	708	1	4	0	200	1	0	0	1
fixed	7	8	2	1480486	1	2	2	1	0	1056	1	4	0	208	2	0	0	2
fixed	7	8	3	1482537	6	4	4	1	0	697	1	4	0	224	3	0	0	3
fixed	7	8	4	1484019	2	1	1	1	0	1075	1	4	0	200	4	0	0	5
fixed	7	8	5	1485476	5	3	3	1	0	933	1	4	0	216	5	0	0	6
fixed	7	8	6	1487267	6	4	4	1	0	865	1	4	0	224	6	0	0	7
fixed	7	8	7	1488568	3	1	1	1	0	1034	1	4	0	200	7	0	0	8
fixed	7	8	8	1490572	2	3	3	1	0	1277	1	4	0	216	8	0	0	9
fixed	7	8	9	1492683	3	2	2	1	0	740	1	4	0	208	9	0	0	10
fixed	7	8	10	1494206	1	4	4	1	0	907	1	4	0	224	10	0	0	11
fixed	7	8	11	1495612	5	2	2	1	0	1232	1	4	0	208	11	0	0	12
fixed	7	8	12	1497725	4	3	3	1	0	1526	1	4	0	216	12	0	0	13
fixed	7	9	1	1500496	4	1	1	1	0	817	1	4	0	200	1	0	0	1
fixed	7	9	2	1502293	1	2	2	1	0	925	1	4	0	208	2	0	0	2
fixed	7	9	3	1503658	6	4	4	1	0	1427	1	4	0	224	3	0	0	3
fixed	7	9	4	1506009	2	1	1	1	0	1335	1	4	0	200	4	0	0	4
fixed	7	9	5	1508372	5	3	3	1	0	1099	1	4	0	216	5	0	0	5
fixed	7	9	6	1510418	6	4	4	1	0	1284	1	4	0	224	6	0	0	6
fixed	7	9	7	1512067	3	1	1	1	0	999	1	4	0	200	7	0	0	7
fixed	7	9	8	1513347	2	3	3	1	0	1160	1	4	0	216	8	0	0	8
fixed	7	9	9	1514974	3	2	2	1	0	812	1	4	0	208	9	0	0	9
fixed	7	9	10	1516509	1	4	4	1	0	787	1	4	0	224	10	0	0	9
fixed	7	9	11	1518249	5	2	2	1	0	1273	1	4	0	208	11	0	0	10
fixed	7	9	12	1519979	4	3	3	1	0	863	1	4	0	216	12	0	0	11
fixed	7	10	1	1521698	4	1	1	1	0	1039	1	4	0	200	1	0	0	1
fixed	7	10	2	1523605	1	2	2	1	0	1398	1	4	0	208	2	0	0	2
fixed	7	10	3	1525526	6	4	4	1	0	932	1	4	0	224	3	0	0	3
fixed	7	10	4	1526883	2	1	1	1	0	1035	1	4	0	200	4	0	0	4
fixed	7	10	5	1528434	5	3	3	1	0	1025	1	4	0	216	5	0	0	4
fixed	7	10	6	1530424	6	4	4	1	0	1077	1	4	0	224	6	0	0	5
fixed	7	10	7	1531817	3	1	1	1	0	778	1	4	0	200	7	0	0	6
fixed	7	10	8	1533468	2	3	3	1	0	1060	1	4	0	216	8	0	0	7
fixed	7	10	9	1535087	3	2	2	1	0	848	1	4	0	208	9	0	0	8
fixed	7	10	10	1536703	1	4	4	1	0	899	1	4	0	224	10	0	0	8
fixed	7	10	11	1538313	5	2	2	1	0	1087	1	4	0	208	11	0	0	9
fixed	7	10	12	1540135	4	3	3	1	0	906	1	4	0	216	12	0	0	10
