type	block	sequ.	trial	time	Pos.	Color	Button	NumRsp	Resp_1	RT_1	R_Code	Resp_2	RT_2	Trigg.	n_hit	n_inc	n_miss	score_%

random	1	1	1	2386	6	1	0	0	2	0	3	4	0	8	0	0	1	0
random	1	1	2	5644	4	4	4	1	0	1097	1	4	0	32	1	0	1	50
random	1	1	3	7561	2	2	0	1	2	0	3	4	0	16	1	0	2	33
random	1	1	4	10903	3	3	3	1	0	1331	1	4	0	24	2	0	2	50
random	1	1	5	13168	5	2	2	1	0	1147	1	4	0	16	3	0	2	60
random	1	1	6	15240	1	4	4	1	0	1523	1	4	0	32	4	0	2	67
random	1	1	7	17406	6	1	1	1	0	624	1	4	0	8	5	0	2	71
random	1	1	8	18313	2	3	3	1	0	1337	1	4	0	24	6	0	2	75
random	1	1	9	20560	4	2	2	1	0	1314	1	4	0	16	7	0	2	78
random	1	1	10	22167	1	1	1	1	0	1390	1	4	0	8	8	0	2	80
random	1	1	11	24024	5	4	4	1	0	807	1	4	0	32	9	0	2	82
random	1	1	12	25833	3	3	3	1	0	834	1	4	0	24	10	0	2	83
random	1	1	13	27349	5	2	2	1	0	778	1	4	0	16	11	0	2	85
random	1	1	14	29098	1	4	4	1	0	1024	1	4	0	32	12	0	2	86
random	1	1	15	30969	3	1	1	1	0	985	1	4	0	8	13	0	2	87
random	1	1	16	32907	4	3	3	1	0	1023	1	4	0	24	14	0	2	88
random	1	1	17	34509	6	4	4	1	0	1075	1	4	0	32	15	0	2	88
random	1	1	18	35896	2	1	1	1	0	944	1	4	0	8	16	0	2	89
random	1	1	19	37319	5	3	3	1	0	1076	1	4	0	24	17	0	2	89
random	1	1	20	39305	2	2	2	1	0	784	1	4	0	16	18	0	2	90
random	1	1	21	40516	3	3	3	1	0	1020	1	4	0	24	19	0	2	90
random	1	1	22	42385	6	1	1	1	0	1173	1	4	0	8	20	0	2	91
random	1	1	23	43963	4	2	2	1	0	1147	1	4	0	16	21	0	2	91
random	1	1	24	45813	1	4	4	1	0	740	1	4	0	32	22	0	2	92
random	1	1	25	47416	4	3	3	1	0	1336	1	4	0	24	23	0	2	92
random	1	1	26	49702	2	1	1	1	0	904	1	4	0	8	24	0	2	92
random	1	1	27	51320	5	2	2	1	0	835	1	4	0	16	25	0	2	93
random	1	1	28	53129	6	4	4	1	0	934	1	4	0	32	26	0	2	93
random	1	1	29	55069	1	3	3	1	0	980	1	4	0	24	27	0	2	93
random	1	1	30	56737	5	2	2	1	0	901	1	4	0	16	28	0	2	93
random	1	1	31	58360	2	1	1	1	0	833	1	4	0	8	29	0	2	94
random	1	1	32	60090	3	3	3	1	0	1000	1	4	0	24	30	0	2	94
random	1	1	33	61399	6	4	4	1	0	984	1	4	0	32	31	0	2	94
random	1	1	34	63014	4	2	2	1	0	1068	1	4	0	16	32	0	2	94
random	1	1	35	65011	3	4	4	1	0	967	1	4	0	32	33	0	2	94
random	1	1	36	66778	1	1	1	1	0	756	1	4	0	8	34	0	2	94
random	1	1	37	68785	3	4	4	1	0	823	1	4	0	32	35	0	2	95
random	1	1	38	70103	5	3	3	1	0	1063	1	4	0	24	36	0	2	95
random	1	1	39	71589	6	1	1	1	0	992	1	4	0	8	37	0	2	95
random	1	1	40	73308	1	2	2	1	0	1176	1	4	0	16	38	0	2	95
random	1	1	41	74839	2	3	3	1	0	823	1	4	0	24	39	0	2	95
random	1	1	42	75978	4	4	4	1	0	911	1	4	0	32	40	0	2	95
random	1	1	43	77522	1	2	2	1	0	1245	1	4	0	16	41	0	2	95
random	1	1	44	79405	6	3	3	1	0	918	1	4	0	24	42	0	2	95
random	1	1	45	81093	3	1	1	1	0	878	1	4	0	8	43	0	2	96
random	1	1	46	82714	4	4	4	1	0	914	1	4	0	32	44	0	2	96
random	1	1	47	84617	2	2	2	1	0	993	1	4	0	16	45	0	2	96
random	1	1	48	86381	5	1	1	1	0	1094	1	4	0	8	46	0	2	96
random	1	1	49	88650	2	3	3	1	0	1150	1	4	0	24	47	0	2	96
random	1	1	50	90135	3	1	1	1	0	1039	1	4	0	8	48	0	2	96
random	1	1	51	91895	1	4	4	1	0	860	1	4	0	32	49	0	2	96
random	1	1	52	93600	5	3	0	1	2	0	3	4	0	24	49	0	3	94
random	1	1	53	97061	3	2	2	1	0	1186	1	4	0	16	50	0	3	94
random	1	1	54	98586	6	4	4	1	0	929	1	4	0	32	51	0	3	94
random	1	1	55	100021	4	2	2	1	0	2124	1	4	0	16	52	0	3	95
random	1	1	56	102847	1	1	1	1	0	957	1	4	0	8	53	0	3	95
random	1	1	57	104329	5	4	4	1	0	846	1	4	0	32	54	0	3	95
random	1	1	58	105975	2	1	1	1	0	1016	1	4	0	8	55	0	3	95
random	1	1	59	107574	6	2	2	1	0	1093	1	4	0	16	56	0	3	95
random	1	1	60	109342	4	3	3	1	0	626	1	4	0	24	57	0	3	95
random	1	1	61	110738	1	2	2	1	0	1502	1	4	0	16	58	0	3	95
random	1	1	62	113002	6	4	4	1	0	919	1	4	0	32	59	0	3	95
random	1	1	63	114812	4	1	1	1	0	705	1	4	0	8	60	0	3	95
random	1	1	64	115822	2	2	2	1	0	1575	1	4	0	16	61	0	3	95
random	1	1	65	117907	4	3	3	1	0	750	1	4	0	24	62	0	3	95
random	1	1	66	119039	3	1	1	1	0	966	1	4	0	8	63	0	3	95
random	1	1	67	120741	1	3	3	1	0	1119	1	4	0	24	64	0	3	96
random	1	1	68	122233	5	4	4	1	0	935	1	4	0	32	65	0	3	96
random	1	1	69	123648	2	2	2	1	0	1412	1	4	0	16	66	0	3	96
random	1	1	70	125863	3	1	1	1	0	902	1	4	0	8	67	0	3	96
random	1	1	71	127758	5	4	4	1	0	822	1	4	0	32	68	0	3	96
random	1	1	72	129385	6	3	0	1	2	0	3	4	0	24	68	0	4	94
random	1	1	73	132475	2	1	1	1	0	1013	1	4	0	8	69	0	4	95
random	1	1	74	134433	5	3	3	1	0	1283	1	4	0	24	70	0	4	95
random	1	1	75	136368	1	4	4	1	0	1073	1	4	0	32	71	0	4	95
random	1	1	76	138218	6	2	2	1	0	899	1	4	0	16	72	0	4	95
random	1	1	77	139902	2	1	1	1	0	819	1	4	0	8	73	0	4	95
random	1	1	78	141655	4	4	4	1	0	993	1	4	0	32	74	0	4	95
random	1	1	79	142947	3	2	2	1	0	1450	1	4	0	16	75	0	4	95
random	1	1	80	145156	4	3	3	1	0	1028	1	4	0	24	76	0	4	95
random	1	1	81	146563	1	4	4	1	0	1265	1	4	0	32	77	0	4	95
random	1	1	82	148351	5	1	1	1	0	877	1	4	0	8	78	0	4	95
random	1	1	83	150077	3	2	2	1	0	1156	1	4	0	16	79	0	4	95
random	1	1	84	152101	6	3	3	1	0	671	1	4	0	24	80	0	4	95
random	1	1	85	153743	3	2	2	1	0	993	1	4	0	16	81	0	4	95
random	1	1	86	155714	1	3	3	1	0	677	1	4	0	24	82	0	4	95
random	1	1	87	157120	4	4	4	1	0	906	1	4	0	32	83	0	4	95
random	1	1	88	158996	2	1	1	1	0	746	1	4	0	8	84	0	4	95
random	1	1	89	160387	6	4	4	1	0	1056	1	4	0	32	85	0	4	96
random	1	1	90	162338	3	3	3	1	0	1301	1	4	0	24	86	0	4	96
random	1	1	91	164135	5	4	4	1	0	1208	1	4	0	32	87	0	4	96
random	1	1	92	166343	1	2	2	1	0	1307	1	4	0	16	88	0	4	96
random	1	1	93	168216	5	1	1	1	0	1580	1	4	0	8	89	0	4	96
random	1	1	94	170499	4	3	3	1	0	979	1	4	0	24	90	0	4	96
random	1	1	95	172428	6	1	1	1	0	1065	1	4	0	8	91	0	4	96
random	1	1	96	174322	2	2	2	1	0	1377	1	4	0	16	92	0	4	96
random	1	1	97	176583	4	3	3	1	0	873	1	4	0	24	93	0	4	96
random	1	1	98	178034	3	2	2	1	0	852	1	4	0	16	94	0	4	96
random	1	1	99	179717	6	3	3	1	0	821	1	4	0	24	95	0	4	96
random	1	1	100	181005	1	4	4	1	0	958	1	4	0	32	96	0	4	96
random	1	1	101	182373	4	1	1	1	0	1180	1	4	0	8	97	0	4	96
random	1	1	102	184241	5	2	2	1	0	1301	1	4	0	16	98	0	4	96
random	1	1	103	186093	2	4	4	1	0	927	1	4	0	32	99	0	4	96
random	1	1	104	187761	3	1	1	1	0	888	1	4	0	8	100	0	4	96
random	1	1	105	189110	1	3	3	1	0	950	1	4	0	24	101	0	4	96
random	1	1	106	190396	2	2	2	1	0	937	1	4	0	16	102	0	4	96
random	1	1	107	192253	5	4	4	1	0	977	1	4	0	32	103	0	4	96
random	1	1	108	193920	6	1	1	1	0	723	1	4	0	8	104	0	4	96
random	1	1	109	195696	5	4	4	1	0	944	1	4	0	32	105	0	4	96
random	1	1	110	197455	6	3	3	1	0	1197	1	4	0	24	106	0	4	96
random	1	1	111	199573	2	2	2	1	0	1404	1	4	0	16	107	0	4	96
random	1	1	112	201469	3	1	1	1	0	948	1	4	0	8	108	0	4	96
random	1	1	113	202969	1	2	2	1	0	1324	1	4	0	16	109	0	4	96
random	1	1	114	204599	2	3	3	1	0	807	1	4	0	24	110	0	4	96
random	1	1	115	206280	3	1	1	1	0	928	1	4	0	8	111	0	4	97
random	1	1	116	208019	4	4	4	1	0	918	1	4	0	32	112	0	4	97
random	1	1	117	209611	6	1	1	1	0	914	1	4	0	8	113	0	4	97
random	1	1	118	210842	5	3	0	1	2	0	3	4	0	24	113	0	5	96
random	1	1	119	214219	1	4	4	1	0	1024	1	4	0	32	114	0	5	96
random	1	1	120	215984	4	2	2	1	0	1141	1	4	0	16	115	0	5	96
fixed	2	1	1	218583	4	1	1	1	0	758	1	4	0	40	1	0	0	100
fixed	2	1	2	220354	1	2	2	1	0	1091	1	4	0	48	2	0	0	100
fixed	2	1	3	222051	6	4	4	1	0	860	1	4	0	64	3	0	0	100
fixed	2	1	4	223825	2	1	1	1	0	809	1	4	0	40	4	0	0	100
fixed	2	1	5	225609	5	3	3	1	0	1501	1	4	0	56	5	0	0	100
fixed	2	1	6	227441	6	4	4	1	0	1327	1	4	0	64	6	0	0	100
fixed	2	1	7	229798	3	1	1	1	0	907	1	4	0	40	7	0	0	100
fixed	2	1	8	231730	2	3	3	1	0	1146	1	4	0	56	8	0	0	100
fixed	2	1	9	233453	3	2	2	1	0	744	1	4	0	48	9	0	0	100
fixed	2	1	10	234779	1	4	4	1	0	960	1	4	0	64	10	0	0	100
fixed	2	1	11	236713	5	2	2	1	0	1278	1	4	0	48	11	0	0	100
fixed	2	1	12	238424	4	3	3	1	0	758	1	4	0	56	12	0	0	100
fixed	2	2	1	240089	4	1	1	1	0	1007	1	4	0	40	13	0	0	100
fixed	2	2	2	242116	1	2	2	1	0	962	1	4	0	48	14	0	0	100
fixed	2	2	3	243863	6	4	4	1	0	824	1	4	0	64	15	0	0	100
fixed	2	2	4	245176	2	1	1	1	0	1072	1	4	0	40	16	0	0	100
fixed	2	2	5	247203	5	3	3	1	0	1155	1	4	0	56	17	0	0	100
fixed	2	2	6	248870	6	4	4	1	0	1604	1	4	0	64	18	0	0	100
fixed	2	2	7	251110	3	1	1	1	0	693	1	4	0	40	19	0	0	100
fixed	2	2	8	252754	2	3	3	1	0	1183	1	4	0	56	20	0	0	100
fixed	2	2	9	254392	3	2	2	1	0	826	1	4	0	48	21	0	0	100
fixed	2	2	10	255949	1	4	4	1	0	856	1	4	0	64	22	0	0	100
fixed	2	2	11	257444	5	2	2	1	0	1401	1	4	0	48	23	0	0	100
fixed	2	2	12	259320	4	3	3	1	0	873	1	4	0	56	24	0	0	100
fixed	2	3	1	260856	4	1	1	1	0	1160	1	4	0	40	25	0	0	100
fixed	2	3	2	262790	1	2	2	1	0	1198	1	4	0	48	26	0	0	100
fixed	2	3	3	264291	6	4	4	1	0	903	1	4	0	64	27	0	0	100
fixed	2	3	4	266172	2	1	1	1	0	583	1	4	0	40	28	0	0	100
fixed	2	3	5	267623	5	3	3	1	0	1145	1	4	0	56	29	0	0	100
fixed	2	3	6	269555	6	4	4	1	0	824	1	4	0	64	30	0	0	100
fixed	2	3	7	271399	3	1	1	1	0	905	1	4	0	40	31	0	0	100
fixed	2	3	8	273336	2	3	3	1	0	1119	1	4	0	56	32	0	0	100
fixed	2	3	9	274936	3	2	2	1	0	852	1	4	0	48	33	0	0	100
fixed	2	3	10	276762	1	4	4	1	0	1230	1	4	0	64	34	0	0	100
fixed	2	3	11	278484	5	2	2	1	0	1181	1	4	0	48	35	0	0	100
fixed	2	3	12	280490	4	3	3	1	0	760	1	4	0	56	36	0	0	100
fixed	2	4	1	281908	4	1	1	1	0	732	1	4	0	40	37	0	0	100
fixed	2	4	2	282975	1	2	2	1	0	1111	1	4	0	48	38	0	0	100
fixed	2	4	3	284636	6	4	4	1	0	897	1	4	0	64	39	0	0	100
fixed	2	4	4	286249	2	1	1	1	0	788	1	4	0	40	40	0	0	100
fixed	2	4	5	287506	5	3	3	1	0	1295	1	4	0	56	41	0	0	100
fixed	2	4	6	289530	6	4	4	1	0	930	1	4	0	64	42	0	0	100
fixed	2	4	7	291420	3	1	1	1	0	898	1	4	0	40	43	0	0	100
fixed	2	4	8	293278	2	3	3	1	0	1099	1	4	0	56	44	0	0	100
fixed	2	4	9	295235	3	2	2	1	0	784	1	4	0	48	45	0	0	100
fixed	2	4	10	296989	1	4	4	1	0	870	1	4	0	64	46	0	0	100
fixed	2	4	11	298684	5	2	2	1	0	1254	1	4	0	48	47	0	0	100
fixed	2	4	12	300450	4	3	3	1	0	1019	1	4	0	56	48	0	0	100
fixed	2	5	1	302274	4	1	1	1	0	838	1	4	0	40	49	0	0	100
fixed	2	5	2	303951	1	2	2	1	0	895	1	4	0	48	50	0	0	100
fixed	2	5	3	305852	6	4	4	1	0	1022	1	4	0	64	51	0	0	100
fixed	2	5	4	307546	2	1	1	1	0	743	1	4	0	40	52	0	0	100
fixed	2	5	5	308884	5	3	3	1	0	1070	1	4	0	56	53	0	0	100
fixed	2	5	6	310610	6	4	4	1	0	1020	1	4	0	64	54	0	0	100
fixed	2	5	7	312204	3	1	1	1	0	937	1	4	0	40	55	0	0	100
fixed	2	5	8	313540	2	3	3	1	0	1025	1	4	0	56	56	0	0	100
fixed	2	5	9	315538	3	2	2	1	0	884	1	4	0	48	57	0	0	100
fixed	2	5	10	317137	1	4	4	1	0	897	1	4	0	64	58	0	0	100
fixed	2	5	11	319037	5	2	2	1	0	1080	1	4	0	48	59	0	0	100
fixed	2	5	12	320792	4	3	3	1	0	782	1	4	0	56	60	0	0	100
fixed	2	6	1	322424	4	1	1	1	0	752	1	4	0	40	61	0	0	100
fixed	2	6	2	323533	1	2	2	1	0	1161	1	4	0	48	62	0	0	100
fixed	2	6	3	325369	6	4	4	1	0	852	1	4	0	64	63	0	0	100
fixed	2	6	4	327190	2	1	1	1	0	854	1	4	0	40	64	0	0	100
fixed	2	6	5	329024	5	3	3	1	0	1121	1	4	0	56	65	0	0	100
fixed	2	6	6	330858	6	4	4	1	0	811	1	4	0	64	66	0	0	100
fixed	2	6	7	332364	3	1	1	1	0	803	1	4	0	40	67	0	0	100
fixed	2	6	8	333990	2	3	3	1	0	1110	1	4	0	56	68	0	0	100
fixed	2	6	9	335468	3	2	2	1	0	832	1	4	0	48	69	0	0	100
fixed	2	6	10	337092	1	4	4	1	0	955	1	4	0	64	70	0	0	100
fixed	2	6	11	338822	5	2	2	1	0	1282	1	4	0	48	71	0	0	100
fixed	2	6	12	340614	4	3	3	1	0	910	1	4	0	56	72	0	0	100
fixed	2	7	1	342373	4	1	1	1	0	755	1	4	0	40	73	0	0	100
fixed	2	7	2	343569	1	2	2	1	0	1153	1	4	0	48	74	0	0	100
fixed	2	7	3	345177	6	4	4	1	0	916	1	4	0	64	75	0	0	100
fixed	2	7	4	346983	2	1	1	1	0	816	1	4	0	40	76	0	0	100
fixed	2	7	5	348635	5	3	3	1	0	1659	1	4	0	56	77	0	0	100
fixed	2	7	6	351140	6	4	4	1	0	1344	1	4	0	64	78	0	0	100
fixed	2	7	7	353418	3	1	1	1	0	863	1	4	0	40	79	0	0	100
fixed	2	7	8	354796	2	3	3	1	0	773	1	4	0	56	80	0	0	100
fixed	2	7	9	356335	3	2	2	1	0	500	1	4	0	48	81	0	0	100
fixed	2	7	10	357149	1	4	4	1	0	1002	1	4	0	64	82	0	0	100
fixed	2	7	11	358733	5	2	2	1	0	1126	1	4	0	48	83	0	0	100
fixed	2	7	12	360703	4	3	3	1	0	723	1	4	0	56	84	0	0	100
fixed	2	8	1	362706	4	1	1	1	0	678	1	4	0	40	85	0	0	100
fixed	2	8	2	364197	1	2	2	1	0	1095	1	4	0	48	86	0	0	100
fixed	2	8	3	365870	6	4	4	1	0	880	1	4	0	64	87	0	0	100
fixed	2	8	4	367425	2	1	1	1	0	926	1	4	0	40	88	0	0	100
fixed	2	8	5	369071	5	3	3	1	0	1048	1	4	0	56	89	0	0	100
fixed	2	8	6	370490	6	4	4	1	0	908	1	4	0	64	90	0	0	100
fixed	2	8	7	372330	3	1	1	1	0	870	1	4	0	40	91	0	0	100
fixed	2	8	8	374005	2	3	3	1	0	1424	1	4	0	56	92	0	0	100
fixed	2	8	9	376044	3	2	2	1	0	969	1	4	0	48	93	0	0	100
fixed	2	8	10	377942	1	4	4	1	0	737	1	4	0	64	94	0	0	100
fixed	2	8	11	378990	5	2	2	1	0	1269	1	4	0	48	95	0	0	100
fixed	2	8	12	381084	4	3	3	1	0	1084	1	4	0	56	96	0	0	100
fixed	2	9	1	383190	4	1	1	1	0	930	1	4	0	40	97	0	0	100
fixed	2	9	2	384566	1	2	2	1	0	1568	1	4	0	48	98	0	0	100
fixed	2	9	3	386701	6	4	4	1	0	958	1	4	0	64	99	0	0	100
fixed	2	9	4	388647	2	1	1	1	0	924	1	4	0	40	100	0	0	100
fixed	2	9	5	389910	5	3	3	1	0	1550	1	4	0	56	101	0	0	100
fixed	2	9	6	391980	6	4	4	1	0	918	1	4	0	64	102	0	0	100
fixed	2	9	7	393864	3	1	1	1	0	958	1	4	0	40	103	0	0	100
fixed	2	9	8	395430	2	3	3	1	0	1124	1	4	0	56	104	0	0	100
fixed	2	9	9	397274	3	2	2	1	0	1006	1	4	0	48	105	0	0	100
fixed	2	9	10	398605	1	4	4	1	0	926	1	4	0	64	106	0	0	100
fixed	2	9	11	400128	5	2	2	1	0	1158	1	4	0	48	107	0	0	100
fixed	2	9	12	401762	4	3	3	1	0	968	1	4	0	56	108	0	0	100
fixed	2	10	1	403606	4	1	1	1	0	874	1	4	0	40	109	0	0	100
fixed	2	10	2	404800	1	2	2	1	0	1671	1	4	0	48	110	0	0	100
fixed	2	10	3	407014	6	4	4	1	0	1361	1	4	0	64	111	0	0	100
fixed	2	10	4	408990	2	1	1	1	0	798	1	4	0	40	112	0	0	100
fixed	2	10	5	410094	5	3	3	1	0	1191	1	4	0	56	113	0	0	100
fixed	2	10	6	412299	6	4	4	1	0	1122	1	4	0	64	114	0	0	100
fixed	2	10	7	413930	3	1	1	1	0	1020	1	4	0	40	115	0	0	100
fixed	2	10	8	415370	2	3	0	0	2	0	3	4	0	56	115	0	1	99
fixed	2	10	9	418871	3	2	2	1	0	940	1	4	0	48	116	0	1	99
fixed	2	10	10	420399	1	4	4	1	0	1331	1	4	0	64	117	0	1	99
fixed	2	10	11	422288	5	2	2	1	0	1299	1	4	0	48	118	0	1	99
fixed	2	10	12	424462	4	3	3	1	0	535	1	4	0	56	119	0	1	99
fixed	3	1	1	426109	4	1	1	1	0	873	1	4	0	72	1	0	0	100
fixed	3	1	2	427415	1	2	2	1	0	1337	1	4	0	80	2	0	0	100
fixed	3	1	3	429752	6	4	4	1	0	926	1	4	0	96	3	0	0	100
fixed	3	1	4	431150	2	1	1	1	0	948	1	4	0	72	4	0	0	100
fixed	3	1	5	432575	5	3	3	1	0	1007	1	4	0	88	5	0	0	100
fixed	3	1	6	433990	6	4	4	1	0	1003	1	4	0	96	6	0	0	100
fixed	3	1	7	435691	3	1	1	1	0	979	1	4	0	72	7	0	0	100
fixed	3	1	8	437658	2	3	3	1	0	1008	1	4	0	88	8	0	0	100
fixed	3	1	9	439706	3	2	2	1	0	961	1	4	0	80	9	0	0	100
fixed	3	1	10	441103	1	4	4	1	0	838	1	4	0	96	10	0	0	100
fixed	3	1	11	442686	5	2	2	1	0	1339	1	4	0	80	11	0	0	100
fixed	3	1	12	445064	4	3	3	1	0	1070	1	4	0	88	12	0	0	100
fixed	3	2	1	446846	4	1	1	1	0	850	1	4	0	72	13	0	0	100
fixed	3	2	2	448512	1	2	2	1	0	956	1	4	0	80	14	0	0	100
fixed	3	2	3	450214	6	4	4	1	0	884	1	4	0	96	15	0	0	100
fixed	3	2	4	451981	2	1	1	1	0	873	1	4	0	72	16	0	0	100
fixed	3	2	5	453345	5	3	3	1	0	879	1	4	0	88	17	0	0	100
fixed	3	2	6	454676	6	4	4	1	0	975	1	4	0	96	18	0	0	100
fixed	3	2	7	456604	3	1	1	1	0	925	1	4	0	72	19	0	0	100
fixed	3	2	8	457852	2	3	3	1	0	1369	1	4	0	88	20	0	0	100
fixed	3	2	9	459989	3	2	2	1	0	702	1	4	0	80	21	0	0	100
fixed	3	2	10	461250	1	4	4	1	0	1040	1	4	0	96	22	0	0	100
fixed	3	2	11	462987	5	2	0	1	2	0	3	4	0	80	22	0	1	96
fixed	3	2	12	465875	4	3	3	1	0	948	1	4	0	88	23	0	1	96
fixed	3	3	1	467680	4	1	1	1	0	952	1	4	0	72	24	0	1	96
fixed	3	3	2	468935	1	2	2	1	0	1123	1	4	0	80	25	0	1	96
fixed	3	3	3	470828	6	4	4	1	0	899	1	4	0	96	26	0	1	96
fixed	3	3	4	472403	2	1	1	1	0	880	1	4	0	72	27	0	1	96
fixed	3	3	5	474255	5	3	3	1	0	1018	1	4	0	88	28	0	1	97
fixed	3	3	6	475598	6	4	4	1	0	1232	1	4	0	96	29	0	1	97
fixed	3	3	7	477792	3	1	1	1	0	748	1	4	0	72	30	0	1	97
fixed	3	3	8	478830	2	3	3	1	0	1696	1	4	0	88	31	0	1	97
fixed	3	3	9	481198	3	2	2	1	0	683	1	4	0	80	32	0	1	97
fixed	3	3	10	482291	1	4	4	1	0	893	1	4	0	96	33	0	1	97
fixed	3	3	11	483660	5	2	0	1	2	0	3	4	0	80	33	0	2	94
fixed	3	3	12	486513	4	3	3	1	0	786	1	4	0	88	34	0	2	94
fixed	3	4	1	488247	4	1	1	1	0	1121	1	4	0	72	35	0	2	95
fixed	3	4	2	490217	1	2	2	1	0	1117	1	4	0	80	36	0	2	95
fixed	3	4	3	491987	6	4	4	1	0	978	1	4	0	96	37	0	2	95
fixed	3	4	4	493978	2	1	1	1	0	1270	1	4	0	72	38	0	2	95
fixed	3	4	5	496228	5	3	3	1	0	1031	1	4	0	88	39	0	2	95
fixed	3	4	6	498275	6	4	4	1	0	1216	1	4	0	96	40	0	2	95
fixed	3	4	7	499933	3	1	1	1	0	786	1	4	0	72	41	0	2	95
fixed	3	4	8	501476	2	3	3	1	0	1145	1	4	0	88	42	0	2	95
fixed	3	4	9	503503	3	2	2	1	0	627	1	4	0	80	43	0	2	96
fixed	3	4	10	504889	1	4	4	1	0	832	1	4	0	96	44	0	2	96
fixed	3	4	11	506169	5	2	2	1	0	1474	1	4	0	80	45	0	2	96
fixed	3	4	12	508038	4	3	3	1	0	659	1	4	0	88	46	0	2	96
fixed	3	5	1	509650	4	1	1	1	0	806	1	4	0	72	47	0	2	96
fixed	3	5	2	511086	1	2	2	1	0	1097	1	4	0	80	48	0	2	96
fixed	3	5	3	512623	6	4	4	1	0	1352	1	4	0	96	49	0	2	96
fixed	3	5	4	514848	2	1	1	1	0	802	1	4	0	72	50	0	2	96
fixed	3	5	5	516556	5	3	3	1	0	962	1	4	0	88	51	0	2	96
fixed	3	5	6	518166	6	4	4	1	0	838	1	4	0	96	52	0	2	96
fixed	3	5	7	519517	3	1	1	1	0	901	1	4	0	72	53	0	2	96
fixed	3	5	8	520816	2	3	3	1	0	966	1	4	0	88	54	0	2	96
fixed	3	5	9	522174	3	2	2	1	0	892	1	4	0	80	55	0	2	96
fixed	3	5	10	524063	1	4	4	1	0	820	1	4	0	96	56	0	2	97
fixed	3	5	11	525639	5	2	2	1	0	1425	1	4	0	80	57	0	2	97
fixed	3	5	12	527746	4	3	3	1	0	680	1	4	0	88	58	0	2	97
fixed	3	6	1	529649	4	1	1	1	0	815	1	4	0	72	59	0	2	97
fixed	3	6	2	531450	1	2	0	1	2	0	3	4	0	80	59	0	3	95
fixed	3	6	3	534705	6	4	4	1	0	1138	1	4	0	96	60	0	3	95
fixed	3	6	4	536765	2	1	1	1	0	1218	1	4	0	72	61	0	3	95
fixed	3	6	5	538283	5	3	0	1	2	0	3	4	0	88	61	0	4	94
fixed	3	6	6	541175	6	4	4	1	0	1087	1	4	0	96	62	0	4	94
fixed	3	6	7	542861	3	1	1	1	0	968	1	4	0	72	63	0	4	94
fixed	3	6	8	544303	2	3	3	1	0	1219	1	4	0	88	64	0	4	94
fixed	3	6	9	545977	3	2	2	1	0	980	1	4	0	80	65	0	4	94
fixed	3	6	10	547723	1	4	4	1	0	946	1	4	0	96	66	0	4	94
fixed	3	6	11	549522	5	2	2	1	0	1214	1	4	0	80	67	0	4	94
fixed	3	6	12	551743	4	3	3	1	0	760	1	4	0	88	68	0	4	94
fixed	3	7	1	553558	4	1	1	1	0	867	1	4	0	72	69	0	4	95
fixed	3	7	2	555017	1	2	2	1	0	1085	1	4	0	80	70	0	4	95
fixed	3	7	3	556675	6	4	4	1	0	895	1	4	0	96	71	0	4	95
fixed	3	7	4	558548	2	1	1	1	0	920	1	4	0	72	72	0	4	95
fixed	3	7	5	560231	5	3	3	1	0	1216	1	4	0	88	73	0	4	95
fixed	3	7	6	561771	6	4	4	1	0	1127	1	4	0	96	74	0	4	95
fixed	3	7	7	563690	3	1	1	1	0	838	1	4	0	72	75	0	4	95
fixed	3	7	8	565217	2	3	3	1	0	1573	1	4	0	88	76	0	4	95
fixed	3	7	9	567354	3	2	2	1	0	651	1	4	0	80	77	0	4	95
fixed	3	7	10	568567	1	4	4	1	0	799	1	4	0	96	78	0	4	95
fixed	3	7	11	570283	5	2	2	1	0	1814	1	4	0	80	79	0	4	95
fixed	3	7	12	572774	4	3	3	1	0	629	1	4	0	88	80	0	4	95
fixed	3	8	1	574141	4	1	1	1	0	819	1	4	0	72	81	0	4	95
fixed	3	8	2	575987	1	2	2	1	0	1069	1	4	0	80	82	0	4	95
fixed	3	8	3	577827	6	4	4	1	0	863	1	4	0	96	83	0	4	95
fixed	3	8	4	579608	2	1	1	1	0	851	1	4	0	72	84	0	4	95
fixed	3	8	5	581164	5	3	3	1	0	1450	1	4	0	88	85	0	4	96
fixed	3	8	6	582951	6	4	4	1	0	1006	1	4	0	96	86	0	4	96
fixed	3	8	7	584394	3	1	1	1	0	841	1	4	0	72	87	0	4	96
fixed	3	8	8	586263	2	3	3	1	0	1090	1	4	0	88	88	0	4	96
fixed	3	8	9	587771	3	2	2	1	0	1026	1	4	0	80	89	0	4	96
fixed	3	8	10	589234	1	4	4	1	0	1020	1	4	0	96	90	0	4	96
fixed	3	8	11	590871	5	2	2	1	0	1086	1	4	0	80	91	0	4	96
fixed	3	8	12	592927	4	3	3	1	0	799	1	4	0	88	92	0	4	96
fixed	3	9	1	594424	4	1	1	1	0	896	1	4	0	72	93	0	4	96
fixed	3	9	2	595897	1	2	2	1	0	1001	1	4	0	80	94	0	4	96
fixed	3	9	3	597473	6	4	4	1	0	799	1	4	0	96	95	0	4	96
fixed	3	9	4	598672	2	1	1	1	0	1076	1	4	0	72	96	0	4	96
fixed	3	9	5	600757	5	3	3	1	0	956	1	4	0	88	97	0	4	96
fixed	3	9	6	602504	6	4	4	1	0	850	1	4	0	96	98	0	4	96
fixed	3	9	7	604305	3	1	1	1	0	1045	1	4	0	72	99	0	4	96
fixed	3	9	8	605635	2	3	3	1	0	1109	1	4	0	88	100	0	4	96
fixed	3	9	9	607730	3	2	2	1	0	820	1	4	0	80	101	0	4	96
fixed	3	9	10	609129	1	4	4	1	0	1073	1	4	0	96	102	0	4	96
fixed	3	9	11	610536	5	2	2	1	0	1429	1	4	0	80	103	0	4	96
fixed	3	9	12	612262	4	3	3	1	0	749	1	4	0	88	104	0	4	96
fixed	3	10	1	613839	4	1	1	1	0	577	1	4	0	72	105	0	4	96
fixed	3	10	2	615248	1	2	2	1	0	1094	1	4	0	80	106	0	4	96
fixed	3	10	3	617194	6	4	4	1	0	899	1	4	0	96	107	0	4	96
fixed	3	10	4	618977	2	1	1	1	0	1008	1	4	0	72	108	0	4	96
fixed	3	10	5	620740	5	3	3	1	0	949	1	4	0	88	109	0	4	96
fixed	3	10	6	622495	6	4	4	1	0	763	1	4	0	96	110	0	4	96
fixed	3	10	7	623856	3	1	1	1	0	841	1	4	0	72	111	0	4	97
fixed	3	10	8	625714	2	3	3	1	0	1299	1	4	0	88	112	0	4	97
fixed	3	10	9	627648	3	2	2	1	0	1289	1	4	0	80	113	0	4	97
fixed	3	10	10	629575	1	4	4	1	0	927	1	4	0	96	114	0	4	97
fixed	3	10	11	630879	5	2	2	1	0	1184	1	4	0	80	115	0	4	97
fixed	3	10	12	632758	4	3	3	1	0	792	1	4	0	88	116	0	4	97
fixed	4	1	1	766611	4	1	0	0	2	0	3	4	0	104	0	0	1	0
fixed	4	1	2	769458	1	2	0	0	2	0	3	4	0	112	0	0	2	0
fixed	4	1	3	772970	6	4	4	1	0	974	1	4	0	128	1	0	2	33
fixed	4	1	4	774784	2	1	1	1	0	873	1	4	0	104	2	0	2	50
fixed	4	1	5	776357	5	3	3	1	0	1750	1	4	0	120	3	0	2	60
fixed	4	1	6	778627	6	4	4	1	0	838	1	4	0	128	4	0	2	67
fixed	4	1	7	779821	3	1	1	1	0	1124	1	4	0	104	5	0	2	71
fixed	4	1	8	781629	2	3	3	1	0	1863	1	4	0	120	6	0	2	75
fixed	4	1	9	783964	3	2	2	1	0	988	1	4	0	112	7	0	2	78
fixed	4	1	10	785523	1	4	4	1	0	746	1	4	0	128	8	0	2	80
fixed	4	1	11	786946	5	2	2	1	0	1230	1	4	0	112	9	0	2	82
fixed	4	1	12	788772	4	3	3	1	0	688	1	4	0	120	10	0	2	83
fixed	4	2	1	790155	4	1	1	1	0	1022	1	4	0	104	11	0	2	85
fixed	4	2	2	791829	1	2	2	1	0	1055	1	4	0	112	12	0	2	86
fixed	4	2	3	793825	6	4	4	1	0	675	1	4	0	128	13	0	2	87
fixed	4	2	4	794950	2	1	1	1	0	1091	1	4	0	104	14	0	2	88
fixed	4	2	5	796612	5	3	3	1	0	1044	1	4	0	120	15	0	2	88
fixed	4	2	6	798654	6	4	4	1	0	750	1	4	0	128	16	0	2	89
fixed	4	2	7	800172	3	1	1	1	0	886	1	4	0	104	17	0	2	89
fixed	4	2	8	802063	2	3	3	1	0	1086	1	4	0	120	18	0	2	90
fixed	4	2	9	803718	3	2	2	1	0	791	1	4	0	112	19	0	2	90
fixed	4	2	10	805494	1	4	4	1	0	836	1	4	0	128	20	0	2	91
fixed	4	2	11	806689	5	2	2	1	0	1226	1	4	0	112	21	0	2	91
fixed	4	2	12	808681	4	3	3	1	0	549	1	4	0	120	22	0	2	92
fixed	4	3	1	810404	4	1	1	1	0	716	1	4	0	104	23	0	2	92
fixed	4	3	2	812143	1	2	2	1	0	962	1	4	0	112	24	0	2	92
fixed	4	3	3	813847	6	4	4	1	0	898	1	4	0	128	25	0	2	93
fixed	4	3	4	815749	2	1	1	1	0	786	1	4	0	104	26	0	2	93
fixed	4	3	5	816926	5	3	3	1	0	1256	1	4	0	120	27	0	2	93
fixed	4	3	6	818598	6	4	4	1	0	889	1	4	0	128	28	0	2	93
fixed	4	3	7	820171	3	1	1	1	0	927	1	4	0	104	29	0	2	94
fixed	4	3	8	821917	2	3	3	1	0	1332	1	4	0	120	30	0	2	94
fixed	4	3	9	823703	3	2	2	1	0	1185	1	4	0	112	31	0	2	94
fixed	4	3	10	825364	1	4	4	1	0	1243	1	4	0	128	32	0	2	94
fixed	4	3	11	827547	5	2	2	1	0	990	1	4	0	112	33	0	2	94
fixed	4	3	12	829101	4	3	3	1	0	636	1	4	0	120	34	0	2	94
fixed	4	4	1	830353	4	1	1	1	0	719	1	4	0	104	35	0	2	95
fixed	4	4	2	831459	1	2	2	1	0	944	1	4	0	112	36	0	2	95
fixed	4	4	3	832884	6	4	4	1	0	796	1	4	0	128	37	0	2	95
fixed	4	4	4	834101	2	1	1	1	0	1129	1	4	0	104	38	0	2	95
fixed	4	4	5	836264	5	3	3	1	0	1453	1	4	0	120	39	0	2	95
fixed	4	4	6	838695	6	4	4	1	0	742	1	4	0	128	40	0	2	95
fixed	4	4	7	839824	3	1	1	1	0	822	1	4	0	104	41	0	2	95
fixed	4	4	8	841262	2	3	3	1	0	1681	1	4	0	120	42	0	2	95
fixed	4	4	9	843513	3	2	2	1	0	2130	1	4	0	112	43	0	2	96
fixed	4	4	10	846615	1	4	4	1	0	798	1	4	0	128	44	0	2	96
fixed	4	4	11	847911	5	2	2	1	0	1127	1	4	0	112	45	0	2	96
fixed	4	4	12	849657	4	3	3	1	0	750	1	4	0	120	46	0	2	96
fixed	4	5	1	851371	4	1	1	1	0	781	1	4	0	104	47	0	2	96
fixed	4	5	2	852739	1	2	2	1	0	1011	1	4	0	112	48	0	2	96
fixed	4	5	3	854109	6	4	4	1	0	841	1	4	0	128	49	0	2	96
fixed	4	5	4	855251	2	1	1	1	0	953	1	4	0	104	50	0	2	96
fixed	4	5	5	857011	5	3	3	1	0	1046	1	4	0	120	51	0	2	96
fixed	4	5	6	858424	6	4	4	1	0	826	1	4	0	128	52	0	2	96
fixed	4	5	7	859915	3	1	1	1	0	1003	1	4	0	104	53	0	2	96
fixed	4	5	8	861420	2	3	3	1	0	964	1	4	0	120	54	0	2	96
fixed	4	5	9	862936	3	2	2	1	0	979	1	4	0	112	55	0	2	96
fixed	4	5	10	864510	1	4	4	1	0	1105	1	4	0	128	56	0	2	97
fixed	4	5	11	866034	5	2	2	1	0	1160	1	4	0	112	57	0	2	97
fixed	4	5	12	867606	4	3	3	1	0	646	1	4	0	120	58	0	2	97
fixed	4	6	1	869098	4	1	1	1	0	758	1	4	0	104	59	0	2	97
fixed	4	6	2	870809	1	2	2	1	0	1262	1	4	0	112	60	0	2	97
fixed	4	6	3	873100	6	4	4	1	0	877	1	4	0	128	61	0	2	97
fixed	4	6	4	874982	2	1	1	1	0	949	1	4	0	104	62	0	2	97
fixed	4	6	5	876449	5	3	3	1	0	975	1	4	0	120	63	0	2	97
fixed	4	6	6	877884	6	4	4	1	0	906	1	4	0	128	64	0	2	97
fixed	4	6	7	879460	3	1	1	1	0	847	1	4	0	104	65	0	2	97
fixed	4	6	8	880818	2	3	3	1	0	1238	1	4	0	120	66	0	2	97
fixed	4	6	9	882877	3	2	2	1	0	887	1	4	0	112	67	0	2	97
fixed	4	6	10	884248	1	4	4	1	0	1293	1	4	0	128	68	0	2	97
fixed	4	6	11	885847	5	2	2	1	0	1041	1	4	0	112	69	0	2	97
fixed	4	6	12	887738	4	3	3	1	0	593	1	4	0	120	70	0	2	97
fixed	4	7	1	889548	4	1	1	1	0	804	1	4	0	104	71	0	2	97
fixed	4	7	2	890715	1	2	2	1	0	1002	1	4	0	112	72	0	2	97
fixed	4	7	3	892566	6	4	4	1	0	844	1	4	0	128	73	0	2	97
fixed	4	7	4	894152	2	1	1	1	0	905	1	4	0	104	74	0	2	97
fixed	4	7	5	895909	5	3	0	1	2	0	3	4	0	120	74	0	3	96
fixed	4	7	6	898920	6	4	4	1	0	1039	1	4	0	128	75	0	3	96
fixed	4	7	7	900372	3	1	1	1	0	825	1	4	0	104	76	0	3	96
fixed	4	7	8	902064	2	3	3	1	0	1010	1	4	0	120	77	0	3	96
fixed	4	7	9	903970	3	2	2	1	0	969	1	4	0	112	78	0	3	96
fixed	4	7	10	905859	1	4	4	1	0	785	1	4	0	128	79	0	3	96
fixed	4	7	11	907659	5	2	2	1	0	1005	1	4	0	112	80	0	3	96
fixed	4	7	12	909555	4	3	3	1	0	773	1	4	0	120	81	0	3	96
fixed	4	8	1	911485	4	1	1	1	0	771	1	4	0	104	82	0	3	96
fixed	4	8	2	912872	1	2	2	1	0	968	1	4	0	112	83	0	3	97
fixed	4	8	3	914604	6	4	4	1	0	831	1	4	0	128	84	0	3	97
fixed	4	8	4	916385	2	1	1	1	0	867	1	4	0	104	85	0	3	97
fixed	4	8	5	918000	5	3	3	1	0	983	1	4	0	120	86	0	3	97
fixed	4	8	6	919548	6	4	4	1	0	910	1	4	0	128	87	0	3	97
fixed	4	8	7	920918	3	1	1	1	0	1092	1	4	0	104	88	0	3	97
fixed	4	8	8	922574	2	3	3	1	0	2174	1	4	0	120	89	0	3	97
fixed	4	8	9	925383	3	2	2	1	0	894	1	4	0	112	90	0	3	97
fixed	4	8	10	926784	1	4	4	1	0	971	1	4	0	128	91	0	3	97
fixed	4	8	11	928150	5	2	2	1	0	1233	1	4	0	112	92	0	3	97
fixed	4	8	12	929853	4	3	3	1	0	1297	1	4	0	120	93	0	3	97
fixed	4	9	1	932069	4	1	1	1	0	1043	1	4	0	104	94	0	3	97
fixed	4	9	2	934022	1	2	2	1	0	1264	1	4	0	112	95	0	3	97
fixed	4	9	3	935908	6	4	4	1	0	889	1	4	0	128	96	0	3	97
fixed	4	9	4	937741	2	1	1	1	0	979	1	4	0	104	97	0	3	97
fixed	4	9	5	939604	5	3	3	1	0	1356	1	4	0	120	98	0	3	97
fixed	4	9	6	941770	6	4	4	1	0	1264	1	4	0	128	99	0	3	97
fixed	4	9	7	943855	3	1	1	1	0	752	1	4	0	104	100	0	3	97
fixed	4	9	8	945565	2	3	3	1	0	1624	1	4	0	120	101	0	3	97
fixed	4	9	9	948060	3	2	2	1	0	870	1	4	0	112	102	0	3	97
fixed	4	9	10	949278	1	4	4	1	0	1362	1	4	0	128	103	0	3	97
fixed	4	9	11	951097	5	2	2	1	0	1341	1	4	0	112	104	0	3	97
fixed	4	9	12	952936	4	3	3	1	0	967	1	4	0	120	105	0	3	97
fixed	4	10	1	954875	4	1	1	1	0	909	1	4	0	104	106	0	3	97
fixed	4	10	2	956554	1	2	2	1	0	1110	1	4	0	112	107	0	3	97
fixed	4	10	3	958265	6	4	4	1	0	837	1	4	0	128	108	0	3	97
fixed	4	10	4	960089	2	1	1	1	0	904	1	4	0	104	109	0	3	97
fixed	4	10	5	961348	5	3	3	1	0	1091	1	4	0	120	110	0	3	97
fixed	4	10	6	963152	6	4	4	1	0	895	1	4	0	128	111	0	3	97
fixed	4	10	7	965031	3	1	1	1	0	831	1	4	0	104	112	0	3	97
fixed	4	10	8	966392	2	3	3	1	0	1125	1	4	0	120	113	0	3	97
fixed	4	10	9	968064	3	2	2	1	0	1023	1	4	0	112	114	0	3	97
fixed	4	10	10	969757	1	4	4	1	0	1007	1	4	0	128	115	0	3	97
fixed	4	10	11	971753	5	2	2	1	0	978	1	4	0	112	116	0	3	97
fixed	4	10	12	973335	4	3	3	1	0	783	1	4	0	120	117	0	3	98
fixed	5	1	1	975590	4	1	1	1	0	671	1	4	0	136	1	0	0	100
fixed	5	1	2	976742	1	2	2	1	0	1007	1	4	0	144	2	0	0	100
fixed	5	1	3	978187	6	4	4	1	0	866	1	4	0	160	3	0	0	100
fixed	5	1	4	979813	2	1	1	1	0	733	1	4	0	136	4	0	0	100
fixed	5	1	5	981276	5	3	3	1	0	1351	1	4	0	152	5	0	0	100
fixed	5	1	6	983270	6	4	4	1	0	1171	1	4	0	160	6	0	0	100
fixed	5	1	7	984823	3	1	1	1	0	1201	1	4	0	136	7	0	0	100
fixed	5	1	8	986808	2	3	0	1	2	0	3	4	0	152	7	0	1	88
fixed	5	1	9	989990	3	2	2	1	0	1190	1	4	0	144	8	0	1	89
fixed	5	1	10	991600	1	4	4	1	0	937	1	4	0	160	9	0	1	90
fixed	5	1	11	993352	5	2	2	1	0	1455	1	4	0	144	10	0	1	91
fixed	5	1	12	995818	4	3	3	1	0	1399	1	4	0	152	11	0	1	92
fixed	5	2	1	997998	4	1	1	1	0	1506	1	4	0	136	12	0	1	92
fixed	5	2	2	999884	1	2	2	1	0	979	1	4	0	144	13	0	1	93
fixed	5	2	3	1001652	6	4	4	1	0	848	1	4	0	160	14	0	1	93
fixed	5	2	4	1003512	2	1	1	1	0	969	1	4	0	136	15	0	1	94
fixed	5	2	5	1004937	5	3	3	1	0	1085	1	4	0	152	16	0	1	94
fixed	5	2	6	1006586	6	4	4	1	0	871	1	4	0	160	17	0	1	94
fixed	5	2	7	1008296	3	1	1	1	0	911	1	4	0	136	18	0	1	95
fixed	5	2	8	1009610	2	3	3	1	0	927	1	4	0	152	19	0	1	95
fixed	5	2	9	1011343	3	2	2	1	0	886	1	4	0	144	20	0	1	95
fixed	5	2	10	1013136	1	4	4	1	0	833	1	4	0	160	21	0	1	95
fixed	5	2	11	1014950	5	2	2	1	0	1109	1	4	0	144	22	0	1	96
fixed	5	2	12	1016537	4	3	3	1	0	890	1	4	0	152	23	0	1	96
fixed	5	3	1	1018214	4	1	1	1	0	850	1	4	0	136	24	0	1	96
fixed	5	3	2	1019692	1	2	2	1	0	1084	1	4	0	144	25	0	1	96
fixed	5	3	3	1021678	6	4	4	1	0	744	1	4	0	160	26	0	1	96
fixed	5	3	4	1023239	2	1	1	1	0	830	1	4	0	136	27	0	1	96
fixed	5	3	5	1024430	5	3	3	1	0	915	1	4	0	152	28	0	1	97
fixed	5	3	6	1025750	6	4	4	1	0	907	1	4	0	160	29	0	1	97
fixed	5	3	7	1027323	3	1	1	1	0	793	1	4	0	136	30	0	1	97
fixed	5	3	8	1028800	2	3	3	1	0	1010	1	4	0	152	31	0	1	97
fixed	5	3	9	1030239	3	2	2	1	0	885	1	4	0	144	32	0	1	97
fixed	5	3	10	1031427	1	4	4	1	0	914	1	4	0	160	33	0	1	97
fixed	5	3	11	1033086	5	2	2	1	0	1460	1	4	0	144	34	0	1	97
fixed	5	3	12	1034886	4	3	3	1	0	1240	1	4	0	152	35	0	1	97
fixed	5	4	1	1037361	4	1	1	1	0	823	1	4	0	136	36	0	1	97
fixed	5	4	2	1038559	1	2	2	1	0	1101	1	4	0	144	37	0	1	97
fixed	5	4	3	1040178	6	4	4	1	0	1280	1	4	0	160	38	0	1	97
fixed	5	4	4	1041973	2	1	1	1	0	916	1	4	0	136	39	0	1	98
fixed	5	4	5	1043744	5	3	3	1	0	985	1	4	0	152	40	0	1	98
fixed	5	4	6	1045610	6	4	4	1	0	786	1	4	0	160	41	0	1	98
fixed	5	4	7	1046862	3	1	1	1	0	925	1	4	0	136	42	0	1	98
fixed	5	4	8	1048612	2	3	3	1	0	1275	1	4	0	152	43	0	1	98
fixed	5	4	9	1050845	3	2	2	1	0	756	1	4	0	144	44	0	1	98
fixed	5	4	10	1052188	1	4	4	1	0	980	1	4	0	160	45	0	1	98
fixed	5	4	11	1053467	5	2	2	1	0	1253	1	4	0	144	46	0	1	98
fixed	5	4	12	1055657	4	3	3	1	0	600	1	4	0	152	47	0	1	98
fixed	5	5	1	1057527	4	1	1	1	0	945	1	4	0	136	48	0	1	98
fixed	5	5	2	1059467	1	2	2	1	0	1015	1	4	0	144	49	0	1	98
fixed	5	5	3	1061039	6	4	4	1	0	1028	1	4	0	160	50	0	1	98
fixed	5	5	4	1062817	2	1	1	1	0	969	1	4	0	136	51	0	1	98
fixed	5	5	5	1064314	5	3	3	2	0	1874	2	4	0	152	52	0	1	98
fixed	5	5	6	1067162	6	4	4	1	0	881	1	4	0	160	53	0	1	98
fixed	5	5	7	1068780	3	1	1	1	0	1829	1	4	0	136	54	0	1	98
fixed	5	5	8	1071374	2	3	3	1	0	1151	1	4	0	152	55	0	1	98
fixed	5	5	9	1072894	3	2	2	1	0	1007	1	4	0	144	56	0	1	98
fixed	5	5	10	1074803	1	4	4	1	0	837	1	4	0	160	57	0	1	98
fixed	5	5	11	1076212	5	2	2	1	0	1098	1	4	0	144	58	0	1	98
fixed	5	5	12	1077651	4	3	3	1	0	1149	1	4	0	152	59	0	1	98
fixed	5	6	1	1079865	4	1	1	1	0	1079	1	4	0	136	60	0	1	98
fixed	5	6	2	1081842	1	2	2	1	0	1171	1	4	0	144	61	0	1	98
fixed	5	6	3	1084017	6	4	4	1	0	895	1	4	0	160	62	0	1	98
fixed	5	6	4	1085945	2	1	1	1	0	1013	1	4	0	136	63	0	1	98
fixed	5	6	5	1087962	5	3	3	1	0	976	1	4	0	152	64	0	1	98
fixed	5	6	6	1089593	6	4	4	1	0	819	1	4	0	160	65	0	1	98
fixed	5	6	7	1090819	3	1	1	1	0	679	1	4	0	136	66	0	1	99
fixed	5	6	8	1092087	2	3	3	1	0	826	1	4	0	152	67	0	1	99
fixed	5	6	9	1093926	3	2	2	1	0	812	1	4	0	144	68	0	1	99
fixed	5	6	10	1095332	1	4	4	1	0	808	1	4	0	160	69	0	1	99
fixed	5	6	11	1096497	5	2	2	1	0	1087	1	4	0	144	70	0	1	99
fixed	5	6	12	1098011	4	3	3	1	0	654	1	4	0	152	71	0	1	99
fixed	5	7	1	1099731	4	1	1	1	0	894	1	4	0	136	72	0	1	99
fixed	5	7	2	1101394	1	2	2	1	0	936	1	4	0	144	73	0	1	99
fixed	5	7	3	1102937	6	4	4	1	0	1062	1	4	0	160	74	0	1	99
fixed	5	7	4	1104720	2	1	1	1	0	971	1	4	0	136	75	0	1	99
fixed	5	7	5	1106073	5	3	3	1	0	1369	1	4	0	152	76	0	1	99
fixed	5	7	6	1108406	6	4	4	1	0	1470	1	4	0	160	77	0	1	99
fixed	5	7	7	1110686	3	1	1	1	0	1342	1	4	0	136	78	0	1	99
fixed	5	7	8	1112698	2	3	3	1	0	1160	1	4	0	152	79	0	1	99
fixed	5	7	9	1114742	3	2	2	1	0	1010	1	4	0	144	80	0	1	99
fixed	5	7	10	1116637	1	4	4	1	0	937	1	4	0	160	81	0	1	99
fixed	5	7	11	1118601	5	2	2	1	0	983	1	4	0	144	82	0	1	99
fixed	5	7	12	1120404	4	3	3	1	0	730	1	4	0	152	83	0	1	99
fixed	5	8	1	1121952	4	1	1	1	0	760	1	4	0	136	84	0	1	99
fixed	5	8	2	1123686	1	2	2	1	0	815	1	4	0	144	85	0	1	99
fixed	5	8	3	1125157	6	4	4	1	0	865	1	4	0	160	86	0	1	99
fixed	5	8	4	1126840	2	1	1	1	0	786	1	4	0	136	87	0	1	99
fixed	5	8	5	1128187	5	3	3	1	0	992	1	4	0	152	88	0	1	99
fixed	5	8	6	1129708	6	4	4	1	0	872	1	4	0	160	89	0	1	99
fixed	5	8	7	1131250	3	1	1	1	0	815	1	4	0	136	90	0	1	99
fixed	5	8	8	1132832	2	3	3	1	0	1092	1	4	0	152	91	0	1	99
fixed	5	8	9	1134538	3	2	2	1	0	732	1	4	0	144	92	0	1	99
fixed	5	8	10	1135564	1	4	4	1	0	952	1	4	0	160	93	0	1	99
fixed	5	8	11	1137543	5	2	2	1	0	988	1	4	0	144	94	0	1	99
fixed	5	8	12	1138896	4	3	3	1	0	867	1	4	0	152	95	0	1	99
fixed	5	9	1	1140815	4	1	1	1	0	841	1	4	0	136	96	0	1	99
fixed	5	9	2	1142700	1	2	2	1	0	793	1	4	0	144	97	0	1	99
fixed	5	9	3	1143902	6	4	4	1	0	919	1	4	0	160	98	0	1	99
fixed	5	9	4	1145141	2	1	1	1	0	842	1	4	0	136	99	0	1	99
fixed	5	9	5	1146622	5	3	3	1	0	1340	1	4	0	152	100	0	1	99
fixed	5	9	6	1148625	6	4	4	1	0	807	1	4	0	160	101	0	1	99
fixed	5	9	7	1150244	3	1	1	1	0	962	1	4	0	136	102	0	1	99
fixed	5	9	8	1151560	2	3	3	1	0	1082	1	4	0	152	103	0	1	99
fixed	5	9	9	1153259	3	2	2	1	0	1243	1	4	0	144	104	0	1	99
fixed	5	9	10	1155211	1	4	4	1	0	1176	1	4	0	160	105	0	1	99
fixed	5	9	11	1156909	5	2	0	0	2	0	3	4	0	144	105	0	2	98
fixed	5	9	12	1159698	4	3	3	2	0	794	2	4	0	152	106	0	2	98
fixed	5	10	1	1161198	4	1	1	1	0	1090	1	4	0	136	107	0	2	98
fixed	5	10	2	1162852	1	2	2	1	0	1252	1	4	0	144	108	0	2	98
fixed	5	10	3	1165052	6	4	4	1	0	871	1	4	0	160	109	0	2	98
fixed	5	10	4	1166835	2	1	1	1	0	772	1	4	0	136	110	0	2	98
fixed	5	10	5	1168518	5	3	3	1	0	1324	1	4	0	152	111	0	2	98
fixed	5	10	6	1170539	6	4	4	1	0	799	1	4	0	160	112	0	2	98
fixed	5	10	7	1171874	3	1	1	1	0	902	1	4	0	136	113	0	2	98
fixed	5	10	8	1173793	2	3	3	1	0	1085	1	4	0	152	114	0	2	98
fixed	5	10	9	1175706	3	2	2	1	0	772	1	4	0	144	115	0	2	98
fixed	5	10	10	1176961	1	4	4	1	0	895	1	4	0	160	116	0	2	98
fixed	5	10	11	1178276	5	2	2	1	0	1103	1	4	0	144	117	0	2	98
fixed	5	10	12	1179797	4	3	3	1	0	751	1	4	0	152	118	0	2	98
random	6	1	1	1305466	6	1	1	1	0	1292	1	4	0	168	1	0	0	100
random	6	1	2	1307569	4	4	4	1	0	955	1	4	0	192	2	0	0	100
random	6	1	3	1309549	2	2	2	1	0	959	1	4	0	176	3	0	0	100
random	6	1	4	1311416	3	3	3	1	0	728	1	4	0	184	4	0	0	100
random	6	1	5	1313084	5	2	2	1	0	1010	1	4	0	176	5	0	0	100
random	6	1	6	1314505	1	4	4	1	0	837	1	4	0	192	6	0	0	100
random	6	1	7	1316254	6	1	1	1	0	812	1	4	0	168	7	0	0	100
random	6	1	8	1317778	2	3	3	1	0	1403	1	4	0	184	8	0	0	100
random	6	1	9	1319769	4	2	2	1	0	854	1	4	0	176	9	0	0	100
random	6	1	10	1321565	1	1	1	1	0	1114	1	4	0	168	10	0	0	100
random	6	1	11	1323115	5	4	4	1	0	840	1	4	0	192	11	0	0	100
random	6	1	12	1324383	3	3	3	1	0	1162	1	4	0	184	12	0	0	100
random	6	1	13	1326554	5	2	2	1	0	903	1	4	0	176	13	0	0	100
random	6	1	14	1328503	1	4	4	1	0	796	1	4	0	192	14	0	0	100
random	6	1	15	1329801	3	1	1	1	0	853	1	4	0	168	15	0	0	100
random	6	1	16	1331675	4	3	3	1	0	966	1	4	0	184	16	0	0	100
random	6	1	17	1333422	6	4	4	1	0	724	1	4	0	192	17	0	0	100
random	6	1	18	1334655	2	1	1	1	0	887	1	4	0	168	18	0	0	100
random	6	1	19	1336418	5	3	3	1	0	925	1	4	0	184	19	0	0	100
random	6	1	20	1337817	2	2	2	1	0	746	1	4	0	176	20	0	0	100
random	6	1	21	1339512	3	3	3	1	0	938	1	4	0	184	21	0	0	100
random	6	1	22	1341285	6	1	1	1	0	1463	1	4	0	168	22	0	0	100
random	6	1	23	1343674	4	2	2	1	0	1018	1	4	0	176	23	0	0	100
random	6	1	24	1345273	1	4	4	1	0	822	1	4	0	192	24	0	0	100
random	6	1	25	1346653	4	3	3	1	0	1003	1	4	0	184	25	0	0	100
random	6	1	26	1348190	2	1	1	1	0	890	1	4	0	168	26	0	0	100
random	6	1	27	1349886	5	2	2	1	0	1011	1	4	0	176	27	0	0	100
random	6	1	28	1351393	6	4	4	1	0	835	1	4	0	192	28	0	0	100
random	6	1	29	1353213	1	3	3	1	0	1006	1	4	0	184	29	0	0	100
random	6	1	30	1354631	5	2	2	1	0	858	1	4	0	176	30	0	0	100
random	6	1	31	1356225	2	1	1	1	0	1110	1	4	0	168	31	0	0	100
random	6	1	32	1357718	3	3	3	1	0	911	1	4	0	184	32	0	0	100
random	6	1	33	1359343	6	4	4	1	0	706	1	4	0	192	33	0	0	100
random	6	1	34	1360902	4	2	2	1	0	1304	1	4	0	176	34	0	0	100
random	6	1	35	1363222	3	4	4	1	0	862	1	4	0	192	35	0	0	100
random	6	1	36	1365038	1	1	1	1	0	889	1	4	0	168	36	0	0	100
random	6	1	37	1366585	3	4	4	1	0	887	1	4	0	192	37	0	0	100
random	6	1	38	1368256	5	3	3	1	0	1072	1	4	0	184	38	0	0	100
random	6	1	39	1369718	6	1	1	1	0	915	1	4	0	168	39	0	0	100
random	6	1	40	1371025	1	2	2	1	0	971	1	4	0	176	40	0	0	100
random	6	1	41	1372565	2	3	0	0	2	0	3	4	0	184	40	0	1	98
random	6	1	42	1375963	4	4	4	1	0	1082	1	4	0	192	41	0	1	98
random	6	1	43	1377987	1	2	2	1	0	1028	1	4	0	176	42	0	1	98
random	6	1	44	1380001	6	3	3	1	0	671	1	4	0	184	43	0	1	98
random	6	1	45	1381590	3	1	1	1	0	948	1	4	0	168	44	0	1	98
random	6	1	46	1383527	4	4	4	1	0	873	1	4	0	192	45	0	1	98
random	6	1	47	1384886	2	2	2	1	0	1248	1	4	0	176	46	0	1	98
random	6	1	48	1386484	5	1	1	1	0	948	1	4	0	168	47	0	1	98
random	6	1	49	1388088	2	3	3	1	0	1280	1	4	0	184	48	0	1	98
random	6	1	50	1390202	3	1	1	1	0	959	1	4	0	168	49	0	1	98
random	6	1	51	1391539	1	4	4	1	0	854	1	4	0	192	50	0	1	98
random	6	1	52	1393409	5	3	3	1	0	839	1	4	0	184	51	0	1	98
random	6	1	53	1394721	3	2	2	1	0	967	1	4	0	176	52	0	1	98
random	6	1	54	1396279	6	4	4	1	0	1166	1	4	0	192	53	0	1	98
random	6	1	55	1397883	4	2	2	1	0	1098	1	4	0	176	54	0	1	98
random	6	1	56	1399683	1	1	1	1	0	845	1	4	0	168	55	0	1	98
random	6	1	57	1401461	5	4	4	1	0	1434	1	4	0	192	56	0	1	98
random	6	1	58	1403900	2	1	1	1	0	747	1	4	0	168	57	0	1	98
random	6	1	59	1405331	6	2	2	1	0	1270	1	4	0	176	58	0	1	98
random	6	1	60	1407050	4	3	3	1	0	557	1	4	0	184	59	0	1	98
random	6	1	61	1408688	1	2	2	1	0	1272	1	4	0	176	60	0	1	98
random	6	1	62	1410297	6	4	4	1	0	900	1	4	0	192	61	0	1	98
random	6	1	63	1411531	4	1	1	1	0	791	1	4	0	168	62	0	1	98
random	6	1	64	1412973	2	2	2	1	0	971	1	4	0	176	63	0	1	98
random	6	1	65	1414883	4	3	3	1	0	658	1	4	0	184	64	0	1	98
random	6	1	66	1416521	3	1	1	1	0	765	1	4	0	168	65	0	1	98
random	6	1	67	1418090	1	3	3	1	0	954	1	4	0	184	66	0	1	99
random	6	1	68	1419984	5	4	4	1	0	1017	1	4	0	192	67	0	1	99
random	6	1	69	1421647	2	2	2	1	0	971	1	4	0	176	68	0	1	99
random	6	1	70	1423399	3	1	1	1	0	785	1	4	0	168	69	0	1	99
random	6	1	71	1425189	5	4	4	1	0	845	1	4	0	192	70	0	1	99
random	6	1	72	1427043	6	3	3	1	0	1319	1	4	0	184	71	0	1	99
random	6	1	73	1429172	2	1	1	1	0	796	1	4	0	168	72	0	1	99
random	6	1	74	1430431	5	3	3	1	0	1215	1	4	0	184	73	0	1	99
random	6	1	75	1432665	1	4	4	1	0	840	1	4	0	192	74	0	1	99
random	6	1	76	1433977	6	2	2	1	0	825	1	4	0	176	75	0	1	99
random	6	1	77	1435687	2	1	1	1	0	824	1	4	0	168	76	0	1	99
random	6	1	78	1437422	4	4	4	1	0	927	1	4	0	192	77	0	1	99
random	6	1	79	1439002	3	2	2	1	0	1044	1	4	0	176	78	0	1	99
random	6	1	80	1440484	4	3	3	1	0	581	1	4	0	184	79	0	1	99
random	6	1	81	1441850	1	4	4	1	0	748	1	4	0	192	80	0	1	99
random	6	1	82	1443206	5	1	1	1	0	690	1	4	0	168	81	0	1	99
random	6	1	83	1444562	3	2	2	1	0	1424	1	4	0	176	82	0	1	99
random	6	1	84	1446609	6	3	3	1	0	802	1	4	0	184	83	0	1	99
random	6	1	85	1448402	3	2	2	1	0	1270	1	4	0	176	84	0	1	99
random	6	1	86	1450283	1	3	3	1	0	950	1	4	0	184	85	0	1	99
random	6	1	87	1451693	4	4	0	1	2	0	3	4	0	192	85	0	2	98
random	6	1	88	1454883	2	1	1	1	0	763	1	4	0	168	86	0	2	98
random	6	1	89	1456315	6	4	4	1	0	911	1	4	0	192	87	0	2	98
random	6	1	90	1458172	3	3	3	1	0	1088	1	4	0	184	88	0	2	98
random	6	1	91	1459755	5	4	4	1	0	933	1	4	0	192	89	0	2	98
random	6	1	92	1461270	1	2	2	1	0	1261	1	4	0	176	90	0	2	98
random	6	1	93	1463327	5	1	1	1	0	838	1	4	0	168	91	0	2	98
random	6	1	94	1464903	4	3	3	1	0	819	1	4	0	184	92	0	2	98
random	6	1	95	1466640	6	1	1	1	0	914	1	4	0	168	93	0	2	98
random	6	1	96	1468061	2	2	2	1	0	973	1	4	0	176	94	0	2	98
random	6	1	97	1469738	4	3	3	1	0	814	1	4	0	184	95	0	2	98
random	6	1	98	1471493	3	2	2	1	0	804	1	4	0	176	96	0	2	98
random	6	1	99	1472648	6	3	3	1	0	1043	1	4	0	184	97	0	2	98
random	6	1	100	1474241	1	4	4	1	0	880	1	4	0	192	98	0	2	98
random	6	1	101	1475902	4	1	1	1	0	1129	1	4	0	168	99	0	2	98
random	6	1	102	1477601	5	2	2	1	0	881	1	4	0	176	100	0	2	98
random	6	1	103	1479197	2	4	4	1	0	893	1	4	0	192	101	0	2	98
random	6	1	104	1480749	3	1	1	1	0	852	1	4	0	168	102	0	2	98
random	6	1	105	1482648	1	3	3	1	0	940	1	4	0	184	103	0	2	98
random	6	1	106	1484253	2	2	2	1	0	960	1	4	0	176	104	0	2	98
random	6	1	107	1486029	5	4	4	1	0	852	1	4	0	192	105	0	2	98
random	6	1	108	1487203	6	1	1	1	0	1115	1	4	0	168	106	0	2	98
random	6	1	109	1489236	5	4	4	1	0	1004	1	4	0	192	107	0	2	98
random	6	1	110	1490780	6	3	3	1	0	1051	1	4	0	184	108	0	2	98
random	6	1	111	1492306	2	2	2	1	0	803	1	4	0	176	109	0	2	98
random	6	1	112	1493906	3	1	1	1	0	727	1	4	0	168	110	0	2	98
random	6	1	113	1495613	1	2	2	1	0	1087	1	4	0	176	111	0	2	98
random	6	1	114	1496995	2	3	3	1	0	828	1	4	0	184	112	0	2	98
random	6	1	115	1498132	3	1	1	1	0	908	1	4	0	168	113	0	2	98
random	6	1	116	1499804	4	4	4	1	0	933	1	4	0	192	114	0	2	98
random	6	1	117	1501298	6	1	1	1	0	917	1	4	0	168	115	0	2	98
random	6	1	118	1502789	5	3	3	1	0	910	1	4	0	184	116	0	2	98
random	6	1	119	1504272	1	4	4	1	0	823	1	4	0	192	117	0	2	98
random	6	1	120	1505395	4	2	2	1	0	1208	1	4	0	176	118	0	2	98
fixed	7	1	1	1507662	4	1	1	1	0	848	1	4	0	200	1	0	0	100
fixed	7	1	2	1509010	1	2	2	1	0	1319	1	4	0	208	2	0	0	100
fixed	7	1	3	1510861	6	4	4	1	0	1000	1	4	0	224	3	0	0	100
fixed	7	1	4	1512782	2	1	1	1	0	895	1	4	0	200	4	0	0	100
fixed	7	1	5	1514254	5	3	3	1	0	841	1	4	0	216	5	0	0	100
fixed	7	1	6	1515696	6	4	4	1	0	924	1	4	0	224	6	0	0	100
fixed	7	1	7	1517057	3	1	1	1	0	754	1	4	0	200	7	0	0	100
fixed	7	1	8	1518588	2	3	3	1	0	1194	1	4	0	216	8	0	0	100
fixed	7	1	9	1520754	3	2	2	1	0	1558	1	4	0	208	9	0	0	100
fixed	7	1	10	1522790	1	4	4	1	0	1015	1	4	0	224	10	0	0	100
fixed	7	1	11	1524129	5	2	2	1	0	1687	1	4	0	208	11	0	0	100
fixed	7	1	12	1526478	4	3	3	1	0	867	1	4	0	216	12	0	0	100
fixed	7	2	1	1528432	4	1	1	1	0	976	1	4	0	200	1	0	0	8
fixed	7	2	2	1529772	1	2	2	1	0	1599	1	4	0	208	2	0	0	14
fixed	7	2	3	1531854	6	4	4	1	0	920	1	4	0	224	3	0	0	20
fixed	7	2	4	1533641	2	1	1	1	0	892	1	4	0	200	4	0	0	25
fixed	7	2	5	1534851	5	3	3	1	0	952	1	4	0	216	5	0	0	29
fixed	7	2	6	1536645	6	4	4	1	0	733	1	4	0	224	6	0	0	33
fixed	7	2	7	1537736	3	1	1	1	0	758	1	4	0	200	7	0	0	37
fixed	7	2	8	1539270	2	3	3	1	0	981	1	4	0	216	8	0	0	40
fixed	7	2	9	1540957	3	2	2	1	0	862	1	4	0	208	9	0	0	43
fixed	7	2	10	1542802	1	4	4	1	0	751	1	4	0	224	10	0	0	45
fixed	7	2	11	1544089	5	2	2	1	0	1401	1	4	0	208	11	0	0	48
fixed	7	2	12	1545930	4	3	3	1	0	1539	1	4	0	216	12	0	0	50
fixed	7	3	1	1548147	4	1	1	1	0	853	1	4	0	200	1	0	0	4
fixed	7	3	2	1549809	1	2	2	1	0	1031	1	4	0	208	2	0	0	8
fixed	7	3	3	1551652	6	4	4	1	0	897	1	4	0	224	3	0	0	11
fixed	7	3	4	1552927	2	1	1	1	0	915	1	4	0	200	4	0	0	14
fixed	7	3	5	1554464	5	3	3	1	0	946	1	4	0	216	5	0	0	17
fixed	7	3	6	1555983	6	4	4	1	0	857	1	4	0	224	6	0	0	20
fixed	7	3	7	1557598	3	1	1	1	0	725	1	4	0	200	7	0	0	23
fixed	7	3	8	1558620	2	3	3	1	0	1129	1	4	0	216	8	0	0	25
fixed	7	3	9	1560497	3	2	2	1	0	1066	1	4	0	208	9	0	0	27
fixed	7	3	10	1562364	1	4	4	1	0	1283	1	4	0	224	10	0	0	29
fixed	7	3	11	1564583	5	2	2	1	0	1309	1	4	0	208	11	0	0	31
fixed	7	3	12	1566221	4	3	3	1	0	952	1	4	0	216	12	0	0	33
fixed	7	4	1	1568029	4	1	1	1	0	1499	1	4	0	200	1	0	0	3
fixed	7	4	2	1570543	1	2	2	1	0	1233	1	4	0	208	2	0	0	5
fixed	7	4	3	1572306	6	4	4	1	0	982	1	4	0	224	3	0	0	8
fixed	7	4	4	1573644	2	1	1	1	0	893	1	4	0	200	4	0	0	10
fixed	7	4	5	1575310	5	3	3	1	0	911	1	4	0	216	5	0	0	12
fixed	7	4	6	1577180	6	4	4	1	0	768	1	4	0	224	6	0	0	14
fixed	7	4	7	1578601	3	1	1	1	0	604	1	4	0	200	7	0	0	16
fixed	7	4	8	1579550	2	3	3	1	0	1651	1	4	0	216	8	0	0	18
fixed	7	4	9	1581529	3	2	2	1	0	1255	1	4	0	208	9	0	0	20
fixed	7	4	10	1583319	1	4	4	1	0	899	1	4	0	224	10	0	0	22
fixed	7	4	11	1584536	5	2	2	1	0	1264	1	4	0	208	11	0	0	23
fixed	7	4	12	1586455	4	3	3	1	0	1062	1	4	0	216	12	0	0	25
fixed	7	5	1	1588479	4	1	1	1	0	657	1	4	0	200	1	0	0	2
fixed	7	5	2	1589850	1	2	2	1	0	1287	1	4	0	208	2	0	0	4
fixed	7	5	3	1591652	6	4	4	1	0	874	1	4	0	224	3	0	0	6
fixed	7	5	4	1593484	2	1	1	1	0	869	1	4	0	200	4	0	0	8
fixed	7	5	5	1594737	5	3	3	1	0	920	1	4	0	216	5	0	0	9
fixed	7	5	6	1596563	6	4	4	1	0	875	1	4	0	224	6	0	0	11
fixed	7	5	7	1598102	3	1	1	1	0	841	1	4	0	200	7	0	0	13
fixed	7	5	8	1599410	2	3	3	1	0	1266	1	4	0	216	8	0	0	14
fixed	7	5	9	1601676	3	2	2	1	0	802	1	4	0	208	9	0	0	16
fixed	7	5	10	1603316	1	4	4	1	0	940	1	4	0	224	10	0	0	17
fixed	7	5	11	1604840	5	2	2	1	0	1316	1	4	0	208	11	0	0	19
fixed	7	5	12	1607000	4	3	3	1	0	793	1	4	0	216	12	0	0	20
fixed	7	6	1	1608428	4	1	1	1	0	796	1	4	0	200	1	0	0	2
fixed	7	6	2	1610060	1	2	2	1	0	967	1	4	0	208	2	0	0	3
fixed	7	6	3	1611499	6	4	4	1	0	1298	1	4	0	224	3	0	0	5
fixed	7	6	4	1613667	2	1	1	1	0	854	1	4	0	200	4	0	0	6
fixed	7	6	5	1614850	5	3	3	1	0	1004	1	4	0	216	5	0	0	8
fixed	7	6	6	1616260	6	4	4	1	0	889	1	4	0	224	6	0	0	9
fixed	7	6	7	1617844	3	1	1	1	0	789	1	4	0	200	7	0	0	10
fixed	7	6	8	1619023	2	3	3	1	0	1107	1	4	0	216	8	0	0	12
fixed	7	6	9	1621018	3	2	2	1	0	751	1	4	0	208	9	0	0	13
fixed	7	6	10	1622481	1	4	4	1	0	761	1	4	0	224	10	0	0	14
fixed	7	6	11	1624193	5	2	2	1	0	1232	1	4	0	208	11	0	0	15
fixed	7	6	12	1626400	4	3	3	1	0	1035	1	4	0	216	12	0	0	17
fixed	7	7	1	1628310	4	1	1	1	0	754	1	4	0	200	1	0	0	1
fixed	7	7	2	1630028	1	2	2	1	0	962	1	4	0	208	2	0	0	3
fixed	7	7	3	1631605	6	4	4	1	0	806	1	4	0	224	3	0	0	4
fixed	7	7	4	1633438	2	1	1	1	0	848	1	4	0	200	4	0	0	5
fixed	7	7	5	1635043	5	3	3	1	0	805	1	4	0	216	5	0	0	6
fixed	7	7	6	1636409	6	4	4	1	0	819	1	4	0	224	6	0	0	8
fixed	7	7	7	1637844	3	1	1	1	0	574	1	4	0	200	7	0	0	9
fixed	7	7	8	1639099	2	3	3	1	0	1121	1	4	0	216	8	0	0	10
fixed	7	7	9	1641090	3	2	2	1	0	964	1	4	0	208	9	0	0	11
fixed	7	7	10	1642908	1	4	4	1	0	1256	1	4	0	224	10	0	0	12
fixed	7	7	11	1645109	5	2	2	1	0	1131	1	4	0	208	11	0	0	13
fixed	7	7	12	1646894	4	3	3	1	0	735	1	4	0	216	12	0	0	14
fixed	7	8	1	1648460	4	1	1	1	0	756	1	4	0	200	1	0	0	1
fixed	7	8	2	1650096	1	2	2	1	0	1055	1	4	0	208	2	0	0	2
fixed	7	8	3	1651524	6	4	4	1	0	971	1	4	0	224	3	0	0	3
fixed	7	8	4	1653529	2	1	1	1	0	814	1	4	0	200	4	0	0	5
fixed	7	8	5	1654649	5	3	3	1	0	1014	1	4	0	216	5	0	0	6
fixed	7	8	6	1656262	6	4	4	1	0	754	1	4	0	224	6	0	0	7
fixed	7	8	7	1657982	3	1	1	1	0	673	1	4	0	200	7	0	0	8
fixed	7	8	8	1659524	2	3	3	1	0	1192	1	4	0	216	8	0	0	9
fixed	7	8	9	1661169	3	2	2	1	0	810	1	4	0	208	9	0	0	10
fixed	7	8	10	1662778	1	4	4	1	0	838	1	4	0	224	10	0	0	11
fixed	7	8	11	1664273	5	2	2	1	0	1055	1	4	0	208	11	0	0	12
fixed	7	8	12	1665891	4	3	3	1	0	1034	1	4	0	216	12	0	0	13
fixed	7	9	1	1667757	4	1	1	1	0	979	1	4	0	200	1	0	0	1
fixed	7	9	2	1669116	1	2	2	1	0	1242	1	4	0	208	2	0	0	2
fixed	7	9	3	1670834	6	4	4	1	0	905	1	4	0	224	3	0	0	3
fixed	7	9	4	1672536	2	1	1	1	0	905	1	4	0	200	4	0	0	4
fixed	7	9	5	1674472	5	3	3	1	0	814	1	4	0	216	5	0	0	5
fixed	7	9	6	1675915	6	4	4	1	0	826	1	4	0	224	6	0	0	6
fixed	7	9	7	1677205	3	1	1	1	0	755	1	4	0	200	7	0	0	7
fixed	7	9	8	1678657	2	3	3	1	0	886	1	4	0	216	8	0	0	8
fixed	7	9	9	1680520	3	2	2	1	0	1350	1	4	0	208	9	0	0	9
fixed	7	9	10	1682300	1	4	4	1	0	1219	1	4	0	224	10	0	0	9
fixed	7	9	11	1684366	5	2	2	1	0	1196	1	4	0	208	11	0	0	10
fixed	7	9	12	1686303	4	3	3	1	0	593	1	4	0	216	12	0	0	11
fixed	7	10	1	1687957	4	1	1	1	0	699	1	4	0	200	1	0	0	1
fixed	7	10	2	1689623	1	2	2	1	0	1261	1	4	0	208	2	0	0	2
fixed	7	10	3	1691730	6	4	4	1	0	971	1	4	0	224	3	0	0	3
fixed	7	10	4	1693727	2	1	1	1	0	911	1	4	0	200	4	0	0	4
fixed	7	10	5	1695624	5	3	0	1	2	0	3	4	0	216	4	0	1	4
fixed	7	10	6	1699115	6	4	4	1	0	1299	1	4	0	224	5	0	1	4
fixed	7	10	7	1701161	3	1	1	1	0	916	1	4	0	200	6	0	1	5
fixed	7	10	8	1702697	2	3	3	1	0	1307	1	4	0	216	7	0	1	6
fixed	7	10	9	1705031	3	2	2	1	0	800	1	4	0	208	8	0	1	7
fixed	7	10	10	1706446	1	4	4	1	0	933	1	4	0	224	9	0	1	8
fixed	7	10	11	1707967	5	2	2	1	0	1028	1	4	0	208	10	0	1	8
fixed	7	10	12	1709315	4	3	3	1	0	1131	1	4	0	216	11	0	1	9
