type	block	sequ.	trial	time	Pos.	Color	Button	NumRsp	Resp_1	RT_1	R_Code	Resp_2	RT_2	Trigg.	n_hit	n_inc	n_miss	score_%

random	1	1	1	4524	6	1	1	1	0	1339	1	4	0	8	1	0	0	100
random	1	1	2	6744	4	4	4	1	0	1149	1	4	0	32	2	0	0	100
random	1	1	3	8195	2	2	2	1	0	1376	1	4	0	16	3	0	0	100
random	1	1	4	10106	3	3	3	1	0	878	1	4	0	24	4	0	0	100
random	1	1	5	11729	5	2	2	1	0	1538	1	4	0	16	5	0	0	100
random	1	1	6	13926	1	4	4	1	0	909	1	4	0	32	6	0	0	100
random	1	1	7	15472	6	1	1	1	0	1059	1	4	0	8	7	0	0	100
random	1	1	8	17493	2	3	3	1	0	1245	1	4	0	24	8	0	0	100
random	1	1	9	19685	4	2	2	1	0	745	1	4	0	16	9	0	0	100
random	1	1	10	21201	1	1	1	1	0	1064	1	4	0	8	10	0	0	100
random	1	1	11	22571	5	4	4	1	0	782	1	4	0	32	11	0	0	100
random	1	1	12	23716	3	3	3	1	0	1022	1	4	0	24	12	0	0	100
random	1	1	13	25577	5	2	2	1	0	1343	1	4	0	16	13	0	0	100
random	1	1	14	27503	1	4	4	1	0	733	1	4	0	32	14	0	0	100
random	1	1	15	29028	3	1	1	1	0	957	1	4	0	8	15	0	0	100
random	1	1	16	30860	4	3	3	1	0	1039	1	4	0	24	16	0	0	100
random	1	1	17	32666	6	4	4	1	0	827	1	4	0	32	17	0	0	100
random	1	1	18	34136	2	1	1	1	0	645	1	4	0	8	18	0	0	100
random	1	1	19	35260	5	3	3	1	0	1581	1	4	0	24	19	0	0	100
random	1	1	20	37814	2	2	2	1	0	1089	1	4	0	16	20	0	0	100
random	1	1	21	39582	3	3	3	1	0	902	1	4	0	24	21	0	0	100
random	1	1	22	41421	6	1	1	1	0	856	1	4	0	8	22	0	0	100
random	1	1	23	43038	4	2	2	1	0	867	1	4	0	16	23	0	0	100
random	1	1	24	44478	1	4	4	1	0	551	1	4	0	32	24	0	0	100
random	1	1	25	45927	4	3	3	1	0	1033	1	4	0	24	25	0	0	100
random	1	1	26	47466	2	1	1	1	0	816	1	4	0	8	26	0	0	100
random	1	1	27	48805	5	2	2	1	0	1503	1	4	0	16	27	0	0	100
random	1	1	28	51182	6	4	4	1	0	747	1	4	0	32	28	0	0	100
random	1	1	29	52421	1	3	3	1	0	902	1	4	0	24	29	0	0	100
random	1	1	30	54268	5	2	2	1	0	880	1	4	0	16	30	0	0	100
random	1	1	31	55910	2	1	1	1	0	754	1	4	0	8	31	0	0	100
random	1	1	32	57046	3	3	3	1	0	834	1	4	0	24	32	0	0	100
random	1	1	33	58448	6	4	4	1	0	711	1	4	0	32	33	0	0	100
random	1	1	34	59862	4	2	2	1	0	731	1	4	0	16	34	0	0	100
random	1	1	35	61372	3	4	4	1	0	707	1	4	0	32	35	0	0	100
random	1	1	36	63055	1	1	1	3	0	1924	2	4	0	8	36	0	0	100
random	1	1	37	65659	3	4	4	1	0	709	1	4	0	32	37	0	0	100
random	1	1	38	66896	5	3	3	1	0	1145	1	4	0	24	38	0	0	100
random	1	1	39	68720	6	1	1	1	0	860	1	4	0	8	39	0	0	100
random	1	1	40	70176	1	2	2	1	0	1102	1	4	0	16	40	0	0	100
random	1	1	41	71625	2	3	3	1	0	737	1	4	0	24	41	0	0	100
random	1	1	42	73024	4	4	4	1	0	534	1	4	0	32	42	0	0	100
random	1	1	43	74232	1	2	2	1	0	1210	1	4	0	16	43	0	0	100
random	1	1	44	76416	6	3	3	1	0	910	1	4	0	24	44	0	0	100
random	1	1	45	77802	3	1	1	1	0	763	1	4	0	8	45	0	0	100
random	1	1	46	79155	4	4	4	1	0	674	1	4	0	32	46	0	0	100
random	1	1	47	80726	2	2	2	1	0	896	1	4	0	16	47	0	0	100
random	1	1	48	82634	5	1	1	1	0	774	1	4	0	8	48	0	0	100
random	1	1	49	84188	2	3	3	1	0	1220	1	4	0	24	49	0	0	100
random	1	1	50	86294	3	1	1	1	0	771	1	4	0	8	50	0	0	100
random	1	1	51	87721	1	4	4	1	0	647	1	4	0	32	51	0	0	100
random	1	1	52	89199	5	3	3	1	0	1272	1	4	0	24	52	0	0	100
random	1	1	53	90866	3	2	2	1	0	634	1	4	0	16	53	0	0	100
random	1	1	54	91899	6	4	4	1	0	646	1	4	0	32	54	0	0	100
random	1	1	55	93395	4	2	2	1	0	935	1	4	0	16	55	0	0	100
random	1	1	56	95329	1	1	1	1	0	853	1	4	0	8	56	0	0	100
random	1	1	57	96704	5	4	4	1	0	858	1	4	0	32	57	0	0	100
random	1	1	58	97870	2	1	1	1	0	993	1	4	0	8	58	0	0	100
random	1	1	59	99387	6	2	2	1	0	1265	1	4	0	16	59	0	0	100
random	1	1	60	101476	4	3	3	1	0	969	1	4	0	24	60	0	0	100
random	1	1	61	103586	1	2	2	1	0	871	1	4	0	16	61	0	0	100
random	1	1	62	105403	6	4	4	1	0	650	1	4	0	32	62	0	0	100
random	1	1	63	106535	4	1	1	1	0	698	1	4	0	8	63	0	0	100
random	1	1	64	107540	2	2	2	1	0	1584	1	4	0	16	64	0	0	100
random	1	1	65	110125	4	3	3	1	0	594	1	4	0	24	65	0	0	100
random	1	1	66	111502	3	1	1	1	0	736	1	4	0	8	66	0	0	100
random	1	1	67	112843	1	3	3	1	0	911	1	4	0	24	67	0	0	100
random	1	1	68	114405	5	4	4	1	0	653	1	4	0	32	68	0	0	100
random	1	1	69	115950	2	2	2	1	0	747	1	4	0	16	69	0	0	100
random	1	1	70	117657	3	1	1	1	0	683	1	4	0	8	70	0	0	100
random	1	1	71	118817	5	4	4	1	0	530	1	4	0	32	71	0	0	100
random	1	1	72	119896	6	3	3	1	0	916	1	4	0	24	72	0	0	100
random	1	1	73	122081	2	1	1	1	0	816	1	4	0	8	73	0	0	100
random	1	1	74	123828	5	3	3	1	0	878	1	4	0	24	74	0	0	100
random	1	1	75	125349	1	4	4	1	0	710	1	4	0	32	75	0	0	100
random	1	1	76	126481	6	2	2	1	0	765	1	4	0	16	76	0	0	100
random	1	1	77	127642	2	1	1	1	0	892	1	4	0	8	77	0	0	100
random	1	1	78	129465	4	4	4	1	0	655	1	4	0	32	78	0	0	100
random	1	1	79	130468	3	2	2	1	0	828	1	4	0	16	79	0	0	100
random	1	1	80	131656	4	3	3	1	0	498	1	4	0	24	80	0	0	100
random	1	1	81	132907	1	4	4	1	0	701	1	4	0	32	81	0	0	100
random	1	1	82	134549	5	1	1	1	0	568	1	4	0	8	82	0	0	100
random	1	1	83	135730	3	2	2	1	0	733	1	4	0	16	83	0	0	100
random	1	1	84	137440	6	3	3	1	0	725	1	4	0	24	84	0	0	100
random	1	1	85	139273	3	2	2	1	0	879	1	4	0	16	85	0	0	100
random	1	1	86	140841	1	3	3	1	0	774	1	4	0	24	86	0	0	100
random	1	1	87	142475	4	4	4	1	0	760	1	4	0	32	87	0	0	100
random	1	1	88	143657	2	1	1	1	0	486	1	4	0	8	88	0	0	100
random	1	1	89	144673	6	4	4	2	0	1475	2	4	0	32	89	0	0	100
random	1	1	90	147037	3	3	3	1	0	1015	1	4	0	24	90	0	0	100
random	1	1	91	148510	5	4	4	1	0	801	1	4	0	32	91	0	0	100
random	1	1	92	150105	1	2	2	1	0	837	1	4	0	16	92	0	0	100
random	1	1	93	151892	5	1	1	1	0	641	1	4	0	8	93	0	0	100
random	1	1	94	152949	4	3	3	1	0	708	1	4	0	24	94	0	0	100
random	1	1	95	154331	6	1	1	1	0	762	1	4	0	8	95	0	0	100
random	1	1	96	155564	2	2	2	1	0	989	1	4	0	16	96	0	0	100
random	1	1	97	157785	4	3	3	1	0	927	1	4	0	24	97	0	0	100
random	1	1	98	159209	3	2	2	1	0	811	1	4	0	16	98	0	0	100
random	1	1	99	161046	6	3	3	1	0	861	1	4	0	24	99	0	0	100
random	1	1	100	162764	1	4	4	1	0	596	1	4	0	32	100	0	0	100
random	1	1	101	163659	4	1	1	1	0	503	1	4	0	8	101	0	0	100
random	1	1	102	164599	5	2	2	1	0	895	1	4	0	16	102	0	0	100
random	1	1	103	166260	2	4	4	1	0	560	1	4	0	32	103	0	0	100
random	1	1	104	167187	3	1	1	1	0	930	1	4	0	8	104	0	0	100
random	1	1	105	169113	1	3	3	1	0	823	1	4	0	24	105	0	0	100
random	1	1	106	170947	2	2	2	1	0	922	1	4	0	16	106	0	0	100
random	1	1	107	172540	5	4	4	1	0	686	1	4	0	32	107	0	0	100
random	1	1	108	173966	6	1	1	1	0	762	1	4	0	8	108	0	0	100
random	1	1	109	175663	5	4	4	1	0	618	1	4	0	32	109	0	0	100
random	1	1	110	176770	6	3	3	1	0	819	1	4	0	24	110	0	0	100
random	1	1	111	178622	2	2	2	1	0	821	1	4	0	16	111	0	0	100
random	1	1	112	180403	3	1	1	1	0	786	1	4	0	8	112	0	0	100
random	1	1	113	181492	1	2	2	1	0	1035	1	4	0	16	113	0	0	100
random	1	1	114	182863	2	3	3	1	0	905	1	4	0	24	114	0	0	100
random	1	1	115	184454	3	1	1	1	0	590	1	4	0	8	115	0	0	100
random	1	1	116	185463	4	4	4	1	0	491	1	4	0	32	116	0	0	100
random	1	1	117	186695	6	1	1	2	0	1335	2	4	0	8	117	0	0	100
random	1	1	118	188426	5	3	3	1	0	877	1	4	0	24	118	0	0	100
random	1	1	119	190037	1	4	4	1	0	745	1	4	0	32	119	0	0	100
random	1	1	120	191441	4	2	2	1	0	1670	1	4	0	16	120	0	0	100
fixed	2	1	1	194624	4	1	1	1	0	679	1	4	0	40	1	0	0	100
fixed	2	1	2	196201	1	2	2	1	0	1052	1	4	0	48	2	0	0	100
fixed	2	1	3	197803	6	4	4	1	0	744	1	4	0	64	3	0	0	100
fixed	2	1	4	198976	2	1	1	1	0	743	1	4	0	40	4	0	0	100
fixed	2	1	5	200180	5	3	3	1	0	756	1	4	0	56	5	0	0	100
fixed	2	1	6	201829	6	4	4	1	0	766	1	4	0	64	6	0	0	100
fixed	2	1	7	203069	3	1	1	1	0	722	1	4	0	40	7	0	0	100
fixed	2	1	8	204241	2	3	3	1	0	928	1	4	0	56	8	0	0	100
fixed	2	1	9	206177	3	2	2	1	0	734	1	4	0	48	9	0	0	100
fixed	2	1	10	207635	1	4	4	1	0	632	1	4	0	64	10	0	0	100
fixed	2	1	11	208849	5	2	2	1	0	1005	1	4	0	48	11	0	0	100
fixed	2	1	12	210770	4	3	3	1	0	635	1	4	0	56	12	0	0	100
fixed	2	2	1	212219	4	1	1	1	0	1086	1	4	0	40	13	0	0	100
fixed	2	2	2	214153	1	2	2	1	0	1036	1	4	0	48	14	0	0	100
fixed	2	2	3	215807	6	4	4	1	0	630	1	4	0	64	15	0	0	100
fixed	2	2	4	217243	2	1	1	1	0	777	1	4	0	40	16	0	0	100
fixed	2	2	5	218364	5	3	3	1	0	1018	1	4	0	56	17	0	0	100
fixed	2	2	6	219692	6	4	4	1	0	729	1	4	0	64	18	0	0	100
fixed	2	2	7	221152	3	1	1	1	0	1068	1	4	0	40	19	0	0	100
fixed	2	2	8	222934	2	3	3	1	0	952	1	4	0	56	20	0	0	100
fixed	2	2	9	224840	3	2	2	1	0	775	1	4	0	48	21	0	0	100
fixed	2	2	10	226248	1	4	4	1	0	684	1	4	0	64	22	0	0	100
fixed	2	2	11	227698	5	2	2	1	0	862	1	4	0	48	23	0	0	100
fixed	2	2	12	228952	4	3	3	1	0	737	1	4	0	56	24	0	0	100
fixed	2	3	1	230414	4	1	1	1	0	739	1	4	0	40	25	0	0	100
fixed	2	3	2	231464	1	2	2	1	0	1031	1	4	0	48	26	0	0	100
fixed	2	3	3	233340	6	4	4	1	0	535	1	4	0	64	27	0	0	100
fixed	2	3	4	234627	2	1	1	1	0	737	1	4	0	40	28	0	0	100
fixed	2	3	5	236220	5	3	3	1	0	790	1	4	0	56	29	0	0	100
fixed	2	3	6	237749	6	4	4	1	0	628	1	4	0	64	30	0	0	100
fixed	2	3	7	239003	3	1	1	1	0	559	1	4	0	40	31	0	0	100
fixed	2	3	8	240179	2	3	3	1	0	806	1	4	0	56	32	0	0	100
fixed	2	3	9	241942	3	2	2	1	0	675	1	4	0	48	33	0	0	100
fixed	2	3	10	243266	1	4	4	1	0	795	1	4	0	64	34	0	0	100
fixed	2	3	11	244646	5	2	2	1	0	888	1	4	0	48	35	0	0	100
fixed	2	3	12	245855	4	3	3	1	0	813	1	4	0	56	36	0	0	100
fixed	2	4	1	247906	4	1	1	1	0	758	1	4	0	40	37	0	0	100
fixed	2	4	2	249268	1	2	2	1	0	1021	1	4	0	48	38	0	0	100
fixed	2	4	3	250972	6	4	4	1	0	709	1	4	0	64	39	0	0	100
fixed	2	4	4	252540	2	1	1	1	0	794	1	4	0	40	40	0	0	100
fixed	2	4	5	254054	5	3	3	1	0	826	1	4	0	56	41	0	0	100
fixed	2	4	6	255406	6	4	4	1	0	632	1	4	0	64	42	0	0	100
fixed	2	4	7	256717	3	1	1	1	0	1009	1	4	0	40	43	0	0	100
fixed	2	4	8	258419	2	3	3	1	0	793	1	4	0	56	44	0	0	100
fixed	2	4	9	259693	3	2	2	1	0	587	1	4	0	48	45	0	0	100
fixed	2	4	10	260970	1	4	4	1	0	621	1	4	0	64	46	0	0	100
fixed	2	4	11	262341	5	2	2	1	0	843	1	4	0	48	47	0	0	100
fixed	2	4	12	263723	4	3	3	2	0	1161	2	4	0	56	48	0	0	100
fixed	2	5	1	265683	4	1	1	1	0	717	1	4	0	40	49	0	0	100
fixed	2	5	2	267430	1	2	2	1	0	1020	1	4	0	48	50	0	0	100
fixed	2	5	3	269172	6	4	4	1	0	610	1	4	0	64	51	0	0	100
fixed	2	5	4	270257	2	1	1	1	0	836	1	4	0	40	52	0	0	100
fixed	2	5	5	271777	5	3	3	1	0	772	1	4	0	56	53	0	0	100
fixed	2	5	6	273291	6	4	4	1	0	571	1	4	0	64	54	0	0	100
fixed	2	5	7	274482	3	1	1	1	0	681	1	4	0	40	55	0	0	100
fixed	2	5	8	275538	2	3	3	1	0	812	1	4	0	56	56	0	0	100
fixed	2	5	9	276731	3	2	2	1	0	1106	1	4	0	48	57	0	0	100
fixed	2	5	10	278184	1	4	4	1	0	780	1	4	0	64	58	0	0	100
fixed	2	5	11	279252	5	2	2	1	0	967	1	4	0	48	59	0	0	100
fixed	2	5	12	281133	4	3	3	2	0	903	2	4	0	56	60	0	0	100
fixed	2	6	1	282943	4	1	1	1	0	650	1	4	0	40	61	0	0	100
fixed	2	6	2	284384	1	2	2	1	0	1085	1	4	0	48	62	0	0	100
fixed	2	6	3	286008	6	4	4	1	0	681	1	4	0	64	63	0	0	100
fixed	2	6	4	287521	2	1	1	1	0	712	1	4	0	40	64	0	0	100
fixed	2	6	5	289131	5	3	3	1	0	972	1	4	0	56	65	0	0	100
fixed	2	6	6	291078	6	4	4	1	0	602	1	4	0	64	66	0	0	100
fixed	2	6	7	292731	3	1	1	1	0	852	1	4	0	40	67	0	0	100
fixed	2	6	8	294553	2	3	3	1	0	806	1	4	0	56	68	0	0	100
fixed	2	6	9	296166	3	2	2	1	0	587	1	4	0	48	69	0	0	100
fixed	2	6	10	297251	1	4	4	1	0	501	1	4	0	64	70	0	0	100
fixed	2	6	11	298308	5	2	2	1	0	960	1	4	0	48	71	0	0	100
fixed	2	6	12	299822	4	3	3	1	0	824	1	4	0	56	72	0	0	100
fixed	2	7	1	301673	4	1	1	2	0	1177	2	4	0	40	73	0	0	100
fixed	2	7	2	303378	1	2	2	1	0	1137	1	4	0	48	74	0	0	100
fixed	2	7	3	305121	6	4	4	1	0	607	1	4	0	64	75	0	0	100
fixed	2	7	4	306578	2	1	1	1	0	738	1	4	0	40	76	0	0	100
fixed	2	7	5	307939	5	3	3	1	0	792	1	4	0	56	77	0	0	100
fixed	2	7	6	309222	6	4	4	1	0	641	1	4	0	64	78	0	0	100
fixed	2	7	7	310518	3	1	1	1	0	715	1	4	0	40	79	0	0	100
fixed	2	7	8	311560	2	3	3	1	0	910	1	4	0	56	80	0	0	100
fixed	2	7	9	313163	3	2	2	1	0	731	1	4	0	48	81	0	0	100
fixed	2	7	10	314460	1	4	4	1	0	612	1	4	0	64	82	0	0	100
fixed	2	7	11	315899	5	2	2	1	0	927	1	4	0	48	83	0	0	100
fixed	2	7	12	317214	4	3	3	1	0	959	1	4	0	56	84	0	0	100
fixed	2	8	1	318964	4	1	1	1	0	709	1	4	0	40	85	0	0	100
fixed	2	8	2	320586	1	2	2	1	0	840	1	4	0	48	86	0	0	100
fixed	2	8	3	322135	6	4	4	1	0	679	1	4	0	64	87	0	0	100
fixed	2	8	4	323181	2	1	1	1	0	738	1	4	0	40	88	0	0	100
fixed	2	8	5	324605	5	3	3	1	0	678	1	4	0	56	89	0	0	100
fixed	2	8	6	325640	6	4	4	1	0	626	1	4	0	64	90	0	0	100
fixed	2	8	7	326729	3	1	1	1	0	724	1	4	0	40	91	0	0	100
fixed	2	8	8	327899	2	3	3	1	0	955	1	4	0	56	92	0	0	100
fixed	2	8	9	329881	3	2	2	1	0	702	1	4	0	48	93	0	0	100
fixed	2	8	10	331219	1	4	4	1	0	1398	1	4	0	64	94	0	0	100
fixed	2	8	11	333553	5	2	2	1	0	1019	1	4	0	48	95	0	0	100
fixed	2	8	12	335149	4	3	3	1	0	752	1	4	0	56	96	0	0	100
fixed	2	9	1	336891	4	1	1	1	0	781	1	4	0	40	97	0	0	100
fixed	2	9	2	338271	1	2	2	1	0	971	1	4	0	48	98	0	0	100
fixed	2	9	3	339646	6	4	4	1	0	705	1	4	0	64	99	0	0	100
fixed	2	9	4	341172	2	1	1	1	0	880	1	4	0	40	100	0	0	100
fixed	2	9	5	342737	5	3	3	1	0	718	1	4	0	56	101	0	0	100
fixed	2	9	6	344330	6	4	4	1	0	634	1	4	0	64	102	0	0	100
fixed	2	9	7	345429	3	1	1	1	0	1044	1	4	0	40	103	0	0	100
fixed	2	9	8	347384	2	3	3	1	0	841	1	4	0	56	104	0	0	100
fixed	2	9	9	349154	3	2	2	1	0	766	1	4	0	48	105	0	0	100
fixed	2	9	10	350818	1	4	4	1	0	672	1	4	0	64	106	0	0	100
fixed	2	9	11	351898	5	2	2	1	0	914	1	4	0	48	107	0	0	100
fixed	2	9	12	353510	4	3	3	1	0	614	1	4	0	56	108	0	0	100
fixed	2	10	1	354819	4	1	1	1	0	918	1	4	0	40	109	0	0	100
fixed	2	10	2	356669	1	2	2	1	0	840	1	4	0	48	110	0	0	100
fixed	2	10	3	358015	6	4	4	1	0	687	1	4	0	64	111	0	0	100
fixed	2	10	4	359473	2	1	1	1	0	1553	1	4	0	40	112	0	0	100
fixed	2	10	5	361415	5	3	3	1	0	767	1	4	0	56	113	0	0	100
fixed	2	10	6	362475	6	4	4	1	0	658	1	4	0	64	114	0	0	100
fixed	2	10	7	363768	3	1	1	1	0	963	1	4	0	40	115	0	0	100
fixed	2	10	8	365037	2	3	3	1	0	918	1	4	0	56	116	0	0	100
fixed	2	10	9	366535	3	2	2	1	0	662	1	4	0	48	117	0	0	100
fixed	2	10	10	367796	1	4	4	1	0	593	1	4	0	64	118	0	0	100
fixed	2	10	11	368979	5	2	2	1	0	1007	1	4	0	48	119	0	0	100
fixed	2	10	12	370470	4	3	3	1	0	808	1	4	0	56	120	0	0	100
fixed	3	1	1	372644	4	1	1	1	0	627	1	4	0	72	1	0	0	100
fixed	3	1	2	373766	1	2	2	1	0	963	1	4	0	80	2	0	0	100
fixed	3	1	3	375346	6	4	4	1	0	593	1	4	0	96	3	0	0	100
fixed	3	1	4	376453	2	1	1	1	0	754	1	4	0	72	4	0	0	100
fixed	3	1	5	377835	5	3	3	2	0	816	2	4	0	88	5	0	0	100
fixed	3	1	6	379529	6	4	4	1	0	671	1	4	0	96	6	0	0	100
fixed	3	1	7	380996	3	1	1	1	0	698	1	4	0	72	7	0	0	100
fixed	3	1	8	382049	2	3	3	1	0	861	1	4	0	88	8	0	0	100
fixed	3	1	9	383343	3	2	2	1	0	694	1	4	0	80	9	0	0	100
fixed	3	1	10	384833	1	4	4	1	0	679	1	4	0	96	10	0	0	100
fixed	3	1	11	386504	5	2	2	1	0	888	1	4	0	80	11	0	0	100
fixed	3	1	12	387836	4	3	3	1	0	816	1	4	0	88	12	0	0	100
fixed	3	2	1	389303	4	1	1	1	0	1049	1	4	0	72	13	0	0	100
fixed	3	2	2	391198	1	2	2	1	0	986	1	4	0	80	14	0	0	100
fixed	3	2	3	393210	6	4	4	1	0	685	1	4	0	96	15	0	0	100
fixed	3	2	4	394303	2	1	1	1	0	878	1	4	0	72	16	0	0	100
fixed	3	2	5	396101	5	3	3	1	0	769	1	4	0	88	17	0	0	100
fixed	3	2	6	397185	6	4	4	1	0	676	1	4	0	96	18	0	0	100
fixed	3	2	7	398271	3	1	1	1	0	774	1	4	0	72	19	0	0	100
fixed	3	2	8	399715	2	3	3	1	0	1145	1	4	0	88	20	0	0	100
fixed	3	2	9	401256	3	2	2	1	0	584	1	4	0	80	21	0	0	100
fixed	3	2	10	402392	1	4	4	1	0	599	1	4	0	96	22	0	0	100
fixed	3	2	11	403672	5	2	2	1	0	985	1	4	0	80	23	0	0	100
fixed	3	2	12	405350	4	3	3	1	0	818	1	4	0	88	24	0	0	100
fixed	3	3	1	407147	4	1	1	1	0	638	1	4	0	72	25	0	0	100
fixed	3	3	2	408493	1	2	2	1	0	853	1	4	0	80	26	0	0	100
fixed	3	3	3	409785	6	4	4	1	0	582	1	4	0	96	27	0	0	100
fixed	3	3	4	411234	2	1	1	1	0	809	1	4	0	72	28	0	0	100
fixed	3	3	5	412494	5	3	3	1	0	891	1	4	0	88	29	0	0	100
fixed	3	3	6	414363	6	4	4	1	0	652	1	4	0	96	30	0	0	100
fixed	3	3	7	416052	3	1	1	1	0	708	1	4	0	72	31	0	0	100
fixed	3	3	8	417093	2	3	3	1	0	1057	1	4	0	88	32	0	0	100
fixed	3	3	9	419051	3	2	2	1	0	862	1	4	0	80	33	0	0	100
fixed	3	3	10	420693	1	4	4	1	0	592	1	4	0	96	34	0	0	100
fixed	3	3	11	421769	5	2	2	1	0	1027	1	4	0	80	35	0	0	100
fixed	3	3	12	423732	4	3	3	1	0	752	1	4	0	88	36	0	0	100
fixed	3	4	1	425241	4	1	1	1	0	679	1	4	0	72	37	0	0	100
fixed	3	4	2	426341	1	2	2	1	0	1177	1	4	0	80	38	0	0	100
fixed	3	4	3	428095	6	4	4	1	0	639	1	4	0	96	39	0	0	100
fixed	3	4	4	429214	2	1	1	2	0	688	2	4	0	72	40	0	0	100
fixed	3	4	5	430357	5	3	3	1	0	1031	1	4	0	88	41	0	0	100
fixed	3	4	6	432099	6	4	4	1	0	621	1	4	0	96	42	0	0	100
fixed	3	4	7	433375	3	1	1	1	0	735	1	4	0	72	43	0	0	100
fixed	3	4	8	434810	2	3	3	2	0	2027	2	4	0	88	44	0	0	100
fixed	3	4	9	437345	3	2	2	1	0	727	1	4	0	80	45	0	0	100
fixed	3	4	10	438954	1	4	4	1	0	667	1	4	0	96	46	0	0	100
fixed	3	4	11	440602	5	2	2	1	0	989	1	4	0	80	47	0	0	100
fixed	3	4	12	442141	4	3	3	1	0	876	1	4	0	88	48	0	0	100
fixed	3	5	1	443603	4	1	1	2	0	990	2	4	0	72	49	0	0	100
fixed	3	5	2	444921	1	2	2	1	0	1070	1	4	0	80	50	0	0	100
fixed	3	5	3	446455	6	4	4	1	0	709	1	4	0	96	51	0	0	100
fixed	3	5	4	447449	2	1	1	1	0	787	1	4	0	72	52	0	0	100
fixed	3	5	5	448981	5	3	3	1	0	1170	1	4	0	88	53	0	0	100
fixed	3	5	6	450540	6	4	4	1	0	632	1	4	0	96	54	0	0	100
fixed	3	5	7	451759	3	1	1	1	0	1052	1	4	0	72	55	0	0	100
fixed	3	5	8	453165	2	3	3	1	0	817	1	4	0	88	56	0	0	100
fixed	3	5	9	454662	3	2	2	1	0	817	1	4	0	80	57	0	0	100
fixed	3	5	10	456231	1	4	4	1	0	735	1	4	0	96	58	0	0	100
fixed	3	5	11	457879	5	2	2	1	0	953	1	4	0	80	59	0	0	100
fixed	3	5	12	459725	4	3	3	1	0	731	1	4	0	88	60	0	0	100
fixed	3	6	1	461330	4	1	1	1	0	759	1	4	0	72	61	0	0	100
fixed	3	6	2	462949	1	2	2	1	0	1122	1	4	0	80	62	0	0	100
fixed	3	6	3	464384	6	4	4	1	0	678	1	4	0	96	63	0	0	100
fixed	3	6	4	465813	2	1	1	1	0	729	1	4	0	72	64	0	0	100
fixed	3	6	5	467158	5	3	3	1	0	816	1	4	0	88	65	0	0	100
fixed	3	6	6	468887	6	4	4	1	0	615	1	4	0	96	66	0	0	100
fixed	3	6	7	469823	3	1	1	1	0	831	1	4	0	72	67	0	0	100
fixed	3	6	8	471639	2	3	3	1	0	914	1	4	0	88	68	0	0	100
fixed	3	6	9	473295	3	2	2	1	0	692	1	4	0	80	69	0	0	100
fixed	3	6	10	474801	1	4	4	1	0	660	1	4	0	96	70	0	0	100
fixed	3	6	11	475753	5	2	2	1	0	1060	1	4	0	80	71	0	0	100
fixed	3	6	12	477828	4	3	3	1	0	716	1	4	0	88	72	0	0	100
fixed	3	7	1	479357	4	1	1	1	0	763	1	4	0	72	73	0	0	100
fixed	3	7	2	480996	1	2	2	1	0	790	1	4	0	80	74	0	0	100
fixed	3	7	3	482163	6	4	4	1	0	668	1	4	0	96	75	0	0	100
fixed	3	7	4	483262	2	1	1	1	0	926	1	4	0	72	76	0	0	100
fixed	3	7	5	485052	5	3	3	1	0	746	1	4	0	88	77	0	0	100
fixed	3	7	6	486801	6	4	4	1	0	600	1	4	0	96	78	0	0	100
fixed	3	7	7	487727	3	1	1	1	0	921	1	4	0	72	79	0	0	100
fixed	3	7	8	489044	2	3	3	1	0	833	1	4	0	88	80	0	0	100
fixed	3	7	9	490811	3	2	2	1	0	703	1	4	0	80	81	0	0	100
fixed	3	7	10	491896	1	4	4	1	0	593	1	4	0	96	82	0	0	100
fixed	3	7	11	492790	5	2	2	1	0	770	1	4	0	80	83	0	0	100
fixed	3	7	12	494346	4	3	3	1	0	952	1	4	0	88	84	0	0	100
fixed	3	8	1	495898	4	1	1	1	0	679	1	4	0	72	85	0	0	100
fixed	3	8	2	496955	1	2	2	1	0	1114	1	4	0	80	86	0	0	100
fixed	3	8	3	498481	6	4	4	1	0	578	1	4	0	96	87	0	0	100
fixed	3	8	4	499894	2	1	1	1	0	846	1	4	0	72	88	0	0	100
fixed	3	8	5	501250	5	3	3	1	0	652	1	4	0	88	89	0	0	100
fixed	3	8	6	502810	6	4	4	1	0	626	1	4	0	96	90	0	0	100
fixed	3	8	7	504023	3	1	1	1	0	911	1	4	0	72	91	0	0	100
fixed	3	8	8	505651	2	3	3	1	0	1074	1	4	0	88	92	0	0	100
fixed	3	8	9	507383	3	2	2	1	0	712	1	4	0	80	93	0	0	100
fixed	3	8	10	508586	1	4	4	1	0	606	1	4	0	96	94	0	0	100
fixed	3	8	11	510110	5	2	2	1	0	781	1	4	0	80	95	0	0	100
fixed	3	8	12	511192	4	3	3	1	0	711	1	4	0	88	96	0	0	100
fixed	3	9	1	512489	4	1	1	1	0	672	1	4	0	72	97	0	0	100
fixed	3	9	2	513982	1	2	2	1	0	849	1	4	0	80	98	0	0	100
fixed	3	9	3	515164	6	4	4	1	0	623	1	4	0	96	99	0	0	100
fixed	3	9	4	516153	2	1	1	1	0	805	1	4	0	72	100	0	0	100
fixed	3	9	5	517973	5	3	3	1	0	672	1	4	0	88	101	0	0	100
fixed	3	9	6	519019	6	4	4	1	0	683	1	4	0	96	102	0	0	100
fixed	3	9	7	520355	3	1	1	1	0	859	1	4	0	72	103	0	0	100
fixed	3	9	8	521596	2	3	3	1	0	894	1	4	0	88	104	0	0	100
fixed	3	9	9	523122	3	2	2	1	0	670	1	4	0	80	105	0	0	100
fixed	3	9	10	524109	1	4	4	1	0	612	1	4	0	96	106	0	0	100
fixed	3	9	11	525498	5	2	2	1	0	873	1	4	0	80	107	0	0	100
fixed	3	9	12	527244	4	3	3	1	0	727	1	4	0	88	108	0	0	100
fixed	3	10	1	529063	4	1	1	1	0	682	1	4	0	72	109	0	0	100
fixed	3	10	2	530652	1	2	2	1	0	807	1	4	0	80	110	0	0	100
fixed	3	10	3	531790	6	4	4	1	0	655	1	4	0	96	111	0	0	100
fixed	3	10	4	532924	2	1	1	1	0	671	1	4	0	72	112	0	0	100
fixed	3	10	5	534461	5	3	3	1	0	693	1	4	0	88	113	0	0	100
fixed	3	10	6	536149	6	4	4	1	0	606	1	4	0	96	114	0	0	100
fixed	3	10	7	537240	3	1	1	1	0	1184	1	4	0	72	115	0	0	100
fixed	3	10	8	539062	2	3	3	1	0	787	1	4	0	88	116	0	0	100
fixed	3	10	9	540227	3	2	2	1	0	657	1	4	0	80	117	0	0	100
fixed	3	10	10	541672	1	4	4	1	0	532	1	4	0	96	118	0	0	100
fixed	3	10	11	542784	5	2	2	1	0	877	1	4	0	80	119	0	0	100
fixed	3	10	12	544452	4	3	3	1	0	894	1	4	0	88	120	0	0	100
fixed	4	1	1	694049	4	1	1	1	0	894	1	4	0	104	1	0	0	100
fixed	4	1	2	695790	1	2	2	1	0	892	1	4	0	112	2	0	0	100
fixed	4	1	3	697705	6	4	4	1	0	628	1	4	0	128	3	0	0	100
fixed	4	1	4	698773	2	1	1	1	0	830	1	4	0	104	4	0	0	100
fixed	4	1	5	700335	5	3	3	2	0	804	2	4	0	120	5	0	0	100
fixed	4	1	6	702159	6	4	4	1	0	671	1	4	0	128	6	0	0	100
fixed	4	1	7	703253	3	1	1	1	0	1177	1	4	0	104	7	0	0	100
fixed	4	1	8	705040	2	3	3	1	0	917	1	4	0	120	8	0	0	100
fixed	4	1	9	706953	3	2	2	1	0	748	1	4	0	112	9	0	0	100
fixed	4	1	10	708702	1	4	4	1	0	481	1	4	0	128	10	0	0	100
fixed	4	1	11	709786	5	2	2	1	0	908	1	4	0	112	11	0	0	100
fixed	4	1	12	711484	4	3	3	1	0	948	1	4	0	120	12	0	0	100
fixed	4	2	1	713582	4	1	1	1	0	747	1	4	0	104	13	0	0	100
fixed	4	2	2	714977	1	2	2	1	0	1008	1	4	0	112	14	0	0	100
fixed	4	2	3	716946	6	4	4	1	0	660	1	4	0	128	15	0	0	100
fixed	4	2	4	718327	2	1	1	1	0	874	1	4	0	104	16	0	0	100
fixed	4	2	5	719738	5	3	3	1	0	958	1	4	0	120	17	0	0	100
fixed	4	2	6	721326	6	4	4	1	0	699	1	4	0	128	18	0	0	100
fixed	4	2	7	722478	3	1	1	1	0	682	1	4	0	104	19	0	0	100
fixed	4	2	8	724047	2	3	3	1	0	1336	1	4	0	120	20	0	0	100
fixed	4	2	9	726063	3	2	2	1	0	842	1	4	0	112	21	0	0	100
fixed	4	2	10	727752	1	4	4	1	0	707	1	4	0	128	22	0	0	100
fixed	4	2	11	729490	5	2	2	1	0	993	1	4	0	112	23	0	0	100
fixed	4	2	12	730844	4	3	3	1	0	824	1	4	0	120	24	0	0	100
fixed	4	3	1	732946	4	1	1	1	0	687	1	4	0	104	25	0	0	100
fixed	4	3	2	734179	1	2	2	1	0	979	1	4	0	112	26	0	0	100
fixed	4	3	3	735610	6	4	4	1	0	502	1	4	0	128	27	0	0	100
fixed	4	3	4	736482	2	1	1	1	0	865	1	4	0	104	28	0	0	100
fixed	4	3	5	738297	5	3	3	1	0	740	1	4	0	120	29	0	0	100
fixed	4	3	6	739740	6	4	4	1	0	663	1	4	0	128	30	0	0	100
fixed	4	3	7	741425	3	1	1	1	0	1080	1	4	0	104	31	0	0	100
fixed	4	3	8	743036	2	3	3	1	0	739	1	4	0	120	32	0	0	100
fixed	4	3	9	744713	3	2	2	1	0	604	1	4	0	112	33	0	0	100
fixed	4	3	10	746222	1	4	4	1	0	445	1	4	0	128	34	0	0	100
fixed	4	3	11	747419	5	2	2	1	0	922	1	4	0	112	35	0	0	100
fixed	4	3	12	748933	4	3	3	1	0	721	1	4	0	120	36	0	0	100
fixed	4	4	1	750623	4	1	1	1	0	506	1	4	0	104	37	0	0	100
fixed	4	4	2	751922	1	2	2	1	0	899	1	4	0	112	38	0	0	100
fixed	4	4	3	753239	6	4	4	1	0	619	1	4	0	128	39	0	0	100
fixed	4	4	4	754343	2	1	1	1	0	677	1	4	0	104	40	0	0	100
fixed	4	4	5	755929	5	3	3	1	0	690	1	4	0	120	41	0	0	100
fixed	4	4	6	757339	6	4	4	1	0	653	1	4	0	128	42	0	0	100
fixed	4	4	7	758562	3	1	1	1	0	842	1	4	0	104	43	0	0	100
fixed	4	4	8	760130	2	3	3	1	0	767	1	4	0	120	44	0	0	100
fixed	4	4	9	761655	3	2	2	1	0	511	1	4	0	112	45	0	0	100
fixed	4	4	10	763189	1	4	4	1	0	366	1	4	0	128	46	0	0	100
fixed	4	4	11	764009	5	2	2	1	0	827	1	4	0	112	47	0	0	100
fixed	4	4	12	765554	4	3	3	1	0	754	1	4	0	120	48	0	0	100
fixed	4	5	1	767130	4	1	1	1	0	599	1	4	0	104	49	0	0	100
fixed	4	5	2	768397	1	2	2	2	0	1137	2	4	0	112	50	0	0	100
fixed	4	5	3	769888	6	4	4	1	0	530	1	4	0	128	51	0	0	100
fixed	4	5	4	770872	2	1	1	1	0	960	1	4	0	104	52	0	0	100
fixed	4	5	5	772612	5	3	3	1	0	719	1	4	0	120	53	0	0	100
fixed	4	5	6	773691	6	4	4	1	0	737	1	4	0	128	54	0	0	100
fixed	4	5	7	774749	3	1	1	1	0	716	1	4	0	104	55	0	0	100
fixed	4	5	8	776367	2	3	3	1	0	887	1	4	0	120	56	0	0	100
fixed	4	5	9	778280	3	2	2	1	0	735	1	4	0	112	57	0	0	100
fixed	4	5	10	779372	1	4	4	1	0	609	1	4	0	128	58	0	0	100
fixed	4	5	11	780908	5	2	2	1	0	920	1	4	0	112	59	0	0	100
fixed	4	5	12	782840	4	3	3	1	0	742	1	4	0	120	60	0	0	100
fixed	4	6	1	784439	4	1	1	1	0	714	1	4	0	104	61	0	0	100
fixed	4	6	2	785766	1	2	2	1	0	834	1	4	0	112	62	0	0	100
fixed	4	6	3	787179	6	4	4	1	0	454	1	4	0	128	63	0	0	100
fixed	4	6	4	788032	2	1	1	2	0	1129	2	4	0	104	64	0	0	100
fixed	4	6	5	790017	5	3	3	1	0	805	1	4	0	120	65	0	0	100
fixed	4	6	6	791582	6	4	4	1	0	683	1	4	0	128	66	0	0	100
fixed	4	6	7	792890	3	1	1	1	0	1132	1	4	0	104	67	0	0	100
fixed	4	6	8	794691	2	3	3	1	0	816	1	4	0	120	68	0	0	100
fixed	4	6	9	796107	3	2	2	1	0	532	1	4	0	112	69	0	0	100
fixed	4	6	10	797454	1	4	4	1	0	666	1	4	0	128	70	0	0	100
fixed	4	6	11	798981	5	2	0	0	2	0	3	4	0	112	70	0	1	99
fixed	4	6	12	802496	4	3	3	1	0	877	1	4	0	120	71	0	1	99
fixed	4	7	1	804288	4	1	1	1	0	841	1	4	0	104	72	0	1	99
fixed	4	7	2	805901	1	2	2	1	0	1069	1	4	0	112	73	0	1	99
fixed	4	7	3	807899	6	4	4	1	0	672	1	4	0	128	74	0	1	99
fixed	4	7	4	808978	2	1	1	1	0	915	1	4	0	104	75	0	1	99
fixed	4	7	5	810916	5	3	3	1	0	953	1	4	0	120	76	0	1	99
fixed	4	7	6	812783	6	4	4	1	0	625	1	4	0	128	77	0	1	99
fixed	4	7	7	814426	3	1	1	1	0	764	1	4	0	104	78	0	1	99
fixed	4	7	8	815775	2	3	3	1	0	1059	1	4	0	120	79	0	1	99
fixed	4	7	9	817709	3	2	2	1	0	657	1	4	0	112	80	0	1	99
fixed	4	7	10	818881	1	4	4	1	0	615	1	4	0	128	81	0	1	99
fixed	4	7	11	819898	5	2	2	1	0	852	1	4	0	112	82	0	1	99
fixed	4	7	12	821543	4	3	3	1	0	767	1	4	0	120	83	0	1	99
fixed	4	8	1	823334	4	1	1	1	0	690	1	4	0	104	84	0	1	99
fixed	4	8	2	824362	1	2	2	1	0	951	1	4	0	112	85	0	1	99
fixed	4	8	3	826145	6	4	4	1	0	643	1	4	0	128	86	0	1	99
fixed	4	8	4	827519	2	1	1	1	0	753	1	4	0	104	87	0	1	99
fixed	4	8	5	828998	5	3	3	1	0	730	1	4	0	120	88	0	1	99
fixed	4	8	6	830034	6	4	4	1	0	630	1	4	0	128	89	0	1	99
fixed	4	8	7	831411	3	1	1	1	0	852	1	4	0	104	90	0	1	99
fixed	4	8	8	833221	2	3	3	1	0	824	1	4	0	120	91	0	1	99
fixed	4	8	9	834693	3	2	2	1	0	625	1	4	0	112	92	0	1	99
fixed	4	8	10	836147	1	4	4	1	0	651	1	4	0	128	93	0	1	99
fixed	4	8	11	837605	5	2	2	1	0	886	1	4	0	112	94	0	1	99
fixed	4	8	12	839274	4	3	3	1	0	687	1	4	0	120	95	0	1	99
fixed	4	9	1	840610	4	1	1	1	0	742	1	4	0	104	96	0	1	99
fixed	4	9	2	841931	1	2	2	1	0	919	1	4	0	112	97	0	1	99
fixed	4	9	3	843845	6	4	4	1	0	638	1	4	0	128	98	0	1	99
fixed	4	9	4	844845	2	1	1	1	0	811	1	4	0	104	99	0	1	99
fixed	4	9	5	846560	5	3	3	1	0	827	1	4	0	120	100	0	1	99
fixed	4	9	6	847789	6	4	4	1	0	759	1	4	0	128	101	0	1	99
fixed	4	9	7	849289	3	1	1	1	0	671	1	4	0	104	102	0	1	99
fixed	4	9	8	850270	2	3	3	1	0	677	1	4	0	120	103	0	1	99
fixed	4	9	9	851778	3	2	2	1	0	622	1	4	0	112	104	0	1	99
fixed	4	9	10	852953	1	4	4	1	0	388	1	4	0	128	105	0	1	99
fixed	4	9	11	853806	5	2	2	1	0	1007	1	4	0	112	106	0	1	99
fixed	4	9	12	855491	4	3	3	1	0	833	1	4	0	120	107	0	1	99
fixed	4	10	1	857218	4	1	1	2	0	1071	2	4	0	104	108	0	1	99
fixed	4	10	2	858923	1	2	2	2	0	2279	2	4	0	112	109	0	1	99
fixed	4	10	3	861912	6	4	4	1	0	704	1	4	0	128	110	0	1	99
fixed	4	10	4	863422	2	1	1	1	0	793	1	4	0	104	111	0	1	99
fixed	4	10	5	864766	5	3	3	1	0	776	1	4	0	120	112	0	1	99
fixed	4	10	6	866318	6	4	4	1	0	630	1	4	0	128	113	0	1	99
fixed	4	10	7	867844	3	1	1	1	0	757	1	4	0	104	114	0	1	99
fixed	4	10	8	869280	2	3	3	1	0	696	1	4	0	120	115	0	1	99
fixed	4	10	9	870516	3	2	2	1	0	692	1	4	0	112	116	0	1	99
fixed	4	10	10	871654	1	4	4	1	0	620	1	4	0	128	117	0	1	99
fixed	4	10	11	872775	5	2	2	1	0	812	1	4	0	112	118	0	1	99
fixed	4	10	12	874312	4	3	3	1	0	1203	1	4	0	120	119	0	1	99
fixed	5	1	1	876697	4	1	1	1	0	502	1	4	0	136	1	0	0	100
fixed	5	1	2	877654	1	2	2	1	0	806	1	4	0	144	2	0	0	100
fixed	5	1	3	879013	6	4	4	1	0	652	1	4	0	160	3	0	0	100
fixed	5	1	4	880385	2	1	1	1	0	746	1	4	0	136	4	0	0	100
fixed	5	1	5	881654	5	3	3	1	0	908	1	4	0	152	5	0	0	100
fixed	5	1	6	882873	6	4	4	1	0	681	1	4	0	160	6	0	0	100
fixed	5	1	7	884522	3	1	1	1	0	747	1	4	0	136	7	0	0	100
fixed	5	1	8	885944	2	3	3	1	0	783	1	4	0	152	8	0	0	100
fixed	5	1	9	887628	3	2	2	1	0	823	1	4	0	144	9	0	0	100
fixed	5	1	10	888764	1	4	4	1	0	591	1	4	0	160	10	0	0	100
fixed	5	1	11	889650	5	2	2	1	0	890	1	4	0	144	11	0	0	100
fixed	5	1	12	891259	4	3	3	1	0	846	1	4	0	152	12	0	0	100
fixed	5	2	1	893005	4	1	1	1	0	1139	1	4	0	136	13	0	0	100
fixed	5	2	2	894538	1	2	2	1	0	1051	1	4	0	144	14	0	0	100
fixed	5	2	3	896053	6	4	4	1	0	562	1	4	0	160	15	0	0	100
fixed	5	2	4	897605	2	1	1	1	0	1009	1	4	0	136	16	0	0	100
fixed	5	2	5	898970	5	3	3	1	0	775	1	4	0	152	17	0	0	100
fixed	5	2	6	900340	6	4	4	1	0	589	1	4	0	160	18	0	0	100
fixed	5	2	7	901824	3	1	1	1	0	742	1	4	0	136	19	0	0	100
fixed	5	2	8	903596	2	3	3	1	0	707	1	4	0	152	20	0	0	100
fixed	5	2	9	904988	3	2	2	1	0	624	1	4	0	144	21	0	0	100
fixed	5	2	10	906642	1	4	4	1	0	530	1	4	0	160	22	0	0	100
fixed	5	2	11	907834	5	2	2	1	0	912	1	4	0	144	23	0	0	100
fixed	5	2	12	909506	4	3	3	1	0	769	1	4	0	152	24	0	0	100
fixed	5	3	1	911568	4	1	1	1	0	937	1	4	0	136	25	0	0	100
fixed	5	3	2	913077	1	2	2	1	0	753	1	4	0	144	26	0	0	100
fixed	5	3	3	914649	6	4	4	1	0	695	1	4	0	160	27	0	0	100
fixed	5	3	4	916097	2	1	1	1	0	737	1	4	0	136	28	0	0	100
fixed	5	3	5	917249	5	3	3	1	0	928	1	4	0	152	29	0	0	100
fixed	5	3	6	918651	6	4	4	1	0	669	1	4	0	160	30	0	0	100
fixed	5	3	7	920180	3	1	1	1	0	845	1	4	0	136	31	0	0	100
fixed	5	3	8	921580	2	3	3	1	0	889	1	4	0	152	32	0	0	100
fixed	5	3	9	923168	3	2	2	1	0	494	1	4	0	144	33	0	0	100
fixed	5	3	10	924466	1	4	4	1	0	399	1	4	0	160	34	0	0	100
fixed	5	3	11	925789	5	2	2	1	0	879	1	4	0	144	35	0	0	100
fixed	5	3	12	927276	4	3	3	1	0	944	1	4	0	152	36	0	0	100
fixed	5	4	1	929278	4	1	1	1	0	723	1	4	0	136	37	0	0	100
fixed	5	4	2	930391	1	2	2	1	0	1164	1	4	0	144	38	0	0	100
fixed	5	4	3	932313	6	4	4	1	0	691	1	4	0	160	39	0	0	100
fixed	5	4	4	933419	2	1	1	1	0	763	1	4	0	136	40	0	0	100
fixed	5	4	5	934951	5	3	3	1	0	787	1	4	0	152	41	0	0	100
fixed	5	4	6	936532	6	4	4	1	0	616	1	4	0	160	42	0	0	100
fixed	5	4	7	937612	3	1	1	2	0	1074	2	4	0	136	43	0	0	100
fixed	5	4	8	939166	2	3	3	1	0	736	1	4	0	152	44	0	0	100
fixed	5	4	9	940640	3	2	2	1	0	722	1	4	0	144	45	0	0	100
fixed	5	4	10	941854	1	4	4	1	0	743	1	4	0	160	46	0	0	100
fixed	5	4	11	943064	5	2	2	1	0	931	1	4	0	144	47	0	0	100
fixed	5	4	12	944630	4	3	3	1	0	705	1	4	0	152	48	0	0	100
fixed	5	5	1	946403	4	1	1	1	0	758	1	4	0	136	49	0	0	100
fixed	5	5	2	947842	1	2	2	1	0	857	1	4	0	144	50	0	0	100
fixed	5	5	3	949197	6	4	4	1	0	623	1	4	0	160	51	0	0	100
fixed	5	5	4	950464	2	1	1	1	0	962	1	4	0	136	52	0	0	100
fixed	5	5	5	952367	5	3	3	1	0	705	1	4	0	152	53	0	0	100
fixed	5	5	6	953415	6	4	4	1	0	669	1	4	0	160	54	0	0	100
fixed	5	5	7	954517	3	1	1	1	0	1030	1	4	0	136	55	0	0	100
fixed	5	5	8	956103	2	3	3	1	0	787	1	4	0	152	56	0	0	100
fixed	5	5	9	957647	3	2	2	1	0	737	1	4	0	144	57	0	0	100
fixed	5	5	10	959026	1	4	4	1	0	399	1	4	0	160	58	0	0	100
fixed	5	5	11	960137	5	2	2	1	0	808	1	4	0	144	59	0	0	100
fixed	5	5	12	961281	4	3	3	1	0	800	1	4	0	152	60	0	0	100
fixed	5	6	1	963278	4	1	1	1	0	691	1	4	0	136	61	0	0	100
fixed	5	6	2	964601	1	2	2	1	0	811	1	4	0	144	62	0	0	100
fixed	5	6	3	965799	6	4	4	1	0	624	1	4	0	160	63	0	0	100
fixed	5	6	4	967187	2	1	1	1	0	709	1	4	0	136	64	0	0	100
fixed	5	6	5	968450	5	3	3	1	0	672	1	4	0	152	65	0	0	100
fixed	5	6	6	969560	6	4	4	1	0	689	1	4	0	160	66	0	0	100
fixed	5	6	7	971074	3	1	1	1	0	721	1	4	0	136	67	0	0	100
fixed	5	6	8	972349	2	3	3	1	0	827	1	4	0	152	68	0	0	100
fixed	5	6	9	974083	3	2	2	1	0	650	1	4	0	144	69	0	0	100
fixed	5	6	10	975395	1	4	4	1	0	586	1	4	0	160	70	0	0	100
fixed	5	6	11	976491	5	2	2	1	0	659	1	4	0	144	71	0	0	100
fixed	5	6	12	977799	4	3	3	1	0	820	1	4	0	152	72	0	0	100
fixed	5	7	1	979518	4	1	1	1	0	683	1	4	0	136	73	0	0	100
fixed	5	7	2	980822	1	2	2	1	0	700	1	4	0	144	74	0	0	100
fixed	5	7	3	982470	6	4	4	1	0	671	1	4	0	160	75	0	0	100
fixed	5	7	4	983755	2	1	1	1	0	696	1	4	0	136	76	0	0	100
fixed	5	7	5	985279	5	3	3	1	0	655	1	4	0	152	77	0	0	100
fixed	5	7	6	986711	6	4	4	1	0	707	1	4	0	160	78	0	0	100
fixed	5	7	7	988093	3	1	1	1	0	1040	1	4	0	136	79	0	0	100
fixed	5	7	8	989885	2	3	3	1	0	868	1	4	0	152	80	0	0	100
fixed	5	7	9	991128	3	2	2	1	0	863	1	4	0	144	81	0	0	100
fixed	5	7	10	992510	1	4	4	1	0	509	1	4	0	160	82	0	0	100
fixed	5	7	11	993635	5	2	2	1	0	1037	1	4	0	144	83	0	0	100
fixed	5	7	12	995496	4	3	3	1	0	639	1	4	0	152	84	0	0	100
fixed	5	8	1	997328	4	1	1	1	0	585	1	4	0	136	85	0	0	100
fixed	5	8	2	998475	1	2	2	1	0	761	1	4	0	144	86	0	0	100
fixed	5	8	3	1000071	6	4	4	1	0	645	1	4	0	160	87	0	0	100
fixed	5	8	4	1001104	2	1	1	1	0	793	1	4	0	136	88	0	0	100
fixed	5	8	5	1002723	5	3	3	2	0	973	2	4	0	152	89	0	0	100
fixed	5	8	6	1004319	6	4	4	1	0	657	1	4	0	160	90	0	0	100
fixed	5	8	7	1005787	3	1	1	1	0	1083	1	4	0	136	91	0	0	100
fixed	5	8	8	1007186	2	3	3	1	0	847	1	4	0	152	92	0	0	100
fixed	5	8	9	1008660	3	2	2	1	0	553	1	4	0	144	93	0	0	100
fixed	5	8	10	1009798	1	4	4	1	0	417	1	4	0	160	94	0	0	100
fixed	5	8	11	1011223	5	2	2	1	0	885	1	4	0	144	95	0	0	100
fixed	5	8	12	1013027	4	3	3	1	0	560	1	4	0	152	96	0	0	100
fixed	5	9	1	1014655	4	1	1	1	0	731	1	4	0	136	97	0	0	100
fixed	5	9	2	1016259	1	2	2	1	0	919	1	4	0	144	98	0	0	100
fixed	5	9	3	1018013	6	4	4	1	0	605	1	4	0	160	99	0	0	100
fixed	5	9	4	1019329	2	1	1	1	0	789	1	4	0	136	100	0	0	100
fixed	5	9	5	1021046	5	3	3	1	0	661	1	4	0	152	101	0	0	100
fixed	5	9	6	1022019	6	4	4	1	0	644	1	4	0	160	102	0	0	100
fixed	5	9	7	1023023	3	1	1	1	0	1000	1	4	0	136	103	0	0	100
fixed	5	9	8	1024846	2	3	3	1	0	1771	1	4	0	152	104	0	0	100
fixed	5	9	9	1027357	3	2	2	1	0	569	1	4	0	144	105	0	0	100
fixed	5	9	10	1028432	1	4	4	1	0	444	1	4	0	160	106	0	0	100
fixed	5	9	11	1029523	5	2	2	1	0	1245	1	4	0	144	107	0	0	100
fixed	5	9	12	1031281	4	3	3	1	0	611	1	4	0	152	108	0	0	100
fixed	5	10	1	1032648	4	1	1	1	0	657	1	4	0	136	109	0	0	100
fixed	5	10	2	1034289	1	2	2	1	0	723	1	4	0	144	110	0	0	100
fixed	5	10	3	1036031	6	4	4	1	0	570	1	4	0	160	111	0	0	100
fixed	5	10	4	1037265	2	1	1	1	0	773	1	4	0	136	112	0	0	100
fixed	5	10	5	1038672	5	3	3	1	0	858	1	4	0	152	113	0	0	100
fixed	5	10	6	1040014	6	4	4	1	0	705	1	4	0	160	114	0	0	100
fixed	5	10	7	1041565	3	1	1	1	0	1056	1	4	0	136	115	0	0	100
fixed	5	10	8	1043260	2	3	3	1	0	879	1	4	0	152	116	0	0	100
fixed	5	10	9	1044659	3	2	2	1	0	740	1	4	0	144	117	0	0	100
fixed	5	10	10	1045790	1	4	4	1	0	429	1	4	0	160	118	0	0	100
fixed	5	10	11	1047131	5	2	2	1	0	868	1	4	0	144	119	0	0	100
fixed	5	10	12	1048480	4	3	3	1	0	859	1	4	0	152	120	0	0	100
random	6	1	1	1204668	6	1	1	1	0	891	1	4	0	168	1	0	0	100
random	6	1	2	1205880	4	4	4	1	0	656	1	4	0	192	2	0	0	100
random	6	1	3	1207268	2	2	2	1	0	797	1	4	0	176	3	0	0	100
random	6	1	4	1208882	3	3	3	1	0	472	1	4	0	184	4	0	0	100
random	6	1	5	1209775	5	2	2	1	0	851	1	4	0	176	5	0	0	100
random	6	1	6	1211262	1	4	4	1	0	476	1	4	0	192	6	0	0	100
random	6	1	7	1212381	6	1	1	1	0	789	1	4	0	168	7	0	0	100
random	6	1	8	1213528	2	3	3	1	0	828	1	4	0	184	8	0	0	100
random	6	1	9	1215180	4	2	2	1	0	638	1	4	0	176	9	0	0	100
random	6	1	10	1216709	1	1	1	1	0	765	1	4	0	168	10	0	0	100
random	6	1	11	1217829	5	4	4	1	0	590	1	4	0	192	11	0	0	100
random	6	1	12	1219404	3	3	3	1	0	859	1	4	0	184	12	0	0	100
random	6	1	13	1220976	5	2	2	1	0	800	1	4	0	176	13	0	0	100
random	6	1	14	1222788	1	4	4	1	0	628	1	4	0	192	14	0	0	100
random	6	1	15	1224189	3	1	1	1	0	1152	1	4	0	168	15	0	0	100
random	6	1	16	1225819	4	3	3	1	0	659	1	4	0	184	16	0	0	100
random	6	1	17	1227468	6	4	4	1	0	566	1	4	0	192	17	0	0	100
random	6	1	18	1229002	2	1	1	1	0	861	1	4	0	168	18	0	0	100
random	6	1	19	1230458	5	3	3	1	0	839	1	4	0	184	19	0	0	100
random	6	1	20	1231932	2	2	2	1	0	625	1	4	0	176	20	0	0	100
random	6	1	21	1233441	3	3	3	1	0	832	1	4	0	184	21	0	0	100
random	6	1	22	1234730	6	1	1	1	0	658	1	4	0	168	22	0	0	100
random	6	1	23	1236291	4	2	2	1	0	928	1	4	0	176	23	0	0	100
random	6	1	24	1237921	1	4	4	1	0	563	1	4	0	192	24	0	0	100
random	6	1	25	1239388	4	3	3	1	0	1004	1	4	0	184	25	0	0	100
random	6	1	26	1241438	2	1	1	1	0	894	1	4	0	168	26	0	0	100
random	6	1	27	1242759	5	2	2	1	0	1022	1	4	0	176	27	0	0	100
random	6	1	28	1244624	6	4	4	1	0	631	1	4	0	192	28	0	0	100
random	6	1	29	1245988	1	3	3	1	0	469	1	4	0	184	29	0	0	100
random	6	1	30	1247102	5	2	2	1	0	702	1	4	0	176	30	0	0	100
random	6	1	31	1248539	2	1	1	1	0	569	1	4	0	168	31	0	0	100
random	6	1	32	1250012	3	3	3	1	0	826	1	4	0	184	32	0	0	100
random	6	1	33	1251584	6	4	4	1	0	368	1	4	0	192	33	0	0	100
random	6	1	34	1252529	4	2	2	1	0	720	1	4	0	176	34	0	0	100
random	6	1	35	1254063	3	4	4	1	0	623	1	4	0	192	35	0	0	100
random	6	1	36	1255435	1	1	1	1	0	1029	1	4	0	168	36	0	0	100
random	6	1	37	1257550	3	4	4	1	0	635	1	4	0	192	37	0	0	100
random	6	1	38	1258639	5	3	3	1	0	1117	1	4	0	184	38	0	0	100
random	6	1	39	1260310	6	1	1	1	0	814	1	4	0	168	39	0	0	100
random	6	1	40	1261497	1	2	2	1	0	1204	1	4	0	176	40	0	0	100
random	6	1	41	1263113	2	3	3	1	0	703	1	4	0	184	41	0	0	100
random	6	1	42	1264692	4	4	4	1	0	373	1	4	0	192	42	0	0	100
random	6	1	43	1265752	1	2	2	1	0	904	1	4	0	176	43	0	0	100
random	6	1	44	1267159	6	3	3	1	0	708	1	4	0	184	44	0	0	100
random	6	1	45	1268771	3	1	1	1	0	696	1	4	0	168	45	0	0	100
random	6	1	46	1270387	4	4	4	1	0	684	1	4	0	192	46	0	0	100
random	6	1	47	1272005	2	2	2	1	0	671	1	4	0	176	47	0	0	100
random	6	1	48	1273105	5	1	1	1	0	888	1	4	0	168	48	0	0	100
random	6	1	49	1275159	2	3	3	1	0	1009	1	4	0	184	49	0	0	100
random	6	1	50	1277014	3	1	1	1	0	723	1	4	0	168	50	0	0	100
random	6	1	51	1278370	1	4	4	1	0	665	1	4	0	192	51	0	0	100
random	6	1	52	1279706	5	3	3	1	0	897	1	4	0	184	52	0	0	100
random	6	1	53	1281589	3	2	2	1	0	433	1	4	0	176	53	0	0	100
random	6	1	54	1282786	6	4	4	1	0	575	1	4	0	192	54	0	0	100
random	6	1	55	1284006	4	2	2	1	0	891	1	4	0	176	55	0	0	100
random	6	1	56	1285881	1	1	1	1	0	492	1	4	0	168	56	0	0	100
random	6	1	57	1286756	5	4	4	1	0	614	1	4	0	192	57	0	0	100
random	6	1	58	1287676	2	1	1	2	0	1063	2	4	0	168	58	0	0	100
random	6	1	59	1289675	6	2	2	1	0	867	1	4	0	176	59	0	0	100
random	6	1	60	1290865	4	3	3	1	0	592	1	4	0	184	60	0	0	100
random	6	1	61	1292719	1	2	2	1	0	1026	1	4	0	176	61	0	0	100
random	6	1	62	1294757	6	4	4	1	0	595	1	4	0	192	62	0	0	100
random	6	1	63	1296029	4	1	1	1	0	597	1	4	0	168	63	0	0	100
random	6	1	64	1297649	2	2	2	1	0	793	1	4	0	176	64	0	0	100
random	6	1	65	1298890	4	3	3	1	0	700	1	4	0	184	65	0	0	100
random	6	1	66	1300350	3	1	1	1	0	695	1	4	0	168	66	0	0	100
random	6	1	67	1301466	1	3	3	1	0	735	1	4	0	184	67	0	0	100
random	6	1	68	1302710	5	4	4	1	0	514	1	4	0	192	68	0	0	100
random	6	1	69	1303613	2	2	2	1	0	1124	1	4	0	176	69	0	0	100
random	6	1	70	1305112	3	1	1	1	0	805	1	4	0	168	70	0	0	100
random	6	1	71	1306616	5	4	4	1	0	669	1	4	0	192	71	0	0	100
random	6	1	72	1307841	6	3	3	1	0	913	1	4	0	184	72	0	0	100
random	6	1	73	1309661	2	1	1	1	0	876	1	4	0	168	73	0	0	100
random	6	1	74	1311161	5	3	3	1	0	725	1	4	0	184	74	0	0	100
random	6	1	75	1312427	1	4	4	1	0	607	1	4	0	192	75	0	0	100
random	6	1	76	1313485	6	2	2	1	0	890	1	4	0	176	76	0	0	100
random	6	1	77	1315048	2	1	1	1	0	824	1	4	0	168	77	0	0	100
random	6	1	78	1316642	4	4	4	1	0	676	1	4	0	192	78	0	0	100
random	6	1	79	1317657	3	2	2	1	0	962	1	4	0	176	79	0	0	100
random	6	1	80	1319143	4	3	3	1	0	787	1	4	0	184	80	0	0	100
random	6	1	81	1320318	1	4	4	1	0	561	1	4	0	192	81	0	0	100
random	6	1	82	1321766	5	1	1	1	0	741	1	4	0	168	82	0	0	100
random	6	1	83	1322980	3	2	2	1	0	768	1	4	0	176	83	0	0	100
random	6	1	84	1324773	6	3	3	1	0	732	1	4	0	184	84	0	0	100
random	6	1	85	1326218	3	2	2	1	0	1071	1	4	0	176	85	0	0	100
random	6	1	86	1328271	1	3	3	1	0	872	1	4	0	184	86	0	0	100
random	6	1	87	1329727	4	4	4	1	0	922	1	4	0	192	87	0	0	100
random	6	1	88	1331279	2	1	1	1	0	640	1	4	0	168	88	0	0	100
random	6	1	89	1332874	6	4	4	1	0	677	1	4	0	192	89	0	0	100
random	6	1	90	1334439	3	3	3	1	0	763	1	4	0	184	90	0	0	100
random	6	1	91	1336046	5	4	4	1	0	639	1	4	0	192	91	0	0	100
random	6	1	92	1337720	1	2	2	1	0	744	1	4	0	176	92	0	0	100
random	6	1	93	1339350	5	1	1	1	0	474	1	4	0	168	93	0	0	100
random	6	1	94	1340327	4	3	3	1	0	737	1	4	0	184	94	0	0	100
random	6	1	95	1341977	6	1	1	1	0	827	1	4	0	168	95	0	0	100
random	6	1	96	1343125	2	2	2	1	0	955	1	4	0	176	96	0	0	100
random	6	1	97	1345081	4	3	3	1	0	1016	1	4	0	184	97	0	0	100
random	6	1	98	1346701	3	2	2	1	0	659	1	4	0	176	98	0	0	100
random	6	1	99	1347793	6	3	3	1	0	1037	1	4	0	184	99	0	0	100
random	6	1	100	1349342	1	4	4	1	0	547	1	4	0	192	100	0	0	100
random	6	1	101	1350606	4	1	1	1	0	342	1	4	0	168	101	0	0	100
random	6	1	102	1351346	5	2	2	1	0	822	1	4	0	176	102	0	0	100
random	6	1	103	1352870	2	4	4	1	0	654	1	4	0	192	103	0	0	100
random	6	1	104	1354283	3	1	1	1	0	851	1	4	0	168	104	0	0	100
random	6	1	105	1356013	1	3	3	1	0	657	1	4	0	184	105	0	0	100
random	6	1	106	1357225	2	2	2	1	0	861	1	4	0	176	106	0	0	100
random	6	1	107	1358645	5	4	4	2	0	1112	2	4	0	192	107	0	0	100
random	6	1	108	1360115	6	1	1	2	0	1844	2	4	0	168	108	0	0	100
random	6	1	109	1363092	5	4	4	1	0	677	1	4	0	192	109	0	0	100
random	6	1	110	1364639	6	3	3	1	0	1236	1	4	0	184	110	0	0	100
random	6	1	111	1366503	2	2	2	1	0	797	1	4	0	176	111	0	0	100
random	6	1	112	1367969	3	1	1	1	0	534	1	4	0	168	112	0	0	100
random	6	1	113	1369120	1	2	2	1	0	966	1	4	0	176	113	0	0	100
random	6	1	114	1371016	2	3	3	1	0	805	1	4	0	184	114	0	0	100
random	6	1	115	1372189	3	1	1	1	0	716	1	4	0	168	115	0	0	100
random	6	1	116	1373794	4	4	4	1	0	624	1	4	0	192	116	0	0	100
random	6	1	117	1375078	6	1	1	1	0	946	1	4	0	168	117	0	0	100
random	6	1	118	1376942	5	3	3	1	0	1298	1	4	0	184	118	0	0	100
random	6	1	119	1378750	1	4	4	1	0	670	1	4	0	192	119	0	0	100
random	6	1	120	1379974	4	2	2	1	0	786	1	4	0	176	120	0	0	100
fixed	7	1	1	1381585	4	1	1	1	0	694	1	4	0	200	1	0	0	100
fixed	7	1	2	1383181	1	2	2	1	0	826	1	4	0	208	2	0	0	100
fixed	7	1	3	1384908	6	4	4	1	0	689	1	4	0	224	3	0	0	100
fixed	7	1	4	1386527	2	1	1	1	0	789	1	4	0	200	4	0	0	100
fixed	7	1	5	1387775	5	3	3	1	0	1088	1	4	0	216	5	0	0	100
fixed	7	1	6	1389698	6	4	4	1	0	630	1	4	0	224	6	0	0	100
fixed	7	1	7	1391177	3	1	1	1	0	767	1	4	0	200	7	0	0	100
fixed	7	1	8	1392886	2	3	3	1	0	1199	1	4	0	216	8	0	0	100
fixed	7	1	9	1394463	3	2	2	1	0	693	1	4	0	208	9	0	0	100
fixed	7	1	10	1395691	1	4	4	1	0	608	1	4	0	224	10	0	0	100
fixed	7	1	11	1396907	5	2	2	1	0	901	1	4	0	208	11	0	0	100
fixed	7	1	12	1398425	4	3	3	1	0	821	1	4	0	216	12	0	0	100
fixed	7	2	1	1400467	4	1	1	1	0	934	1	4	0	200	1	0	0	8
fixed	7	2	2	1402209	1	2	2	2	0	1356	2	4	0	208	2	0	0	14
fixed	7	2	3	1404483	6	4	4	1	0	596	1	4	0	224	3	0	0	20
fixed	7	2	4	1405470	2	1	1	1	0	834	1	4	0	200	4	0	0	25
fixed	7	2	5	1407082	5	3	3	1	0	694	1	4	0	216	5	0	0	29
fixed	7	2	6	1408079	6	4	4	1	0	644	1	4	0	224	6	0	0	33
fixed	7	2	7	1409623	3	1	1	1	0	722	1	4	0	200	7	0	0	37
fixed	7	2	8	1410671	2	3	3	1	0	782	1	4	0	216	8	0	0	40
fixed	7	2	9	1411835	3	2	2	1	0	613	1	4	0	208	9	0	0	43
fixed	7	2	10	1412777	1	4	4	1	0	541	1	4	0	224	10	0	0	45
fixed	7	2	11	1413652	5	2	2	1	0	960	1	4	0	208	11	0	0	48
fixed	7	2	12	1415188	4	3	3	1	0	638	1	4	0	216	12	0	0	50
fixed	7	3	1	1416657	4	1	1	1	0	592	1	4	0	200	1	0	0	4
fixed	7	3	2	1417928	1	2	2	1	0	754	1	4	0	208	2	0	0	8
fixed	7	3	3	1419294	6	4	4	1	0	688	1	4	0	224	3	0	0	11
fixed	7	3	4	1420917	2	1	1	1	0	692	1	4	0	200	4	0	0	14
fixed	7	3	5	1422248	5	3	3	1	0	892	1	4	0	216	5	0	0	17
fixed	7	3	6	1424037	6	4	4	1	0	584	1	4	0	224	6	0	0	20
fixed	7	3	7	1424966	3	1	1	1	0	1144	1	4	0	200	7	0	0	23
fixed	7	3	8	1426935	2	3	3	1	0	709	1	4	0	216	8	0	0	25
fixed	7	3	9	1428326	3	2	2	1	0	514	1	4	0	208	9	0	0	27
fixed	7	3	10	1429312	1	4	4	2	0	681	2	4	0	224	10	0	0	29
fixed	7	3	11	1430882	5	2	2	1	0	1078	1	4	0	208	11	0	0	31
fixed	7	3	12	1432863	4	3	3	1	0	738	1	4	0	216	12	0	0	33
fixed	7	4	1	1434768	4	1	1	1	0	721	1	4	0	200	1	0	0	3
fixed	7	4	2	1436405	1	2	2	1	0	836	1	4	0	208	2	0	0	5
fixed	7	4	3	1438285	6	4	4	1	0	596	1	4	0	224	3	0	0	8
fixed	7	4	4	1439641	2	1	1	1	0	715	1	4	0	200	4	0	0	10
fixed	7	4	5	1440941	5	3	3	1	0	788	1	4	0	216	5	0	0	12
fixed	7	4	6	1442485	6	4	4	1	0	618	1	4	0	224	6	0	0	14
fixed	7	4	7	1444108	3	1	1	1	0	918	1	4	0	200	7	0	0	16
fixed	7	4	8	1445592	2	3	3	1	0	935	1	4	0	216	8	0	0	18
fixed	7	4	9	1447288	3	2	2	1	0	631	1	4	0	208	9	0	0	20
fixed	7	4	10	1448400	1	4	4	1	0	440	1	4	0	224	10	0	0	22
fixed	7	4	11	1449885	5	2	2	1	0	961	1	4	0	208	11	0	0	23
fixed	7	4	12	1451681	4	3	3	1	0	573	1	4	0	216	12	0	0	25
fixed	7	5	1	1452862	4	1	1	1	0	691	1	4	0	200	1	0	0	2
fixed	7	5	2	1454449	1	2	2	1	0	719	1	4	0	208	2	0	0	4
fixed	7	5	3	1455628	6	4	4	1	0	574	1	4	0	224	3	0	0	6
fixed	7	5	4	1456980	2	1	1	1	0	685	1	4	0	200	4	0	0	8
fixed	7	5	5	1458366	5	3	3	1	0	762	1	4	0	216	5	0	0	9
fixed	7	5	6	1459420	6	4	4	1	0	677	1	4	0	224	6	0	0	11
fixed	7	5	7	1460452	3	1	1	1	0	1145	1	4	0	200	7	0	0	13
fixed	7	5	8	1461924	2	3	3	1	0	819	1	4	0	216	8	0	0	14
fixed	7	5	9	1463509	3	2	2	1	0	704	1	4	0	208	9	0	0	16
fixed	7	5	10	1464938	1	4	4	2	0	972	2	4	0	224	10	0	0	17
fixed	7	5	11	1466295	5	2	2	1	0	762	1	4	0	208	11	0	0	19
fixed	7	5	12	1467382	4	3	3	1	0	796	1	4	0	216	12	0	0	20
fixed	7	6	1	1468835	4	1	1	1	0	686	1	4	0	200	1	0	0	2
fixed	7	6	2	1469896	1	2	2	1	0	1066	1	4	0	208	2	0	0	3
fixed	7	6	3	1471247	6	4	4	1	0	640	1	4	0	224	3	0	0	5
fixed	7	6	4	1472237	2	1	1	2	0	1087	2	4	0	200	4	0	0	6
fixed	7	6	5	1474196	5	3	3	1	0	715	1	4	0	216	5	0	0	8
fixed	7	6	6	1475882	6	4	4	1	0	668	1	4	0	224	6	0	0	9
fixed	7	6	7	1477486	3	1	1	1	0	752	1	4	0	200	7	0	0	10
fixed	7	6	8	1478858	2	3	3	1	0	718	1	4	0	216	8	0	0	12
fixed	7	6	9	1480448	3	2	2	1	0	578	1	4	0	208	9	0	0	13
fixed	7	6	10	1481685	1	4	4	1	0	382	1	4	0	224	10	0	0	14
fixed	7	6	11	1483042	5	2	2	1	0	877	1	4	0	208	11	0	0	15
fixed	7	6	12	1484950	4	3	3	1	0	636	1	4	0	216	12	0	0	17
fixed	7	7	1	1486829	4	1	1	1	0	828	1	4	0	200	1	0	0	1
fixed	7	7	2	1488653	1	2	2	1	0	959	1	4	0	208	2	0	0	3
fixed	7	7	3	1489988	6	4	4	1	0	590	1	4	0	224	3	0	0	4
fixed	7	7	4	1491181	2	1	1	1	0	708	1	4	0	200	4	0	0	5
fixed	7	7	5	1492411	5	3	3	1	0	912	1	4	0	216	5	0	0	6
fixed	7	7	6	1493867	6	4	4	1	0	626	1	4	0	224	6	0	0	8
fixed	7	7	7	1495394	3	1	1	1	0	842	1	4	0	200	7	0	0	9
fixed	7	7	8	1497161	2	3	3	1	0	807	1	4	0	216	8	0	0	10
fixed	7	7	9	1498575	3	2	2	1	0	635	1	4	0	208	9	0	0	11
fixed	7	7	10	1499710	1	4	4	1	0	666	1	4	0	224	10	0	0	12
fixed	7	7	11	1500776	5	2	2	1	0	1414	1	4	0	208	11	0	0	13
fixed	7	7	12	1503214	4	3	3	1	0	663	1	4	0	216	12	0	0	14
fixed	7	8	1	1505073	4	1	1	1	0	519	1	4	0	200	1	0	0	1
fixed	7	8	2	1506211	1	2	2	1	0	727	1	4	0	208	2	0	0	2
fixed	7	8	3	1507776	6	4	4	1	0	621	1	4	0	224	3	0	0	3
fixed	7	8	4	1508688	2	1	1	1	0	726	1	4	0	200	4	0	0	5
fixed	7	8	5	1509782	5	3	3	1	0	656	1	4	0	216	5	0	0	6
fixed	7	8	6	1510834	6	4	4	1	0	668	1	4	0	224	6	0	0	7
fixed	7	8	7	1511874	3	1	1	1	0	1055	1	4	0	200	7	0	0	8
fixed	7	8	8	1513363	2	3	3	1	0	840	1	4	0	216	8	0	0	9
fixed	7	8	9	1514660	3	2	2	1	0	1250	1	4	0	208	9	0	0	10
fixed	7	8	10	1516225	1	4	4	1	0	558	1	4	0	224	10	0	0	11
fixed	7	8	11	1517263	5	2	2	1	0	1011	1	4	0	208	11	0	0	12
fixed	7	8	12	1518787	4	3	3	1	0	843	1	4	0	216	12	0	0	13
fixed	7	9	1	1520712	4	1	1	1	0	625	1	4	0	200	1	0	0	1
fixed	7	9	2	1521914	1	2	2	1	0	830	1	4	0	208	2	0	0	2
fixed	7	9	3	1523333	6	4	4	1	0	578	1	4	0	224	3	0	0	3
fixed	7	9	4	1524304	2	1	1	1	0	1105	1	4	0	200	4	0	0	4
fixed	7	9	5	1526116	5	3	3	1	0	628	1	4	0	216	5	0	0	5
fixed	7	9	6	1527199	6	4	4	1	0	670	1	4	0	224	6	0	0	6
fixed	7	9	7	1528541	3	1	1	1	0	742	1	4	0	200	7	0	0	7
fixed	7	9	8	1529669	2	3	3	1	0	782	1	4	0	216	8	0	0	8
fixed	7	9	9	1531446	3	2	2	1	0	491	1	4	0	208	9	0	0	9
fixed	7	9	10	1532659	1	4	4	1	0	703	1	4	0	224	10	0	0	9
fixed	7	9	11	1534179	5	2	2	1	0	839	1	4	0	208	11	0	0	10
fixed	7	9	12	1535913	4	3	3	1	0	669	1	4	0	216	12	0	0	11
fixed	7	10	1	1537219	4	1	1	1	0	750	1	4	0	200	1	0	0	1
fixed	7	10	2	1538621	1	2	2	1	0	930	1	4	0	208	2	0	0	2
fixed	7	10	3	1540312	6	4	4	1	0	539	1	4	0	224	3	0	0	3
fixed	7	10	4	1541883	2	1	1	1	0	752	1	4	0	200	4	0	0	4
fixed	7	10	5	1543356	5	3	3	1	0	962	1	4	0	216	5	0	0	4
fixed	7	10	6	1545121	6	4	4	1	0	575	1	4	0	224	6	0	0	5
fixed	7	10	7	1546460	3	1	1	1	0	806	1	4	0	200	7	0	0	6
fixed	7	10	8	1547760	2	3	3	1	0	1127	1	4	0	216	8	0	0	7
fixed	7	10	9	1549655	3	2	2	1	0	479	1	4	0	208	9	0	0	8
fixed	7	10	10	1551084	1	4	4	1	0	618	1	4	0	224	10	0	0	8
fixed	7	10	11	1552122	5	2	0	1	2	0	3	4	0	208	10	0	1	8
fixed	7	10	12	1555025	4	3	3	1	0	1740	1	4	0	216	11	0	1	9
