type	block	sequ.	trial	time	Pos.	Color	Button	NumRsp	Resp_1	RT_1	R_Code	Resp_2	RT_2	Trigg.	n_hit	n_inc	n_miss	score_%

random	1	1	1	3053	6	1	1	1	0	1034	1	4	0	8	1	0	0	100
random	1	1	2	4511	4	4	4	1	0	740	1	4	0	32	2	0	0	100
random	1	1	3	6123	2	2	2	1	0	976	1	4	0	16	3	0	0	100
random	1	1	4	8059	3	3	3	1	0	462	1	4	0	24	4	0	0	100
random	1	1	5	9019	5	2	2	1	0	1013	1	4	0	16	5	0	0	100
random	1	1	6	10595	1	4	4	1	0	547	1	4	0	32	6	0	0	100
random	1	1	7	11700	6	1	1	1	0	564	1	4	0	8	7	0	0	100
random	1	1	8	13200	2	3	3	1	0	764	1	4	0	24	8	0	0	100
random	1	1	9	14484	4	2	2	1	0	518	1	4	0	16	9	0	0	100
random	1	1	10	15323	1	1	1	1	0	730	1	4	0	8	10	0	0	100
random	1	1	11	17057	5	4	4	1	0	417	1	4	0	32	11	0	0	100
random	1	1	12	18436	3	3	3	1	0	679	1	4	0	24	12	0	0	100
random	1	1	13	20263	5	2	2	1	0	1073	1	4	0	16	13	0	0	100
random	1	1	14	22202	1	4	4	1	0	607	1	4	0	32	14	0	0	100
random	1	1	15	23808	3	1	1	1	0	515	1	4	0	8	15	0	0	100
random	1	1	16	24830	4	3	3	1	0	848	1	4	0	24	16	0	0	100
random	1	1	17	26179	6	4	4	1	0	718	1	4	0	32	17	0	0	100
random	1	1	18	27551	2	1	1	1	0	708	1	4	0	8	18	0	0	100
random	1	1	19	28987	5	3	3	1	0	751	1	4	0	24	19	0	0	100
random	1	1	20	30586	2	2	2	1	0	756	1	4	0	16	20	0	0	100
random	1	1	21	32127	3	3	3	1	0	778	1	4	0	24	21	0	0	100
random	1	1	22	33497	6	1	1	1	0	664	1	4	0	8	22	0	0	100
random	1	1	23	34732	4	2	2	1	0	836	1	4	0	16	23	0	0	100
random	1	1	24	35952	1	4	4	1	0	408	1	4	0	32	24	0	0	100
random	1	1	25	37055	4	3	3	2	0	1042	2	4	0	24	25	0	0	100
random	1	1	26	38438	2	1	1	1	0	680	1	4	0	8	26	0	0	100
random	1	1	27	39499	5	2	2	1	0	698	1	4	0	16	27	0	0	100
random	1	1	28	40952	6	4	4	1	0	645	1	4	0	32	28	0	0	100
random	1	1	29	42044	1	3	3	2	0	2207	2	4	0	24	29	0	0	100
random	1	1	30	45041	5	2	2	1	0	919	1	4	0	16	30	0	0	100
random	1	1	31	46411	2	1	1	1	0	613	1	4	0	8	31	0	0	100
random	1	1	32	47825	3	3	3	1	0	882	1	4	0	24	32	0	0	100
random	1	1	33	49650	6	4	4	1	0	628	1	4	0	32	33	0	0	100
random	1	1	34	51186	4	2	2	1	0	660	1	4	0	16	34	0	0	100
random	1	1	35	52379	3	4	4	1	0	633	1	4	0	32	35	0	0	100
random	1	1	36	53569	1	1	1	1	0	535	1	4	0	8	36	0	0	100
random	1	1	37	55066	3	4	4	1	0	631	1	4	0	32	37	0	0	100
random	1	1	38	56274	5	3	3	1	0	956	1	4	0	24	38	0	0	100
random	1	1	39	57626	6	1	1	1	0	851	1	4	0	8	39	0	0	100
random	1	1	40	59088	1	2	2	1	0	1125	1	4	0	16	40	0	0	100
random	1	1	41	60893	2	3	3	1	0	721	1	4	0	24	41	0	0	100
random	1	1	42	62332	4	4	4	1	0	467	1	4	0	32	42	0	0	100
random	1	1	43	63141	1	2	2	1	0	977	1	4	0	16	43	0	0	100
random	1	1	44	64660	6	3	3	1	0	625	1	4	0	24	44	0	0	100
random	1	1	45	66133	3	1	1	1	0	954	1	4	0	8	45	0	0	100
random	1	1	46	68066	4	4	4	1	0	496	1	4	0	32	46	0	0	100
random	1	1	47	69287	2	2	2	1	0	893	1	4	0	16	47	0	0	100
random	1	1	48	71214	5	1	1	1	0	707	1	4	0	8	48	0	0	100
random	1	1	49	73060	2	3	3	1	0	909	1	4	0	24	49	0	0	100
random	1	1	50	74896	3	1	1	1	0	695	1	4	0	8	50	0	0	100
random	1	1	51	75962	1	4	4	1	0	642	1	4	0	32	51	0	0	100
random	1	1	52	77422	5	3	3	1	0	1100	1	4	0	24	52	0	0	100
random	1	1	53	79530	3	2	2	1	0	643	1	4	0	16	53	0	0	100
random	1	1	54	81198	6	4	4	1	0	628	1	4	0	32	54	0	0	100
random	1	1	55	82627	4	2	2	1	0	736	1	4	0	16	55	0	0	100
random	1	1	56	84106	1	1	1	1	0	785	1	4	0	8	56	0	0	100
random	1	1	57	85904	5	4	4	1	0	637	1	4	0	32	57	0	0	100
random	1	1	58	87558	2	1	1	1	0	727	1	4	0	8	58	0	0	100
random	1	1	59	89030	6	2	2	1	0	952	1	4	0	16	59	0	0	100
random	1	1	60	90947	4	3	3	1	0	616	1	4	0	24	60	0	0	100
random	1	1	61	92374	1	2	2	1	0	939	1	4	0	16	61	0	0	100
random	1	1	62	94219	6	4	4	1	0	605	1	4	0	32	62	0	0	100
random	1	1	63	95578	4	1	1	1	0	755	1	4	0	8	63	0	0	100
random	1	1	64	96965	2	2	2	1	0	961	1	4	0	16	64	0	0	100
random	1	1	65	98497	4	3	3	1	0	584	1	4	0	24	65	0	0	100
random	1	1	66	99584	3	1	1	1	0	690	1	4	0	8	66	0	0	100
random	1	1	67	100640	1	3	3	1	0	861	1	4	0	24	67	0	0	100
random	1	1	68	102519	5	4	4	1	0	629	1	4	0	32	68	0	0	100
random	1	1	69	103586	2	2	2	1	0	976	1	4	0	16	69	0	0	100
random	1	1	70	105012	3	1	1	1	0	660	1	4	0	8	70	0	0	100
random	1	1	71	106015	5	4	4	1	0	601	1	4	0	32	71	0	0	100
random	1	1	72	107601	6	3	3	1	0	694	1	4	0	24	72	0	0	100
random	1	1	73	109098	2	1	1	2	0	1070	2	4	0	8	73	0	0	100
random	1	1	74	110876	5	3	3	1	0	747	1	4	0	24	74	0	0	100
random	1	1	75	112648	1	4	4	1	0	656	1	4	0	32	75	0	0	100
random	1	1	76	114070	6	2	2	1	0	924	1	4	0	16	76	0	0	100
random	1	1	77	115454	2	1	1	1	0	601	1	4	0	8	77	0	0	100
random	1	1	78	116663	4	4	4	1	0	670	1	4	0	32	78	0	0	100
random	1	1	79	118110	3	2	2	1	0	681	1	4	0	16	79	0	0	100
random	1	1	80	119628	4	3	3	1	0	688	1	4	0	24	80	0	0	100
random	1	1	81	121318	1	4	4	1	0	649	1	4	0	32	81	0	0	100
random	1	1	82	122459	5	1	1	1	0	649	1	4	0	8	82	0	0	100
random	1	1	83	123699	3	2	2	1	0	660	1	4	0	16	83	0	0	100
random	1	1	84	124806	6	3	3	1	0	541	1	4	0	24	84	0	0	100
random	1	1	85	126023	3	2	2	1	0	785	1	4	0	16	85	0	0	100
random	1	1	86	127168	1	3	3	1	0	593	1	4	0	24	86	0	0	100
random	1	1	87	128496	4	4	4	1	0	569	1	4	0	32	87	0	0	100
random	1	1	88	129712	2	1	1	1	0	542	1	4	0	8	88	0	0	100
random	1	1	89	130796	6	4	4	1	0	864	1	4	0	32	89	0	0	100
random	1	1	90	132681	3	3	3	1	0	1000	1	4	0	24	90	0	0	100
random	1	1	91	133969	5	4	4	1	0	657	1	4	0	32	91	0	0	100
random	1	1	92	135423	1	2	2	1	0	772	1	4	0	16	92	0	0	100
random	1	1	93	136838	5	1	1	1	0	616	1	4	0	8	93	0	0	100
random	1	1	94	138099	4	3	3	1	0	683	1	4	0	24	94	0	0	100
random	1	1	95	139132	6	1	1	1	0	791	1	4	0	8	95	0	0	100
random	1	1	96	140693	2	2	2	1	0	908	1	4	0	16	96	0	0	100
random	1	1	97	142581	4	3	3	1	0	884	1	4	0	24	97	0	0	100
random	1	1	98	144413	3	2	2	1	0	719	1	4	0	16	98	0	0	100
random	1	1	99	145900	6	3	3	1	0	808	1	4	0	24	99	0	0	100
random	1	1	100	147093	1	4	4	1	0	885	1	4	0	32	100	0	0	100
random	1	1	101	148942	4	1	1	1	0	663	1	4	0	8	101	0	0	100
random	1	1	102	150104	5	2	2	1	0	894	1	4	0	16	102	0	0	100
random	1	1	103	151659	2	4	4	1	0	564	1	4	0	32	103	0	0	100
random	1	1	104	152952	3	1	1	1	0	749	1	4	0	8	104	0	0	100
random	1	1	105	154404	1	3	3	1	0	848	1	4	0	24	105	0	0	100
random	1	1	106	156263	2	2	2	1	0	793	1	4	0	16	106	0	0	100
random	1	1	107	157836	5	4	4	1	0	718	1	4	0	32	107	0	0	100
random	1	1	108	159229	6	1	1	1	0	691	1	4	0	8	108	0	0	100
random	1	1	109	160993	5	4	4	1	0	648	1	4	0	32	109	0	0	100
random	1	1	110	162495	6	3	3	1	0	817	1	4	0	24	110	0	0	100
random	1	1	111	164155	2	2	2	1	0	1123	1	4	0	16	111	0	0	100
random	1	1	112	166223	3	1	1	1	0	563	1	4	0	8	112	0	0	100
random	1	1	113	167595	1	2	2	1	0	929	1	4	0	16	113	0	0	100
random	1	1	114	169334	2	3	3	1	0	575	1	4	0	24	114	0	0	100
random	1	1	115	170869	3	1	1	1	0	630	1	4	0	8	115	0	0	100
random	1	1	116	172209	4	4	4	1	0	429	1	4	0	32	116	0	0	100
random	1	1	117	173246	6	1	1	1	0	602	1	4	0	8	117	0	0	100
random	1	1	118	174598	5	3	3	1	0	680	1	4	0	24	118	0	0	100
random	1	1	119	176022	1	4	4	1	0	612	1	4	0	32	119	0	0	100
random	1	1	120	177353	4	2	2	1	0	500	1	4	0	16	120	0	0	100
fixed	2	1	1	179335	4	1	1	1	0	583	1	4	0	40	1	0	0	100
fixed	2	1	2	180730	1	2	2	2	0	1357	2	4	0	48	2	0	0	100
fixed	2	1	3	182577	6	4	4	1	0	678	1	4	0	64	3	0	0	100
fixed	2	1	4	184255	2	1	1	1	0	711	1	4	0	40	4	0	0	100
fixed	2	1	5	185823	5	3	3	1	0	797	1	4	0	56	5	0	0	100
fixed	2	1	6	187324	6	4	4	1	0	581	1	4	0	64	6	0	0	100
fixed	2	1	7	188779	3	1	1	1	0	647	1	4	0	40	7	0	0	100
fixed	2	1	8	190027	2	3	3	1	0	819	1	4	0	56	8	0	0	100
fixed	2	1	9	191471	3	2	0	1	2	0	3	4	0	48	8	0	1	89
fixed	2	1	10	194804	1	4	4	1	0	761	1	4	0	64	9	0	1	90
fixed	2	1	11	196323	5	2	2	1	0	816	1	4	0	48	10	0	1	91
fixed	2	1	12	197794	4	3	3	1	0	762	1	4	0	56	11	0	1	92
fixed	2	2	1	199470	4	1	1	1	0	699	1	4	0	40	12	0	1	92
fixed	2	2	2	200589	1	2	2	1	0	875	1	4	0	48	13	0	1	93
fixed	2	2	3	202394	6	4	4	1	0	679	1	4	0	64	14	0	1	93
fixed	2	2	4	204024	2	1	1	1	0	858	1	4	0	40	15	0	1	94
fixed	2	2	5	205554	5	3	3	1	0	785	1	4	0	56	16	0	1	94
fixed	2	2	6	207074	6	4	4	1	0	625	1	4	0	64	17	0	1	94
fixed	2	2	7	208057	3	1	1	1	0	719	1	4	0	40	18	0	1	95
fixed	2	2	8	209620	2	3	3	1	0	837	1	4	0	56	19	0	1	95
fixed	2	2	9	210961	3	2	2	1	0	516	1	4	0	48	20	0	1	95
fixed	2	2	10	212006	1	4	4	1	0	512	1	4	0	64	21	0	1	95
fixed	2	2	11	212921	5	2	2	1	0	897	1	4	0	48	22	0	1	96
fixed	2	2	12	214687	4	3	3	1	0	839	1	4	0	56	23	0	1	96
fixed	2	3	1	216545	4	1	1	1	0	655	1	4	0	40	24	0	1	96
fixed	2	3	2	217782	1	2	2	1	0	891	1	4	0	48	25	0	1	96
fixed	2	3	3	219216	6	4	4	1	0	534	1	4	0	64	26	0	1	96
fixed	2	3	4	220643	2	1	1	1	0	722	1	4	0	40	27	0	1	96
fixed	2	3	5	222166	5	3	3	1	0	786	1	4	0	56	28	0	1	97
fixed	2	3	6	223627	6	4	4	1	0	627	1	4	0	64	29	0	1	97
fixed	2	3	7	225135	3	1	1	1	0	708	1	4	0	40	30	0	1	97
fixed	2	3	8	226658	2	3	3	1	0	819	1	4	0	56	31	0	1	97
fixed	2	3	9	228400	3	2	2	1	0	530	1	4	0	48	32	0	1	97
fixed	2	3	10	229324	1	4	4	1	0	515	1	4	0	64	33	0	1	97
fixed	2	3	11	230693	5	2	2	1	0	841	1	4	0	48	34	0	1	97
fixed	2	3	12	232478	4	3	3	1	0	789	1	4	0	56	35	0	1	97
fixed	2	4	1	234055	4	1	1	1	0	698	1	4	0	40	36	0	1	97
fixed	2	4	2	235165	1	2	2	1	0	891	1	4	0	48	37	0	1	97
fixed	2	4	3	237034	6	4	4	1	0	708	1	4	0	64	38	0	1	97
fixed	2	4	4	238487	2	1	1	1	0	694	1	4	0	40	39	0	1	98
fixed	2	4	5	239853	5	3	3	1	0	724	1	4	0	56	40	0	1	98
fixed	2	4	6	241202	6	4	4	1	0	580	1	4	0	64	41	0	1	98
fixed	2	4	7	242766	3	1	1	1	0	673	1	4	0	40	42	0	1	98
fixed	2	4	8	244217	2	3	3	1	0	804	1	4	0	56	43	0	1	98
fixed	2	4	9	245892	3	2	2	1	0	749	1	4	0	48	44	0	1	98
fixed	2	4	10	246993	1	4	4	1	0	926	1	4	0	64	45	0	1	98
fixed	2	4	11	248343	5	2	2	1	0	885	1	4	0	48	46	0	1	98
fixed	2	4	12	249692	4	3	3	1	0	651	1	4	0	56	47	0	1	98
fixed	2	5	1	251114	4	1	1	1	0	519	1	4	0	40	48	0	1	98
fixed	2	5	2	252391	1	2	2	2	0	1265	2	4	0	48	49	0	1	98
fixed	2	5	3	254668	6	4	4	1	0	561	1	4	0	64	50	0	1	98
fixed	2	5	4	255643	2	1	1	1	0	799	1	4	0	40	51	0	1	98
fixed	2	5	5	256807	5	3	3	1	0	767	1	4	0	56	52	0	1	98
fixed	2	5	6	258182	6	4	4	1	0	644	1	4	0	64	53	0	1	98
fixed	2	5	7	259831	3	1	1	1	0	559	1	4	0	40	54	0	1	98
fixed	2	5	8	261023	2	3	3	1	0	820	1	4	0	56	55	0	1	98
fixed	2	5	9	262551	3	2	2	1	0	507	1	4	0	48	56	0	1	98
fixed	2	5	10	263509	1	4	4	1	0	426	1	4	0	64	57	0	1	98
fixed	2	5	11	264362	5	2	2	1	0	878	1	4	0	48	58	0	1	98
fixed	2	5	12	265808	4	3	3	1	0	873	1	4	0	56	59	0	1	98
fixed	2	6	1	267838	4	1	1	1	0	555	1	4	0	40	60	0	1	98
fixed	2	6	2	269161	1	2	2	1	0	827	1	4	0	48	61	0	1	98
fixed	2	6	3	270789	6	4	4	1	0	614	1	4	0	64	62	0	1	98
fixed	2	6	4	272189	2	1	1	1	0	755	1	4	0	40	63	0	1	98
fixed	2	6	5	273852	5	3	3	1	0	540	1	4	0	56	64	0	1	98
fixed	2	6	6	275100	6	4	0	0	2	0	3	4	0	64	64	0	2	97
fixed	2	6	7	278271	3	1	1	1	0	633	1	4	0	40	65	0	2	97
fixed	2	6	8	279686	2	3	3	1	0	757	1	4	0	56	66	0	2	97
fixed	2	6	9	281480	3	2	2	1	0	737	1	4	0	48	67	0	2	97
fixed	2	6	10	282910	1	4	4	1	0	597	1	4	0	64	68	0	2	97
fixed	2	6	11	284535	5	2	2	1	0	824	1	4	0	48	69	0	2	97
fixed	2	6	12	286312	4	3	3	1	0	677	1	4	0	56	70	0	2	97
fixed	2	7	1	287987	4	1	1	1	0	749	1	4	0	40	71	0	2	97
fixed	2	7	2	289392	1	2	2	1	0	826	1	4	0	48	72	0	2	97
fixed	2	7	3	291082	6	4	4	1	0	659	1	4	0	64	73	0	2	97
fixed	2	7	4	292636	2	1	1	1	0	649	1	4	0	40	74	0	2	97
fixed	2	7	5	293709	5	3	3	1	0	643	1	4	0	56	75	0	2	97
fixed	2	7	6	295184	6	4	4	1	0	677	1	4	0	64	76	0	2	97
fixed	2	7	7	296486	3	1	1	1	0	798	1	4	0	40	77	0	2	97
fixed	2	7	8	297612	2	3	3	1	0	726	1	4	0	56	78	0	2	98
fixed	2	7	9	299253	3	2	2	1	0	569	1	4	0	48	79	0	2	98
fixed	2	7	10	300444	1	4	4	1	0	438	1	4	0	64	80	0	2	98
fixed	2	7	11	301351	5	2	2	1	0	855	1	4	0	48	81	0	2	98
fixed	2	7	12	303083	4	3	3	1	0	718	1	4	0	56	82	0	2	98
fixed	2	8	1	304678	4	1	1	1	0	403	1	4	0	40	83	0	2	98
fixed	2	8	2	305839	1	2	2	1	0	834	1	4	0	48	84	0	2	98
fixed	2	8	3	307646	6	4	4	1	0	565	1	4	0	64	85	0	2	98
fixed	2	8	4	309002	2	1	1	1	0	684	1	4	0	40	86	0	2	98
fixed	2	8	5	310060	5	3	3	1	0	887	1	4	0	56	87	0	2	98
fixed	2	8	6	311493	6	4	4	1	0	586	1	4	0	64	88	0	2	98
fixed	2	8	7	312991	3	1	1	1	0	715	1	4	0	40	89	0	2	98
fixed	2	8	8	314347	2	3	3	1	0	706	1	4	0	56	90	0	2	98
fixed	2	8	9	315718	3	2	2	1	0	519	1	4	0	48	91	0	2	98
fixed	2	8	10	317215	1	4	4	1	0	480	1	4	0	64	92	0	2	98
fixed	2	8	11	318356	5	2	2	1	0	856	1	4	0	48	93	0	2	98
fixed	2	8	12	319731	4	3	3	1	0	861	1	4	0	56	94	0	2	98
fixed	2	9	1	321336	4	1	1	1	0	641	1	4	0	40	95	0	2	98
fixed	2	9	2	322921	1	2	2	1	0	774	1	4	0	48	96	0	2	98
fixed	2	9	3	324119	6	4	4	1	0	580	1	4	0	64	97	0	2	98
fixed	2	9	4	325268	2	1	1	1	0	715	1	4	0	40	98	0	2	98
fixed	2	9	5	326686	5	3	3	1	0	647	1	4	0	56	99	0	2	98
fixed	2	9	6	328079	6	4	4	1	0	668	1	4	0	64	100	0	2	98
fixed	2	9	7	329351	3	1	1	1	0	814	1	4	0	40	101	0	2	98
fixed	2	9	8	330596	2	3	3	1	0	849	1	4	0	56	102	0	2	98
fixed	2	9	9	332238	3	2	2	1	0	476	1	4	0	48	103	0	2	98
fixed	2	9	10	333700	1	4	4	1	0	421	1	4	0	64	104	0	2	98
fixed	2	9	11	335069	5	2	2	1	0	931	1	4	0	48	105	0	2	98
fixed	2	9	12	336822	4	3	3	1	0	633	1	4	0	56	106	0	2	98
fixed	2	10	1	338712	4	1	1	1	0	569	1	4	0	40	107	0	2	98
fixed	2	10	2	340134	1	2	2	1	0	741	1	4	0	48	108	0	2	98
fixed	2	10	3	341775	6	4	4	1	0	640	1	4	0	64	109	0	2	98
fixed	2	10	4	342843	2	1	1	1	0	746	1	4	0	40	110	0	2	98
fixed	2	10	5	343978	5	3	3	1	0	754	1	4	0	56	111	0	2	98
fixed	2	10	6	345771	6	4	4	1	0	598	1	4	0	64	112	0	2	98
fixed	2	10	7	346761	3	1	1	1	0	829	1	4	0	40	113	0	2	98
fixed	2	10	8	347895	2	3	3	1	0	805	1	4	0	56	114	0	2	98
fixed	2	10	9	349577	3	2	2	1	0	637	1	4	0	48	115	0	2	98
fixed	2	10	10	351041	1	4	4	1	0	639	1	4	0	64	116	0	2	98
fixed	2	10	11	352363	5	2	2	1	0	871	1	4	0	48	117	0	2	98
fixed	2	10	12	354104	4	3	3	1	0	637	1	4	0	56	118	0	2	98
fixed	3	1	1	355634	4	1	1	1	0	508	1	4	0	72	1	0	0	100
fixed	3	1	2	356773	1	2	2	1	0	1020	1	4	0	80	2	0	0	100
fixed	3	1	3	358729	6	4	4	1	0	689	1	4	0	96	3	0	0	100
fixed	3	1	4	360439	2	1	1	1	0	673	1	4	0	72	4	0	0	100
fixed	3	1	5	361558	5	3	3	1	0	714	1	4	0	88	5	0	0	100
fixed	3	1	6	363205	6	4	4	1	0	636	1	4	0	96	6	0	0	100
fixed	3	1	7	364814	3	1	1	1	0	704	1	4	0	72	7	0	0	100
fixed	3	1	8	366339	2	3	3	1	0	791	1	4	0	88	8	0	0	100
fixed	3	1	9	367599	3	2	2	2	0	978	2	4	0	80	9	0	0	100
fixed	3	1	10	369452	1	4	4	1	0	667	1	4	0	96	10	0	0	100
fixed	3	1	11	370828	5	2	2	1	0	761	1	4	0	80	11	0	0	100
fixed	3	1	12	372002	4	3	3	1	0	751	1	4	0	88	12	0	0	100
fixed	3	2	1	373531	4	1	1	1	0	734	1	4	0	72	13	0	0	100
fixed	3	2	2	375187	1	2	2	1	0	1072	1	4	0	80	14	0	0	100
fixed	3	2	3	376897	6	4	4	1	0	640	1	4	0	96	15	0	0	100
fixed	3	2	4	378402	2	1	1	1	0	752	1	4	0	72	16	0	0	100
fixed	3	2	5	379583	5	3	3	1	0	582	1	4	0	88	17	0	0	100
fixed	3	2	6	380993	6	4	4	1	0	563	1	4	0	96	18	0	0	100
fixed	3	2	7	382259	3	1	1	1	0	821	1	4	0	72	19	0	0	100
fixed	3	2	8	383867	2	3	3	1	0	825	1	4	0	88	20	0	0	100
fixed	3	2	9	385079	3	2	2	1	0	581	1	4	0	80	21	0	0	100
fixed	3	2	10	386103	1	4	4	1	0	530	1	4	0	96	22	0	0	100
fixed	3	2	11	387012	5	2	2	1	0	811	1	4	0	80	23	0	0	100
fixed	3	2	12	388303	4	3	3	1	0	765	1	4	0	88	24	0	0	100
fixed	3	3	1	389971	4	1	1	1	0	630	1	4	0	72	25	0	0	100
fixed	3	3	2	391291	1	2	2	1	0	1134	1	4	0	80	26	0	0	100
fixed	3	3	3	393298	6	4	4	1	0	649	1	4	0	96	27	0	0	100
fixed	3	3	4	394505	2	1	1	1	0	726	1	4	0	72	28	0	0	100
fixed	3	3	5	396224	5	3	3	1	0	869	1	4	0	88	29	0	0	100
fixed	3	3	6	398007	6	4	4	1	0	586	1	4	0	96	30	0	0	100
fixed	3	3	7	399425	3	1	1	1	0	782	1	4	0	72	31	0	0	100
fixed	3	3	8	400929	2	3	3	1	0	902	1	4	0	88	32	0	0	100
fixed	3	3	9	402767	3	2	2	1	0	608	1	4	0	80	33	0	0	100
fixed	3	3	10	404246	1	4	4	1	0	458	1	4	0	96	34	0	0	100
fixed	3	3	11	405406	5	2	2	1	0	888	1	4	0	80	35	0	0	100
fixed	3	3	12	406788	4	3	3	1	0	678	1	4	0	88	36	0	0	100
fixed	3	4	1	408567	4	1	1	1	0	642	1	4	0	72	37	0	0	100
fixed	3	4	2	409698	1	2	2	1	0	1051	1	4	0	80	38	0	0	100
fixed	3	4	3	411559	6	4	4	1	0	700	1	4	0	96	39	0	0	100
fixed	3	4	4	412592	2	1	1	1	0	720	1	4	0	72	40	0	0	100
fixed	3	4	5	414301	5	3	3	1	0	712	1	4	0	88	41	0	0	100
fixed	3	4	6	415849	6	4	4	1	0	598	1	4	0	96	42	0	0	100
fixed	3	4	7	416778	3	1	1	1	0	782	1	4	0	72	43	0	0	100
fixed	3	4	8	417860	2	3	3	1	0	873	1	4	0	88	44	0	0	100
fixed	3	4	9	419341	3	2	2	1	0	586	1	4	0	80	45	0	0	100
fixed	3	4	10	420763	1	4	4	1	0	638	1	4	0	96	46	0	0	100
fixed	3	4	11	421867	5	2	2	1	0	679	1	4	0	80	47	0	0	100
fixed	3	4	12	422982	4	3	3	1	0	672	1	4	0	88	48	0	0	100
fixed	3	5	1	424740	4	1	1	1	0	797	1	4	0	72	49	0	0	100
fixed	3	5	2	425873	1	2	2	1	0	1102	1	4	0	80	50	0	0	100
fixed	3	5	3	427530	6	4	4	1	0	655	1	4	0	96	51	0	0	100
fixed	3	5	4	428968	2	1	1	1	0	962	1	4	0	72	52	0	0	100
fixed	3	5	5	430492	5	3	3	1	0	682	1	4	0	88	53	0	0	100
fixed	3	5	6	432010	6	4	4	1	0	594	1	4	0	96	54	0	0	100
fixed	3	5	7	432983	3	1	1	1	0	920	1	4	0	72	55	0	0	100
fixed	3	5	8	434260	2	3	3	1	0	730	1	4	0	88	56	0	0	100
fixed	3	5	9	435996	3	2	2	1	0	729	1	4	0	80	57	0	0	100
fixed	3	5	10	437637	1	4	4	1	0	627	1	4	0	96	58	0	0	100
fixed	3	5	11	438628	5	2	2	1	0	969	1	4	0	80	59	0	0	100
fixed	3	5	12	440319	4	3	3	1	0	722	1	4	0	88	60	0	0	100
fixed	3	6	1	442065	4	1	1	1	0	568	1	4	0	72	61	0	0	100
fixed	3	6	2	443613	1	2	2	1	0	1110	1	4	0	80	62	0	0	100
fixed	3	6	3	445399	6	4	4	1	0	651	1	4	0	96	63	0	0	100
fixed	3	6	4	447034	2	1	1	1	0	733	1	4	0	72	64	0	0	100
fixed	3	6	5	448536	5	3	3	1	0	718	1	4	0	88	65	0	0	100
fixed	3	6	6	450124	6	4	4	1	0	611	1	4	0	96	66	0	0	100
fixed	3	6	7	451395	3	1	1	1	0	685	1	4	0	72	67	0	0	100
fixed	3	6	8	452826	2	3	3	1	0	808	1	4	0	88	68	0	0	100
fixed	3	6	9	454176	3	2	2	1	0	654	1	4	0	80	69	0	0	100
fixed	3	6	10	455472	1	4	4	1	0	552	1	4	0	96	70	0	0	100
fixed	3	6	11	456820	5	2	2	1	0	863	1	4	0	80	71	0	0	100
fixed	3	6	12	457982	4	3	3	1	0	598	1	4	0	88	72	0	0	100
fixed	3	7	1	459274	4	1	1	1	0	847	1	4	0	72	73	0	0	100
fixed	3	7	2	460458	1	2	2	1	0	876	1	4	0	80	74	0	0	100
fixed	3	7	3	461919	6	4	4	1	0	567	1	4	0	96	75	0	0	100
fixed	3	7	4	463410	2	1	1	1	0	792	1	4	0	72	76	0	0	100
fixed	3	7	5	465178	5	3	3	1	0	797	1	4	0	88	77	0	0	100
fixed	3	7	6	466817	6	4	4	1	0	623	1	4	0	96	78	0	0	100
fixed	3	7	7	467988	3	1	1	1	0	910	1	4	0	72	79	0	0	100
fixed	3	7	8	469677	2	3	3	1	0	727	1	4	0	88	80	0	0	100
fixed	3	7	9	470777	3	2	2	1	0	552	1	4	0	80	81	0	0	100
fixed	3	7	10	472211	1	4	4	1	0	619	1	4	0	96	82	0	0	100
fixed	3	7	11	473662	5	2	2	1	0	845	1	4	0	80	83	0	0	100
fixed	3	7	12	474834	4	3	3	1	0	620	1	4	0	88	84	0	0	100
fixed	3	8	1	476450	4	1	1	1	0	463	1	4	0	72	85	0	0	100
fixed	3	8	2	477878	1	2	2	1	0	819	1	4	0	80	86	0	0	100
fixed	3	8	3	479016	6	4	4	1	0	755	1	4	0	96	87	0	0	100
fixed	3	8	4	480374	2	1	1	1	0	689	1	4	0	72	88	0	0	100
fixed	3	8	5	481372	5	3	3	1	0	695	1	4	0	88	89	0	0	100
fixed	3	8	6	482501	6	4	4	1	0	671	1	4	0	96	90	0	0	100
fixed	3	8	7	483566	3	1	1	1	0	1186	1	4	0	72	91	0	0	100
fixed	3	8	8	485132	2	3	3	1	0	888	1	4	0	88	92	0	0	100
fixed	3	8	9	486969	3	2	2	1	0	706	1	4	0	80	93	0	0	100
fixed	3	8	10	488518	1	4	4	1	0	640	1	4	0	96	94	0	0	100
fixed	3	8	11	489631	5	2	2	1	0	937	1	4	0	80	95	0	0	100
fixed	3	8	12	491405	4	3	3	1	0	598	1	4	0	88	96	0	0	100
fixed	3	9	1	492673	4	1	1	1	0	728	1	4	0	72	97	0	0	100
fixed	3	9	2	494180	1	2	2	1	0	1008	1	4	0	80	98	0	0	100
fixed	3	9	3	496168	6	4	4	1	0	564	1	4	0	96	99	0	0	100
fixed	3	9	4	497216	2	1	1	1	0	656	1	4	0	72	100	0	0	100
fixed	3	9	5	498672	5	3	3	1	0	762	1	4	0	88	101	0	0	100
fixed	3	9	6	500397	6	4	4	1	0	585	1	4	0	96	102	0	0	100
fixed	3	9	7	501880	3	1	1	1	0	770	1	4	0	72	103	0	0	100
fixed	3	9	8	503005	2	3	3	1	0	707	1	4	0	88	104	0	0	100
fixed	3	9	9	504740	3	2	2	1	0	577	1	4	0	80	105	0	0	100
fixed	3	9	10	505975	1	4	4	1	0	389	1	4	0	96	106	0	0	100
fixed	3	9	11	507276	5	2	2	1	0	814	1	4	0	80	107	0	0	100
fixed	3	9	12	509056	4	3	3	1	0	771	1	4	0	88	108	0	0	100
fixed	3	10	1	510650	4	1	1	1	0	631	1	4	0	72	109	0	0	100
fixed	3	10	2	512126	1	2	2	1	0	936	1	4	0	80	110	0	0	100
fixed	3	10	3	513545	6	4	4	1	0	668	1	4	0	96	111	0	0	100
fixed	3	10	4	514826	2	1	1	1	0	654	1	4	0	72	112	0	0	100
fixed	3	10	5	516054	5	3	3	1	0	690	1	4	0	88	113	0	0	100
fixed	3	10	6	517602	6	4	4	1	0	640	1	4	0	96	114	0	0	100
fixed	3	10	7	519029	3	1	1	1	0	700	1	4	0	72	115	0	0	100
fixed	3	10	8	520606	2	3	3	1	0	913	1	4	0	88	116	0	0	100
fixed	3	10	9	521860	3	2	2	1	0	692	1	4	0	80	117	0	0	100
fixed	3	10	10	523221	1	4	4	1	0	562	1	4	0	96	118	0	0	100
fixed	3	10	11	524706	5	2	2	1	0	899	1	4	0	80	119	0	0	100
fixed	3	10	12	525946	4	3	3	1	0	607	1	4	0	88	120	0	0	100
fixed	4	1	1	649121	4	1	1	1	0	766	1	4	0	104	1	0	0	100
fixed	4	1	2	650766	1	2	2	1	0	904	1	4	0	112	2	0	0	100
fixed	4	1	3	652113	6	4	4	1	0	543	1	4	0	128	3	0	0	100
fixed	4	1	4	653485	2	1	1	1	0	821	1	4	0	104	4	0	0	100
fixed	4	1	5	655335	5	3	3	1	0	775	1	4	0	120	5	0	0	100
fixed	4	1	6	656914	6	4	4	1	0	524	1	4	0	128	6	0	0	100
fixed	4	1	7	658015	3	1	1	1	0	709	1	4	0	104	7	0	0	100
fixed	4	1	8	659749	2	3	3	1	0	892	1	4	0	120	8	0	0	100
fixed	4	1	9	661155	3	2	2	1	0	584	1	4	0	112	9	0	0	100
fixed	4	1	10	662705	1	4	4	1	0	462	1	4	0	128	10	0	0	100
fixed	4	1	11	663534	5	2	2	1	0	820	1	4	0	112	11	0	0	100
fixed	4	1	12	664973	4	3	3	1	0	871	1	4	0	120	12	0	0	100
fixed	4	2	1	666449	4	1	1	1	0	696	1	4	0	104	13	0	0	100
fixed	4	2	2	667666	1	2	2	1	0	732	1	4	0	112	14	0	0	100
fixed	4	2	3	669331	6	4	4	1	0	590	1	4	0	128	15	0	0	100
fixed	4	2	4	670511	2	1	1	1	0	652	1	4	0	104	16	0	0	100
fixed	4	2	5	671892	5	3	3	1	0	754	1	4	0	120	17	0	0	100
fixed	4	2	6	673630	6	4	4	1	0	616	1	4	0	128	18	0	0	100
fixed	4	2	7	674549	3	1	1	1	0	777	1	4	0	104	19	0	0	100
fixed	4	2	8	676230	2	3	3	1	0	850	1	4	0	120	20	0	0	100
fixed	4	2	9	677932	3	2	2	1	0	754	1	4	0	112	21	0	0	100
fixed	4	2	10	679431	1	4	4	1	0	546	1	4	0	128	22	0	0	100
fixed	4	2	11	680648	5	2	2	1	0	822	1	4	0	112	23	0	0	100
fixed	4	2	12	682033	4	3	3	1	0	564	1	4	0	120	24	0	0	100
fixed	4	3	1	683374	4	1	1	1	0	643	1	4	0	104	25	0	0	100
fixed	4	3	2	684321	1	2	2	1	0	1027	1	4	0	112	26	0	0	100
fixed	4	3	3	685909	6	4	4	1	0	592	1	4	0	128	27	0	0	100
fixed	4	3	4	687370	2	1	1	1	0	746	1	4	0	104	28	0	0	100
fixed	4	3	5	688686	5	3	3	1	0	690	1	4	0	120	29	0	0	100
fixed	4	3	6	690277	6	4	4	1	0	615	1	4	0	128	30	0	0	100
fixed	4	3	7	691413	3	1	1	1	0	631	1	4	0	104	31	0	0	100
fixed	4	3	8	692980	2	3	3	1	0	716	1	4	0	120	32	0	0	100
fixed	4	3	9	694174	3	2	2	1	0	458	1	4	0	112	33	0	0	100
fixed	4	3	10	695202	1	4	4	1	0	422	1	4	0	128	34	0	0	100
fixed	4	3	11	696185	5	2	2	1	0	805	1	4	0	112	35	0	0	100
fixed	4	3	12	697636	4	3	3	1	0	679	1	4	0	120	36	0	0	100
fixed	4	4	1	699062	4	1	1	1	0	539	1	4	0	104	37	0	0	100
fixed	4	4	2	700108	1	2	2	1	0	863	1	4	0	112	38	0	0	100
fixed	4	4	3	701485	6	4	4	1	0	604	1	4	0	128	39	0	0	100
fixed	4	4	4	702572	2	1	1	1	0	694	1	4	0	104	40	0	0	100
fixed	4	4	5	703598	5	3	3	1	0	723	1	4	0	120	41	0	0	100
fixed	4	4	6	705068	6	4	4	1	0	636	1	4	0	128	42	0	0	100
fixed	4	4	7	706743	3	1	1	1	0	798	1	4	0	104	43	0	0	100
fixed	4	4	8	708238	2	3	3	1	0	950	1	4	0	120	44	0	0	100
fixed	4	4	9	709918	3	2	2	1	0	415	1	4	0	112	45	0	0	100
fixed	4	4	10	711149	1	4	4	1	0	635	1	4	0	128	46	0	0	100
fixed	4	4	11	712769	5	2	2	1	0	942	1	4	0	112	47	0	0	100
fixed	4	4	12	714652	4	3	3	1	0	558	1	4	0	120	48	0	0	100
fixed	4	5	1	715787	4	1	1	1	0	534	1	4	0	104	49	0	0	100
fixed	4	5	2	717217	1	2	2	1	0	810	1	4	0	112	50	0	0	100
fixed	4	5	3	718887	6	4	4	1	0	691	1	4	0	128	51	0	0	100
fixed	4	5	4	720362	2	1	1	1	0	700	1	4	0	104	52	0	0	100
fixed	4	5	5	721462	5	3	3	1	0	622	1	4	0	120	53	0	0	100
fixed	4	5	6	723087	6	4	4	1	0	649	1	4	0	128	54	0	0	100
fixed	4	5	7	724497	3	1	1	1	0	733	1	4	0	104	55	0	0	100
fixed	4	5	8	726108	2	3	3	1	0	898	1	4	0	120	56	0	0	100
fixed	4	5	9	727505	3	2	2	1	0	518	1	4	0	112	57	0	0	100
fixed	4	5	10	728562	1	4	4	1	0	634	1	4	0	128	58	0	0	100
fixed	4	5	11	729562	5	2	2	1	0	1007	1	4	0	112	59	0	0	100
fixed	4	5	12	731015	4	3	3	1	0	562	1	4	0	120	60	0	0	100
fixed	4	6	1	732845	4	1	1	1	0	556	1	4	0	104	61	0	0	100
fixed	4	6	2	733746	1	2	2	1	0	837	1	4	0	112	62	0	0	100
fixed	4	6	3	735527	6	4	4	1	0	602	1	4	0	128	63	0	0	100
fixed	4	6	4	736543	2	1	1	1	0	615	1	4	0	104	64	0	0	100
fixed	4	6	5	737654	5	3	3	1	0	625	1	4	0	120	65	0	0	100
fixed	4	6	6	738859	6	4	4	1	0	621	1	4	0	128	66	0	0	100
fixed	4	6	7	740109	3	1	1	1	0	705	1	4	0	104	67	0	0	100
fixed	4	6	8	741329	2	3	3	1	0	813	1	4	0	120	68	0	0	100
fixed	4	6	9	742864	3	2	2	1	0	404	1	4	0	112	69	0	0	100
fixed	4	6	10	743846	1	4	4	1	0	514	1	4	0	128	70	0	0	100
fixed	4	6	11	744958	5	2	2	1	0	723	1	4	0	112	71	0	0	100
fixed	4	6	12	746252	4	3	3	1	0	684	1	4	0	120	72	0	0	100
fixed	4	7	1	747732	4	1	1	1	0	501	1	4	0	104	73	0	0	100
fixed	4	7	2	749275	1	2	2	1	0	836	1	4	0	112	74	0	0	100
fixed	4	7	3	750449	6	4	4	1	0	603	1	4	0	128	75	0	0	100
fixed	4	7	4	751993	2	1	1	1	0	745	1	4	0	104	76	0	0	100
fixed	4	7	5	753145	5	3	3	1	0	640	1	4	0	120	77	0	0	100
fixed	4	7	6	754321	6	4	4	1	0	614	1	4	0	128	78	0	0	100
fixed	4	7	7	755750	3	1	1	1	0	1153	1	4	0	104	79	0	0	100
fixed	4	7	8	757865	2	3	3	1	0	624	1	4	0	120	80	0	0	100
fixed	4	7	9	758812	3	2	2	1	0	656	1	4	0	112	81	0	0	100
fixed	4	7	10	760317	1	4	4	1	0	584	1	4	0	128	82	0	0	100
fixed	4	7	11	761333	5	2	2	1	0	709	1	4	0	112	83	0	0	100
fixed	4	7	12	762742	4	3	3	1	0	522	1	4	0	120	84	0	0	100
fixed	4	8	1	764339	4	1	1	1	0	622	1	4	0	104	85	0	0	100
fixed	4	8	2	765798	1	2	2	1	0	1088	1	4	0	112	86	0	0	100
fixed	4	8	3	767450	6	4	4	1	0	610	1	4	0	128	87	0	0	100
fixed	4	8	4	768819	2	1	1	1	0	808	1	4	0	104	88	0	0	100
fixed	4	8	5	770268	5	3	3	1	0	659	1	4	0	120	89	0	0	100
fixed	4	8	6	771753	6	4	4	1	0	700	1	4	0	128	90	0	0	100
fixed	4	8	7	773332	3	1	1	1	0	545	1	4	0	104	91	0	0	100
fixed	4	8	8	774857	2	3	3	1	0	801	1	4	0	120	92	0	0	100
fixed	4	8	9	776305	3	2	2	1	0	443	1	4	0	112	93	0	0	100
fixed	4	8	10	777428	1	4	4	1	0	508	1	4	0	128	94	0	0	100
fixed	4	8	11	778448	5	2	2	1	0	672	1	4	0	112	95	0	0	100
fixed	4	8	12	780062	4	3	3	1	0	732	1	4	0	120	96	0	0	100
fixed	4	9	1	781682	4	1	1	1	0	575	1	4	0	104	97	0	0	100
fixed	4	9	2	783140	1	2	2	1	0	762	1	4	0	112	98	0	0	100
fixed	4	9	3	784194	6	4	4	1	0	605	1	4	0	128	99	0	0	100
fixed	4	9	4	785339	2	1	1	1	0	676	1	4	0	104	100	0	0	100
fixed	4	9	5	787022	5	3	3	1	0	717	1	4	0	120	101	0	0	100
fixed	4	9	6	788497	6	4	4	1	0	630	1	4	0	128	102	0	0	100
fixed	4	9	7	789555	3	1	1	1	0	618	1	4	0	104	103	0	0	100
fixed	4	9	8	790577	2	3	3	1	0	615	1	4	0	120	104	0	0	100
fixed	4	9	9	792206	3	2	2	1	0	553	1	4	0	112	105	0	0	100
fixed	4	9	10	793153	1	4	4	1	0	610	1	4	0	128	106	0	0	100
fixed	4	9	11	794542	5	2	2	1	0	703	1	4	0	112	107	0	0	100
fixed	4	9	12	796243	4	3	3	1	0	623	1	4	0	120	108	0	0	100
fixed	4	10	1	797755	4	1	1	1	0	582	1	4	0	104	109	0	0	100
fixed	4	10	2	798842	1	2	2	1	0	760	1	4	0	112	110	0	0	100
fixed	4	10	3	800287	6	4	4	1	0	644	1	4	0	128	111	0	0	100
fixed	4	10	4	801267	2	1	1	1	0	746	1	4	0	104	112	0	0	100
fixed	4	10	5	802925	5	3	3	1	0	724	1	4	0	120	113	0	0	100
fixed	4	10	6	804442	6	4	4	1	0	683	1	4	0	128	114	0	0	100
fixed	4	10	7	805728	3	1	1	1	0	645	1	4	0	104	115	0	0	100
fixed	4	10	8	806844	2	3	3	1	0	748	1	4	0	120	116	0	0	100
fixed	4	10	9	807901	3	2	2	1	0	785	1	4	0	112	117	0	0	100
fixed	4	10	10	809015	1	4	4	1	0	609	1	4	0	128	118	0	0	100
fixed	4	10	11	809972	5	2	2	1	0	961	1	4	0	112	119	0	0	100
fixed	4	10	12	811367	4	3	3	1	0	646	1	4	0	120	120	0	0	100
fixed	5	1	1	812873	4	1	1	1	0	510	1	4	0	136	1	0	0	100
fixed	5	1	2	814404	1	2	2	1	0	926	1	4	0	144	2	0	0	100
fixed	5	1	3	815627	6	4	4	1	0	610	1	4	0	160	3	0	0	100
fixed	5	1	4	816612	2	1	1	1	0	736	1	4	0	136	4	0	0	100
fixed	5	1	5	817672	5	3	3	1	0	627	1	4	0	152	5	0	0	100
fixed	5	1	6	818770	6	4	4	1	0	572	1	4	0	160	6	0	0	100
fixed	5	1	7	820076	3	1	1	1	0	685	1	4	0	136	7	0	0	100
fixed	5	1	8	821361	2	3	3	2	0	1199	2	4	0	152	8	0	0	100
fixed	5	1	9	823200	3	2	2	1	0	577	1	4	0	144	9	0	0	100
fixed	5	1	10	824695	1	4	4	1	0	418	1	4	0	160	10	0	0	100
fixed	5	1	11	825750	5	2	2	1	0	741	1	4	0	144	11	0	0	100
fixed	5	1	12	827330	4	3	3	1	0	602	1	4	0	152	12	0	0	100
fixed	5	2	1	828580	4	1	1	1	0	581	1	4	0	136	13	0	0	100
fixed	5	2	2	829560	1	2	2	1	0	972	1	4	0	144	14	0	0	100
fixed	5	2	3	831411	6	4	4	1	0	621	1	4	0	160	15	0	0	100
fixed	5	2	4	832671	2	1	1	1	0	655	1	4	0	136	16	0	0	100
fixed	5	2	5	833655	5	3	3	1	0	630	1	4	0	152	17	0	0	100
fixed	5	2	6	835279	6	4	4	1	0	633	1	4	0	160	18	0	0	100
fixed	5	2	7	836470	3	1	1	1	0	679	1	4	0	136	19	0	0	100
fixed	5	2	8	837904	2	3	3	1	0	882	1	4	0	152	20	0	0	100
fixed	5	2	9	839331	3	2	2	1	0	486	1	4	0	144	21	0	0	100
fixed	5	2	10	840207	1	4	4	1	0	560	1	4	0	160	22	0	0	100
fixed	5	2	11	841174	5	2	2	1	0	664	1	4	0	144	23	0	0	100
fixed	5	2	12	842218	4	3	3	1	0	563	1	4	0	152	24	0	0	100
fixed	5	3	1	843768	4	1	1	1	0	690	1	4	0	136	25	0	0	100
fixed	5	3	2	844861	1	2	2	1	0	860	1	4	0	144	26	0	0	100
fixed	5	3	3	846127	6	4	4	1	0	630	1	4	0	160	27	0	0	100
fixed	5	3	4	847651	2	1	1	1	0	709	1	4	0	136	28	0	0	100
fixed	5	3	5	848855	5	3	3	1	0	626	1	4	0	152	29	0	0	100
fixed	5	3	6	850098	6	4	4	1	0	669	1	4	0	160	30	0	0	100
fixed	5	3	7	851536	3	1	1	1	0	689	1	4	0	136	31	0	0	100
fixed	5	3	8	853262	2	3	3	1	0	792	1	4	0	152	32	0	0	100
fixed	5	3	9	854715	3	2	2	1	0	482	1	4	0	144	33	0	0	100
fixed	5	3	10	855747	1	4	4	1	0	566	1	4	0	160	34	0	0	100
fixed	5	3	11	856661	5	2	2	1	0	760	1	4	0	144	35	0	0	100
fixed	5	3	12	857739	4	3	3	1	0	778	1	4	0	152	36	0	0	100
fixed	5	4	1	859372	4	1	1	1	0	629	1	4	0	136	37	0	0	100
fixed	5	4	2	860323	1	2	2	1	0	748	1	4	0	144	38	0	0	100
fixed	5	4	3	862014	6	4	4	1	0	613	1	4	0	160	39	0	0	100
fixed	5	4	4	863121	2	1	1	1	0	686	1	4	0	136	40	0	0	100
fixed	5	4	5	864406	5	3	3	1	0	624	1	4	0	152	41	0	0	100
fixed	5	4	6	865582	6	4	4	1	0	598	1	4	0	160	42	0	0	100
fixed	5	4	7	867050	3	1	1	1	0	720	1	4	0	136	43	0	0	100
fixed	5	4	8	868159	2	3	3	1	0	688	1	4	0	152	44	0	0	100
fixed	5	4	9	869261	3	2	2	1	0	514	1	4	0	144	45	0	0	100
fixed	5	4	10	870717	1	4	4	1	0	636	1	4	0	160	46	0	0	100
fixed	5	4	11	871999	5	2	2	1	0	766	1	4	0	144	47	0	0	100
fixed	5	4	12	873665	4	3	3	1	0	560	1	4	0	152	48	0	0	100
fixed	5	5	1	875445	4	1	1	1	0	732	1	4	0	136	49	0	0	100
fixed	5	5	2	876601	1	2	2	1	0	995	1	4	0	144	50	0	0	100
fixed	5	5	3	878357	6	4	4	1	0	593	1	4	0	160	51	0	0	100
fixed	5	5	4	879557	2	1	1	1	0	638	1	4	0	136	52	0	0	100
fixed	5	5	5	880725	5	3	3	1	0	932	1	4	0	152	53	0	0	100
fixed	5	5	6	882510	6	4	4	1	0	609	1	4	0	160	54	0	0	100
fixed	5	5	7	883940	3	1	1	1	0	540	1	4	0	136	55	0	0	100
fixed	5	5	8	885113	2	3	3	1	0	715	1	4	0	152	56	0	0	100
fixed	5	5	9	886213	3	2	2	1	0	604	1	4	0	144	57	0	0	100
fixed	5	5	10	887120	1	4	4	1	0	534	1	4	0	160	58	0	0	100
fixed	5	5	11	888593	5	2	2	1	0	807	1	4	0	144	59	0	0	100
fixed	5	5	12	889887	4	3	3	1	0	632	1	4	0	152	60	0	0	100
fixed	5	6	1	891083	4	1	1	1	0	549	1	4	0	136	61	0	0	100
fixed	5	6	2	891930	1	2	2	1	0	978	1	4	0	144	62	0	0	100
fixed	5	6	3	893686	6	4	4	1	0	624	1	4	0	160	63	0	0	100
fixed	5	6	4	895144	2	1	1	1	0	698	1	4	0	136	64	0	0	100
fixed	5	6	5	896284	5	3	3	2	0	737	2	4	0	152	65	0	0	100
fixed	5	6	6	897411	6	4	4	1	0	610	1	4	0	160	66	0	0	100
fixed	5	6	7	898849	3	1	1	1	0	1141	1	4	0	136	67	0	0	100
fixed	5	6	8	900696	2	3	3	1	0	735	1	4	0	152	68	0	0	100
fixed	5	6	9	902318	3	2	2	1	0	802	1	4	0	144	69	0	0	100
fixed	5	6	10	903475	1	4	4	1	0	617	1	4	0	160	70	0	0	100
fixed	5	6	11	904916	5	2	2	1	0	740	1	4	0	144	71	0	0	100
fixed	5	6	12	906195	4	3	3	1	0	774	1	4	0	152	72	0	0	100
fixed	5	7	1	907875	4	1	1	1	0	598	1	4	0	136	73	0	0	100
fixed	5	7	2	909149	1	2	2	1	0	769	1	4	0	144	74	0	0	100
fixed	5	7	3	910583	6	4	4	2	0	836	2	4	0	160	75	0	0	100
fixed	5	7	4	911768	2	1	1	1	0	865	1	4	0	136	76	0	0	100
fixed	5	7	5	913051	5	3	3	1	0	715	1	4	0	152	77	0	0	100
fixed	5	7	6	914735	6	4	4	1	0	596	1	4	0	160	78	0	0	100
fixed	5	7	7	915946	3	1	1	1	0	849	1	4	0	136	79	0	0	100
fixed	5	7	8	917289	2	3	3	1	0	664	1	4	0	152	80	0	0	100
fixed	5	7	9	918675	3	2	2	1	0	645	1	4	0	144	81	0	0	100
fixed	5	7	10	920156	1	4	4	1	0	462	1	4	0	160	82	0	0	100
fixed	5	7	11	921164	5	2	2	1	0	828	1	4	0	144	83	0	0	100
fixed	5	7	12	922286	4	3	3	1	0	748	1	4	0	152	84	0	0	100
fixed	5	8	1	923864	4	1	1	1	0	473	1	4	0	136	85	0	0	100
fixed	5	8	2	924710	1	2	2	1	0	910	1	4	0	144	86	0	0	100
fixed	5	8	3	926219	6	4	4	1	0	653	1	4	0	160	87	0	0	100
fixed	5	8	4	927252	2	1	1	1	0	706	1	4	0	136	88	0	0	100
fixed	5	8	5	928915	5	3	3	1	0	643	1	4	0	152	89	0	0	100
fixed	5	8	6	930413	6	4	4	1	0	596	1	4	0	160	90	0	0	100
fixed	5	8	7	931981	3	1	1	1	0	697	1	4	0	136	91	0	0	100
fixed	5	8	8	933520	2	3	3	1	0	680	1	4	0	152	92	0	0	100
fixed	5	8	9	935143	3	2	2	1	0	779	1	4	0	144	93	0	0	100
fixed	5	8	10	936386	1	4	4	1	0	447	1	4	0	160	94	0	0	100
fixed	5	8	11	937708	5	2	2	1	0	743	1	4	0	144	95	0	0	100
fixed	5	8	12	938743	4	3	3	1	0	739	1	4	0	152	96	0	0	100
fixed	5	9	1	940688	4	1	1	1	0	648	1	4	0	136	97	0	0	100
fixed	5	9	2	941766	1	2	2	1	0	875	1	4	0	144	98	0	0	100
fixed	5	9	3	943140	6	4	4	1	0	537	1	4	0	160	99	0	0	100
fixed	5	9	4	944637	2	1	1	1	0	857	1	4	0	136	100	0	0	100
fixed	5	9	5	946254	5	3	3	1	0	773	1	4	0	152	101	0	0	100
fixed	5	9	6	947472	6	4	4	1	0	657	1	4	0	160	102	0	0	100
fixed	5	9	7	948557	3	1	1	1	0	827	1	4	0	136	103	0	0	100
fixed	5	9	8	950136	2	3	3	1	0	985	1	4	0	152	104	0	0	100
fixed	5	9	9	951870	3	2	2	1	0	679	1	4	0	144	105	0	0	100
fixed	5	9	10	953373	1	4	4	1	0	487	1	4	0	160	106	0	0	100
fixed	5	9	11	954314	5	2	2	1	0	744	1	4	0	144	107	0	0	100
fixed	5	9	12	955783	4	3	3	1	0	761	1	4	0	152	108	0	0	100
fixed	5	10	1	957714	4	1	1	1	0	535	1	4	0	136	109	0	0	100
fixed	5	10	2	959130	1	2	2	1	0	980	1	4	0	144	110	0	0	100
fixed	5	10	3	960509	6	4	4	1	0	609	1	4	0	160	111	0	0	100
fixed	5	10	4	961632	2	1	1	1	0	690	1	4	0	136	112	0	0	100
fixed	5	10	5	963278	5	3	3	1	0	716	1	4	0	152	113	0	0	100
fixed	5	10	6	964673	6	4	4	1	0	633	1	4	0	160	114	0	0	100
fixed	5	10	7	966294	3	1	1	1	0	732	1	4	0	136	115	0	0	100
fixed	5	10	8	967460	2	3	3	1	0	923	1	4	0	152	116	0	0	100
fixed	5	10	9	969031	3	2	2	1	0	448	1	4	0	144	117	0	0	100
fixed	5	10	10	969902	1	4	4	1	0	588	1	4	0	160	118	0	0	100
fixed	5	10	11	971315	5	2	0	0	2	0	3	4	0	144	118	0	1	99
fixed	5	10	12	974587	4	3	3	1	0	725	1	4	0	152	119	0	1	99
random	6	1	1	1155463	6	1	1	1	0	856	1	4	0	168	1	0	0	100
random	6	1	2	1156935	4	4	4	1	0	673	1	4	0	192	2	0	0	100
random	6	1	3	1158119	2	2	2	1	0	1336	1	4	0	176	3	0	0	100
random	6	1	4	1160066	3	3	3	1	0	589	1	4	0	184	4	0	0	100
random	6	1	5	1161299	5	2	2	1	0	817	1	4	0	176	5	0	0	100
random	6	1	6	1163066	1	4	4	1	0	550	1	4	0	192	6	0	0	100
random	6	1	7	1163943	6	1	1	1	0	729	1	4	0	168	7	0	0	100
random	6	1	8	1165084	2	3	3	1	0	649	1	4	0	184	8	0	0	100
random	6	1	9	1166648	4	2	2	1	0	446	1	4	0	176	9	0	0	100
random	6	1	10	1168075	1	1	1	1	0	722	1	4	0	168	10	0	0	100
random	6	1	11	1169250	5	4	4	1	0	640	1	4	0	192	11	0	0	100
random	6	1	12	1170688	3	3	3	1	0	723	1	4	0	184	12	0	0	100
random	6	1	13	1171989	5	2	2	2	0	972	2	4	0	176	13	0	0	100
random	6	1	14	1173770	1	4	4	1	0	649	1	4	0	192	14	0	0	100
random	6	1	15	1175318	3	1	1	1	0	791	1	4	0	168	15	0	0	100
random	6	1	16	1177087	4	3	3	1	0	668	1	4	0	184	16	0	0	100
random	6	1	17	1178539	6	4	4	1	0	670	1	4	0	192	17	0	0	100
random	6	1	18	1180207	2	1	1	1	0	672	1	4	0	168	18	0	0	100
random	6	1	19	1181613	5	3	3	1	0	724	1	4	0	184	19	0	0	100
random	6	1	20	1183269	2	2	2	1	0	542	1	4	0	176	20	0	0	100
random	6	1	21	1184308	3	3	3	1	0	826	1	4	0	184	21	0	0	100
random	6	1	22	1185744	6	1	1	1	0	725	1	4	0	168	22	0	0	100
random	6	1	23	1186837	4	2	2	1	0	759	1	4	0	176	23	0	0	100
random	6	1	24	1188483	1	4	4	1	0	545	1	4	0	192	24	0	0	100
random	6	1	25	1190033	4	3	3	1	0	807	1	4	0	184	25	0	0	100
random	6	1	26	1191174	2	1	1	1	0	727	1	4	0	168	26	0	0	100
random	6	1	27	1192868	5	2	2	2	0	1192	2	4	0	176	27	0	0	100
random	6	1	28	1194676	6	4	4	1	0	659	1	4	0	192	28	0	0	100
random	6	1	29	1195834	1	3	3	1	0	802	1	4	0	184	29	0	0	100
random	6	1	30	1197650	5	2	2	1	0	685	1	4	0	176	30	0	0	100
random	6	1	31	1198980	2	1	1	1	0	581	1	4	0	168	31	0	0	100
random	6	1	32	1200186	3	3	3	1	0	778	1	4	0	184	32	0	0	100
random	6	1	33	1201636	6	4	4	1	0	380	1	4	0	192	33	0	0	100
random	6	1	34	1202663	4	2	2	1	0	601	1	4	0	176	34	0	0	100
random	6	1	35	1203905	3	4	4	1	0	708	1	4	0	192	35	0	0	100
random	6	1	36	1205341	1	1	1	1	0	671	1	4	0	168	36	0	0	100
random	6	1	37	1206791	3	4	4	1	0	642	1	4	0	192	37	0	0	100
random	6	1	38	1208133	5	3	3	1	0	1009	1	4	0	184	38	0	0	100
random	6	1	39	1210179	6	1	1	1	0	723	1	4	0	168	39	0	0	100
random	6	1	40	1211227	1	2	2	1	0	886	1	4	0	176	40	0	0	100
random	6	1	41	1212813	2	3	3	1	0	619	1	4	0	184	41	0	0	100
random	6	1	42	1213797	4	4	4	1	0	601	1	4	0	192	42	0	0	100
random	6	1	43	1214873	1	2	2	1	0	892	1	4	0	176	43	0	0	100
random	6	1	44	1216565	6	3	3	1	0	660	1	4	0	184	44	0	0	100
random	6	1	45	1217723	3	1	1	1	0	603	1	4	0	168	45	0	0	100
random	6	1	46	1219305	4	4	4	1	0	648	1	4	0	192	46	0	0	100
random	6	1	47	1220479	2	2	2	1	0	718	1	4	0	176	47	0	0	100
random	6	1	48	1221650	5	1	1	1	0	765	1	4	0	168	48	0	0	100
random	6	1	49	1222964	2	3	3	1	0	797	1	4	0	184	49	0	0	100
random	6	1	50	1224508	3	1	1	1	0	764	1	4	0	168	50	0	0	100
random	6	1	51	1226234	1	4	4	1	0	507	1	4	0	192	51	0	0	100
random	6	1	52	1227404	5	3	3	1	0	721	1	4	0	184	52	0	0	100
random	6	1	53	1228803	3	2	2	1	0	590	1	4	0	176	53	0	0	100
random	6	1	54	1229790	6	4	4	1	0	628	1	4	0	192	54	0	0	100
random	6	1	55	1230842	4	2	2	1	0	551	1	4	0	176	55	0	0	100
random	6	1	56	1231856	1	1	1	1	0	644	1	4	0	168	56	0	0	100
random	6	1	57	1233314	5	4	4	1	0	599	1	4	0	192	57	0	0	100
random	6	1	58	1234897	2	1	1	1	0	843	1	4	0	168	58	0	0	100
random	6	1	59	1236274	6	2	2	1	0	1377	1	4	0	176	59	0	0	100
random	6	1	60	1238425	4	3	3	1	0	534	1	4	0	184	60	0	0	100
random	6	1	61	1240190	1	2	2	1	0	923	1	4	0	176	61	0	0	100
random	6	1	62	1241581	6	4	4	1	0	744	1	4	0	192	62	0	0	100
random	6	1	63	1243247	4	1	1	1	0	762	1	4	0	168	63	0	0	100
random	6	1	64	1244944	2	2	2	1	0	890	1	4	0	176	64	0	0	100
random	6	1	65	1246234	4	3	3	1	0	572	1	4	0	184	65	0	0	100
random	6	1	66	1247530	3	1	1	1	0	748	1	4	0	168	66	0	0	100
random	6	1	67	1249023	1	3	3	1	0	1117	1	4	0	184	67	0	0	100
random	6	1	68	1251094	5	4	4	1	0	694	1	4	0	192	68	0	0	100
random	6	1	69	1252700	2	2	2	1	0	890	1	4	0	176	69	0	0	100
random	6	1	70	1254483	3	1	1	1	0	534	1	4	0	168	70	0	0	100
random	6	1	71	1255716	5	4	4	1	0	642	1	4	0	192	71	0	0	100
random	6	1	72	1256754	6	3	3	1	0	830	1	4	0	184	72	0	0	100
random	6	1	73	1258551	2	1	1	1	0	697	1	4	0	168	73	0	0	100
random	6	1	74	1260004	5	3	3	1	0	708	1	4	0	184	74	0	0	100
random	6	1	75	1261396	1	4	4	1	0	585	1	4	0	192	75	0	0	100
random	6	1	76	1262546	6	2	2	1	0	1048	1	4	0	176	76	0	0	100
random	6	1	77	1264300	2	1	1	1	0	790	1	4	0	168	77	0	0	100
random	6	1	78	1265664	4	4	4	1	0	669	1	4	0	192	78	0	0	100
random	6	1	79	1267237	3	2	2	1	0	713	1	4	0	176	79	0	0	100
random	6	1	80	1268877	4	3	3	1	0	564	1	4	0	184	80	0	0	100
random	6	1	81	1270340	1	4	4	1	0	495	1	4	0	192	81	0	0	100
random	6	1	82	1271262	5	1	1	1	0	560	1	4	0	168	82	0	0	100
random	6	1	83	1272515	3	2	2	1	0	779	1	4	0	176	83	0	0	100
random	6	1	84	1273815	6	3	3	1	0	667	1	4	0	184	84	0	0	100
random	6	1	85	1275293	3	2	2	1	0	964	1	4	0	176	85	0	0	100
random	6	1	86	1277217	1	3	3	1	0	635	1	4	0	184	86	0	0	100
random	6	1	87	1278686	4	4	4	1	0	661	1	4	0	192	87	0	0	100
random	6	1	88	1279703	2	1	1	1	0	642	1	4	0	168	88	0	0	100
random	6	1	89	1280941	6	4	4	1	0	597	1	4	0	192	89	0	0	100
random	6	1	90	1282508	3	3	3	1	0	811	1	4	0	184	90	0	0	100
random	6	1	91	1284253	5	4	4	1	0	641	1	4	0	192	91	0	0	100
random	6	1	92	1285748	1	2	2	1	0	874	1	4	0	176	92	0	0	100
random	6	1	93	1287240	5	1	1	1	0	546	1	4	0	168	93	0	0	100
random	6	1	94	1288110	4	3	3	1	0	718	1	4	0	184	94	0	0	100
random	6	1	95	1289197	6	1	1	1	0	1160	1	4	0	168	95	0	0	100
random	6	1	96	1291235	2	2	2	1	0	817	1	4	0	176	96	0	0	100
random	6	1	97	1293053	4	3	3	1	0	804	1	4	0	184	97	0	0	100
random	6	1	98	1294355	3	2	2	1	0	605	1	4	0	176	98	0	0	100
random	6	1	99	1295744	6	3	3	1	0	682	1	4	0	184	99	0	0	100
random	6	1	100	1297249	1	4	4	1	0	554	1	4	0	192	100	0	0	100
random	6	1	101	1298208	4	1	1	1	0	850	1	4	0	168	101	0	0	100
random	6	1	102	1299404	5	2	2	1	0	863	1	4	0	176	102	0	0	100
random	6	1	103	1301212	2	4	4	1	0	627	1	4	0	192	103	0	0	100
random	6	1	104	1302649	3	1	1	1	0	863	1	4	0	168	104	0	0	100
random	6	1	105	1304047	1	3	3	1	0	707	1	4	0	184	105	0	0	100
random	6	1	106	1305678	2	2	2	1	0	942	1	4	0	176	106	0	0	100
random	6	1	107	1306928	5	4	4	1	0	633	1	4	0	192	107	0	0	100
random	6	1	108	1308132	6	1	1	1	0	710	1	4	0	168	108	0	0	100
random	6	1	109	1309794	5	4	4	1	0	679	1	4	0	192	109	0	0	100
random	6	1	110	1311263	6	3	3	1	0	721	1	4	0	184	110	0	0	100
random	6	1	111	1312704	2	2	2	1	0	844	1	4	0	176	111	0	0	100
random	6	1	112	1314139	3	1	1	1	0	655	1	4	0	168	112	0	0	100
random	6	1	113	1315258	1	2	2	1	0	1040	1	4	0	176	113	0	0	100
random	6	1	114	1316621	2	3	3	1	0	750	1	4	0	184	114	0	0	100
random	6	1	115	1317894	3	1	1	1	0	713	1	4	0	168	115	0	0	100
random	6	1	116	1319199	4	4	4	1	0	561	1	4	0	192	116	0	0	100
random	6	1	117	1320678	6	1	1	1	0	898	1	4	0	168	117	0	0	100
random	6	1	118	1322593	5	3	3	1	0	713	1	4	0	184	118	0	0	100
random	6	1	119	1323840	1	4	4	1	0	581	1	4	0	192	119	0	0	100
random	6	1	120	1325406	4	2	2	1	0	874	1	4	0	176	120	0	0	100
fixed	7	1	1	1327418	4	1	1	1	0	573	1	4	0	200	1	0	0	100
fixed	7	1	2	1328935	1	2	2	1	0	725	1	4	0	208	2	0	0	100
fixed	7	1	3	1330300	6	4	4	1	0	563	1	4	0	224	3	0	0	100
fixed	7	1	4	1331245	2	1	1	1	0	666	1	4	0	200	4	0	0	100
fixed	7	1	5	1332790	5	3	3	1	0	657	1	4	0	216	5	0	0	100
fixed	7	1	6	1333758	6	4	4	1	0	616	1	4	0	224	6	0	0	100
fixed	7	1	7	1334989	3	1	1	1	0	604	1	4	0	200	7	0	0	100
fixed	7	1	8	1336093	2	3	3	1	0	869	1	4	0	216	8	0	0	100
fixed	7	1	9	1337657	3	2	2	1	0	467	1	4	0	208	9	0	0	100
fixed	7	1	10	1339088	1	4	4	1	0	607	1	4	0	224	10	0	0	100
fixed	7	1	11	1340296	5	2	2	1	0	740	1	4	0	208	11	0	0	100
fixed	7	1	12	1341773	4	3	3	1	0	997	1	4	0	216	12	0	0	100
fixed	7	2	1	1343777	4	1	1	1	0	744	1	4	0	200	1	0	0	8
fixed	7	2	2	1345528	1	2	2	1	0	814	1	4	0	208	2	0	0	14
fixed	7	2	3	1347368	6	4	4	1	0	608	1	4	0	224	3	0	0	20
fixed	7	2	4	1348857	2	1	1	1	0	665	1	4	0	200	4	0	0	25
fixed	7	2	5	1349987	5	3	3	1	0	633	1	4	0	216	5	0	0	29
fixed	7	2	6	1351287	6	4	4	1	0	570	1	4	0	224	6	0	0	33
fixed	7	2	7	1352700	3	1	1	1	0	694	1	4	0	200	7	0	0	37
fixed	7	2	8	1354054	2	3	3	1	0	684	1	4	0	216	8	0	0	40
fixed	7	2	9	1355379	3	2	2	1	0	573	1	4	0	208	9	0	0	43
fixed	7	2	10	1356805	1	4	4	1	0	545	1	4	0	224	10	0	0	45
fixed	7	2	11	1357945	5	2	2	1	0	896	1	4	0	208	11	0	0	48
fixed	7	2	12	1359721	4	3	3	1	0	613	1	4	0	216	12	0	0	50
fixed	7	3	1	1361036	4	1	1	1	0	637	1	4	0	200	1	0	0	4
fixed	7	3	2	1362698	1	2	2	1	0	727	1	4	0	208	2	0	0	8
fixed	7	3	3	1364164	6	4	4	1	0	568	1	4	0	224	3	0	0	11
fixed	7	3	4	1365383	2	1	1	1	0	581	1	4	0	200	4	0	0	14
fixed	7	3	5	1366325	5	3	3	1	0	637	1	4	0	216	5	0	0	17
fixed	7	3	6	1367436	6	4	4	1	0	574	1	4	0	224	6	0	0	20
fixed	7	3	7	1368580	3	1	1	1	0	798	1	4	0	200	7	0	0	23
fixed	7	3	8	1370360	2	3	3	1	0	666	1	4	0	216	8	0	0	25
fixed	7	3	9	1371744	3	2	2	1	0	567	1	4	0	208	9	0	0	27
fixed	7	3	10	1373343	1	4	4	1	0	668	1	4	0	224	10	0	0	29
fixed	7	3	11	1374310	5	2	2	1	0	779	1	4	0	208	11	0	0	31
fixed	7	3	12	1375956	4	3	3	1	0	661	1	4	0	216	12	0	0	33
fixed	7	4	1	1377811	4	1	1	1	0	566	1	4	0	200	1	0	0	3
fixed	7	4	2	1378986	1	2	2	1	0	885	1	4	0	208	2	0	0	5
fixed	7	4	3	1380360	6	4	4	1	0	579	1	4	0	224	3	0	0	8
fixed	7	4	4	1381821	2	1	1	1	0	668	1	4	0	200	4	0	0	10
fixed	7	4	5	1383415	5	3	3	1	0	665	1	4	0	216	5	0	0	12
fixed	7	4	6	1384687	6	4	4	1	0	611	1	4	0	224	6	0	0	14
fixed	7	4	7	1385816	3	1	1	1	0	691	1	4	0	200	7	0	0	16
fixed	7	4	8	1387193	2	3	3	1	0	961	1	4	0	216	8	0	0	18
fixed	7	4	9	1388973	3	2	2	1	0	445	1	4	0	208	9	0	0	20
fixed	7	4	10	1389739	1	4	4	1	0	573	1	4	0	224	10	0	0	22
fixed	7	4	11	1391258	5	2	2	1	0	829	1	4	0	208	11	0	0	23
fixed	7	4	12	1393059	4	3	3	1	0	673	1	4	0	216	12	0	0	25
fixed	7	5	1	1395020	4	1	1	1	0	517	1	4	0	200	1	0	0	2
fixed	7	5	2	1396485	1	2	2	1	0	856	1	4	0	208	2	0	0	4
fixed	7	5	3	1398338	6	4	4	1	0	625	1	4	0	224	3	0	0	6
fixed	7	5	4	1399663	2	1	1	1	0	665	1	4	0	200	4	0	0	8
fixed	7	5	5	1400645	5	3	3	1	0	640	1	4	0	216	5	0	0	9
fixed	7	5	6	1401594	6	4	4	1	0	591	1	4	0	224	6	0	0	11
fixed	7	5	7	1402862	3	1	1	1	0	849	1	4	0	200	7	0	0	13
fixed	7	5	8	1404513	2	3	3	1	0	779	1	4	0	216	8	0	0	14
fixed	7	5	9	1405724	3	2	2	1	0	1105	1	4	0	208	9	0	0	16
fixed	7	5	10	1407243	1	4	4	1	0	520	1	4	0	224	10	0	0	17
fixed	7	5	11	1408448	5	2	2	1	0	797	1	4	0	208	11	0	0	19
fixed	7	5	12	1409562	4	3	3	1	0	838	1	4	0	216	12	0	0	20
fixed	7	6	1	1411544	4	1	1	1	0	706	1	4	0	200	1	0	0	2
fixed	7	6	2	1412856	1	2	2	1	0	962	1	4	0	208	2	0	0	3
fixed	7	6	3	1414149	6	4	4	1	0	651	1	4	0	224	3	0	0	5
fixed	7	6	4	1415677	2	1	1	1	0	699	1	4	0	200	4	0	0	6
fixed	7	6	5	1416852	5	3	3	1	0	601	1	4	0	216	5	0	0	8
fixed	7	6	6	1417909	6	4	4	1	0	564	1	4	0	224	6	0	0	9
fixed	7	6	7	1419423	3	1	1	1	0	676	1	4	0	200	7	0	0	10
fixed	7	6	8	1420730	2	3	3	1	0	732	1	4	0	216	8	0	0	12
fixed	7	6	9	1421936	3	2	2	1	0	913	1	4	0	208	9	0	0	13
fixed	7	6	10	1423147	1	4	4	1	0	694	1	4	0	224	10	0	0	14
fixed	7	6	11	1424589	5	2	2	1	0	769	1	4	0	208	11	0	0	15
fixed	7	6	12	1426018	4	3	3	1	0	725	1	4	0	216	12	0	0	17
fixed	7	7	1	1427767	4	1	1	1	0	554	1	4	0	200	1	0	0	1
fixed	7	7	2	1429164	1	2	2	1	0	816	1	4	0	208	2	0	0	3
fixed	7	7	3	1430698	6	4	4	1	0	575	1	4	0	224	3	0	0	4
fixed	7	7	4	1431749	2	1	1	1	0	666	1	4	0	200	4	0	0	5
fixed	7	7	5	1433419	5	3	3	1	0	691	1	4	0	216	5	0	0	6
fixed	7	7	6	1434498	6	4	4	1	0	709	1	4	0	224	6	0	0	8
fixed	7	7	7	1435708	3	1	1	1	0	770	1	4	0	200	7	0	0	9
fixed	7	7	8	1436779	2	3	3	1	0	765	1	4	0	216	8	0	0	10
fixed	7	7	9	1437870	3	2	2	1	0	599	1	4	0	208	9	0	0	11
fixed	7	7	10	1439016	1	4	4	1	0	566	1	4	0	224	10	0	0	12
fixed	7	7	11	1439914	5	2	2	1	0	584	1	4	0	208	11	0	0	13
fixed	7	7	12	1441180	4	3	3	1	0	770	1	4	0	216	12	0	0	14
fixed	7	8	1	1443221	4	1	1	1	0	652	1	4	0	200	1	0	0	1
fixed	7	8	2	1444580	1	2	2	1	0	747	1	4	0	208	2	0	0	2
fixed	7	8	3	1446001	6	4	4	1	0	606	1	4	0	224	3	0	0	3
fixed	7	8	4	1447390	2	1	1	1	0	716	1	4	0	200	4	0	0	5
fixed	7	8	5	1448858	5	3	3	1	0	613	1	4	0	216	5	0	0	6
fixed	7	8	6	1450492	6	4	4	1	0	616	1	4	0	224	6	0	0	7
fixed	7	8	7	1451743	3	1	1	1	0	707	1	4	0	200	7	0	0	8
fixed	7	8	8	1453016	2	3	3	1	0	909	1	4	0	216	8	0	0	9
fixed	7	8	9	1454249	3	2	2	1	0	625	1	4	0	208	9	0	0	10
fixed	7	8	10	1455244	1	4	4	1	0	527	1	4	0	224	10	0	0	11
fixed	7	8	11	1456144	5	2	2	1	0	657	1	4	0	208	11	0	0	12
fixed	7	8	12	1457479	4	3	3	1	0	680	1	4	0	216	12	0	0	13
fixed	7	9	1	1459160	4	1	1	1	0	553	1	4	0	200	1	0	0	1
fixed	7	9	2	1460738	1	2	2	1	0	726	1	4	0	208	2	0	0	2
fixed	7	9	3	1462463	6	4	4	1	0	605	1	4	0	224	3	0	0	3
fixed	7	9	4	1464055	2	1	1	1	0	729	1	4	0	200	4	0	0	4
fixed	7	9	5	1465802	5	3	3	1	0	648	1	4	0	216	5	0	0	5
fixed	7	9	6	1467071	6	4	4	1	0	674	1	4	0	224	6	0	0	6
fixed	7	9	7	1468105	3	1	1	1	0	1014	1	4	0	200	7	0	0	7
fixed	7	9	8	1469470	2	3	3	1	0	724	1	4	0	216	8	0	0	8
fixed	7	9	9	1470896	3	2	2	1	0	456	1	4	0	208	9	0	0	9
fixed	7	9	10	1471955	1	4	4	1	0	427	1	4	0	224	10	0	0	9
fixed	7	9	11	1473030	5	2	2	1	0	725	1	4	0	208	11	0	0	10
fixed	7	9	12	1474569	4	3	3	1	0	628	1	4	0	216	12	0	0	11
fixed	7	10	1	1475801	4	1	1	1	0	544	1	4	0	200	1	0	0	1
fixed	7	10	2	1476643	1	2	2	2	0	1237	2	4	0	208	2	0	0	2
fixed	7	10	3	1478448	6	4	4	1	0	640	1	4	0	224	3	0	0	3
fixed	7	10	4	1479627	2	1	1	1	0	1670	1	4	0	200	4	0	0	4
fixed	7	10	5	1481855	5	3	3	1	0	776	1	4	0	216	5	0	0	4
fixed	7	10	6	1483107	6	4	4	1	0	611	1	4	0	224	6	0	0	5
fixed	7	10	7	1484438	3	1	1	1	0	746	1	4	0	200	7	0	0	6
fixed	7	10	8	1485854	2	3	3	1	0	735	1	4	0	216	8	0	0	7
fixed	7	10	9	1487378	3	2	2	1	0	774	1	4	0	208	9	0	0	8
fixed	7	10	10	1488493	1	4	4	1	0	903	1	4	0	224	10	0	0	8
fixed	7	10	11	1489732	5	2	2	1	0	659	1	4	0	208	11	0	0	9
fixed	7	10	12	1491194	4	3	3	1	0	708	1	4	0	216	12	0	0	10
