type	block	sequ.	trial	time	Pos.	Color	Button	NumRsp	Resp_1	RT_1	R_Code	Resp_2	RT_2	Trigg.	n_hit	n_inc	n_miss	score_%

random	1	1	1	2004	6	1	1	1	0	1226	1	4	0	8	1	0	0	100
random	1	1	2	3654	4	4	4	1	0	996	1	4	0	32	2	0	0	100
random	1	1	3	5610	2	2	2	3	0	1241	2	4	0	16	3	0	0	100
random	1	1	4	7878	3	3	3	1	0	609	1	4	0	24	4	0	0	100
random	1	1	5	8894	5	2	2	1	0	1030	1	4	0	16	5	0	0	100
random	1	1	6	10523	1	4	4	1	0	905	1	4	0	32	6	0	0	100
random	1	1	7	11970	6	1	1	1	0	740	1	4	0	8	7	0	0	100
random	1	1	8	13483	2	3	3	1	0	1067	1	4	0	24	8	0	0	100
random	1	1	9	15200	4	2	2	1	0	643	1	4	0	16	9	0	0	100
random	1	1	10	16156	1	1	1	1	0	1098	1	4	0	8	10	0	0	100
random	1	1	11	18099	5	4	4	1	0	624	1	4	0	32	11	0	0	100
random	1	1	12	19393	3	3	3	1	0	1330	1	4	0	24	12	0	0	100
random	1	1	13	21904	5	2	2	1	0	855	1	4	0	16	13	0	0	100
random	1	1	14	23081	1	4	4	1	0	941	1	4	0	32	14	0	0	100
random	1	1	15	24756	3	1	1	1	0	878	1	4	0	8	15	0	0	100
random	1	1	16	26199	4	3	3	1	0	1681	1	4	0	24	16	0	0	100
random	1	1	17	28529	6	4	4	1	0	1127	1	4	0	32	17	0	0	100
random	1	1	18	30234	2	1	1	1	0	886	1	4	0	8	18	0	0	100
random	1	1	19	31765	5	3	3	1	0	1461	1	4	0	24	19	0	0	100
random	1	1	20	33980	2	2	2	1	0	792	1	4	0	16	20	0	0	100
random	1	1	21	35160	3	3	3	1	0	1126	1	4	0	24	21	0	0	100
random	1	1	22	37316	6	1	1	1	0	810	1	4	0	8	22	0	0	100
random	1	1	23	38572	4	2	2	1	0	1093	1	4	0	16	23	0	0	100
random	1	1	24	40352	1	4	4	1	0	794	1	4	0	32	24	0	0	100
random	1	1	25	42122	4	3	3	1	0	1199	1	4	0	24	25	0	0	100
random	1	1	26	43615	2	1	1	1	0	1152	1	4	0	8	26	0	0	100
random	1	1	27	45512	5	2	2	1	0	1223	1	4	0	16	27	0	0	100
random	1	1	28	47108	6	4	4	1	0	964	1	4	0	32	28	0	0	100
random	1	1	29	48639	1	3	3	1	0	1115	1	4	0	24	29	0	0	100
random	1	1	30	50605	5	2	2	1	0	808	1	4	0	16	30	0	0	100
random	1	1	31	51964	2	1	1	1	0	934	1	4	0	8	31	0	0	100
random	1	1	32	53786	3	3	3	1	0	929	1	4	0	24	32	0	0	100
random	1	1	33	55464	6	4	4	1	0	1098	1	4	0	32	33	0	0	100
random	1	1	34	56979	4	2	2	1	0	1001	1	4	0	16	34	0	0	100
random	1	1	35	58352	3	4	4	1	0	871	1	4	0	32	35	0	0	100
random	1	1	36	59991	1	1	1	1	0	850	1	4	0	8	36	0	0	100
random	1	1	37	61687	3	4	4	1	0	770	1	4	0	32	37	0	0	100
random	1	1	38	63013	5	3	3	1	0	1498	1	4	0	24	38	0	0	100
random	1	1	39	64844	6	1	1	1	0	860	1	4	0	8	39	0	0	100
random	1	1	40	66281	1	2	2	1	0	1063	1	4	0	16	40	0	0	100
random	1	1	41	68116	2	3	3	1	0	922	1	4	0	24	41	0	0	100
random	1	1	42	69750	4	4	4	1	0	933	1	4	0	32	42	0	0	100
random	1	1	43	71030	1	2	2	1	0	1030	1	4	0	16	43	0	0	100
random	1	1	44	72627	6	3	3	1	0	1058	1	4	0	24	44	0	0	100
random	1	1	45	74605	3	1	1	1	0	1135	1	4	0	8	45	0	0	100
random	1	1	46	76514	4	4	4	1	0	670	1	4	0	32	46	0	0	100
random	1	1	47	77690	2	2	2	1	0	1028	1	4	0	16	47	0	0	100
random	1	1	48	79110	5	1	1	1	0	1065	1	4	0	8	48	0	0	100
random	1	1	49	81168	2	3	3	1	0	1249	1	4	0	24	49	0	0	100
random	1	1	50	83352	3	1	1	1	0	869	1	4	0	8	50	0	0	100
random	1	1	51	85081	1	4	4	1	0	691	1	4	0	32	51	0	0	100
random	1	1	52	86407	5	3	3	1	0	1155	1	4	0	24	52	0	0	100
random	1	1	53	87878	3	2	2	1	0	765	1	4	0	16	53	0	0	100
random	1	1	54	89437	6	4	4	1	0	1010	1	4	0	32	54	0	0	100
random	1	1	55	91473	4	2	2	1	0	957	1	4	0	16	55	0	0	100
random	1	1	56	92949	1	1	1	1	0	1046	1	4	0	8	56	0	0	100
random	1	1	57	94768	5	4	4	1	0	769	1	4	0	32	57	0	0	100
random	1	1	58	95930	2	1	1	1	0	1168	1	4	0	8	58	0	0	100
random	1	1	59	97821	6	2	2	1	0	1288	1	4	0	16	59	0	0	100
random	1	1	60	99551	4	3	3	1	0	894	1	4	0	24	60	0	0	100
random	1	1	61	101083	1	2	2	1	0	1077	1	4	0	16	61	0	0	100
random	1	1	62	102922	6	4	4	1	0	847	1	4	0	32	62	0	0	100
random	1	1	63	104459	4	1	1	1	0	838	1	4	0	8	63	0	0	100
random	1	1	64	105709	2	2	2	1	0	1153	1	4	0	16	64	0	0	100
random	1	1	65	107219	4	3	3	1	0	1002	1	4	0	24	65	0	0	100
random	1	1	66	108858	3	1	1	1	0	836	1	4	0	8	66	0	0	100
random	1	1	67	110544	1	3	3	1	0	1045	1	4	0	24	67	0	0	100
random	1	1	68	112136	5	4	4	1	0	841	1	4	0	32	68	0	0	100
random	1	1	69	113803	2	2	2	1	0	1243	1	4	0	16	69	0	0	100
random	1	1	70	115803	3	1	1	1	0	798	1	4	0	8	70	0	0	100
random	1	1	71	116925	5	4	4	1	0	718	1	4	0	32	71	0	0	100
random	1	1	72	118186	6	3	3	1	0	1129	1	4	0	24	72	0	0	100
random	1	1	73	120598	2	1	1	1	0	1251	1	4	0	8	73	0	0	100
random	1	1	74	122871	5	3	3	1	0	962	1	4	0	24	74	0	0	100
random	1	1	75	124869	1	4	4	1	0	798	1	4	0	32	75	0	0	100
random	1	1	76	126536	6	2	2	1	0	696	1	4	0	16	76	0	0	100
random	1	1	77	127547	2	1	1	1	0	948	1	4	0	8	77	0	0	100
random	1	1	78	129138	4	4	4	1	0	697	1	4	0	32	78	0	0	100
random	1	1	79	130688	3	2	2	1	0	943	1	4	0	16	79	0	0	100
random	1	1	80	131943	4	3	3	1	0	794	1	4	0	24	80	0	0	100
random	1	1	81	133119	1	4	4	1	0	793	1	4	0	32	81	0	0	100
random	1	1	82	134523	5	1	1	1	0	861	1	4	0	8	82	0	0	100
random	1	1	83	136085	3	2	2	1	0	1147	1	4	0	16	83	0	0	100
random	1	1	84	137961	6	3	3	1	0	1028	1	4	0	24	84	0	0	100
random	1	1	85	140229	3	2	2	1	0	979	1	4	0	16	85	0	0	100
random	1	1	86	141753	1	3	3	1	0	1059	1	4	0	24	86	0	0	100
random	1	1	87	143704	4	4	4	1	0	944	1	4	0	32	87	0	0	100
random	1	1	88	145111	2	1	1	1	0	909	1	4	0	8	88	0	0	100
random	1	1	89	146419	6	4	4	1	0	805	1	4	0	32	89	0	0	100
random	1	1	90	148007	3	3	3	1	0	1066	1	4	0	24	90	0	0	100
random	1	1	91	149511	5	4	4	1	0	874	1	4	0	32	91	0	0	100
random	1	1	92	150872	1	2	2	1	0	1097	1	4	0	16	92	0	0	100
random	1	1	93	152836	5	1	1	1	0	758	1	4	0	8	93	0	0	100
random	1	1	94	154066	4	3	3	1	0	865	1	4	0	24	94	0	0	100
random	1	1	95	155521	6	1	1	1	0	1108	1	4	0	8	95	0	0	100
random	1	1	96	157405	2	2	2	1	0	908	1	4	0	16	96	0	0	100
random	1	1	97	159309	4	3	3	1	0	955	1	4	0	24	97	0	0	100
random	1	1	98	161192	3	2	2	1	0	828	1	4	0	16	98	0	0	100
random	1	1	99	162827	6	3	3	1	0	783	1	4	0	24	99	0	0	100
random	1	1	100	164122	1	4	4	1	0	743	1	4	0	32	100	0	0	100
random	1	1	101	165467	4	1	1	1	0	703	1	4	0	8	101	0	0	100
random	1	1	102	167133	5	2	2	1	0	1088	1	4	0	16	102	0	0	100
random	1	1	103	168644	2	4	4	1	0	704	1	4	0	32	103	0	0	100
random	1	1	104	170331	3	1	1	1	0	889	1	4	0	8	104	0	0	100
random	1	1	105	171582	1	3	3	1	0	724	1	4	0	24	105	0	0	100
random	1	1	106	172807	2	2	0	0	2	0	3	4	0	16	105	0	1	99
random	1	1	107	175737	5	4	4	1	0	780	1	4	0	32	106	0	1	99
random	1	1	108	177368	6	1	1	1	0	1334	1	4	0	8	107	0	1	99
random	1	1	109	179375	5	4	4	1	0	849	1	4	0	32	108	0	1	99
random	1	1	110	180624	6	3	3	1	0	1197	1	4	0	24	109	0	1	99
random	1	1	111	182140	2	2	2	1	0	1093	1	4	0	16	110	0	1	99
random	1	1	112	184107	3	1	1	1	0	1233	1	4	0	8	111	0	1	99
random	1	1	113	185697	1	2	2	1	0	974	1	4	0	16	112	0	1	99
random	1	1	114	187319	2	3	3	1	0	849	1	4	0	24	113	0	1	99
random	1	1	115	189057	3	1	1	1	0	831	1	4	0	8	114	0	1	99
random	1	1	116	190579	4	4	4	1	0	687	1	4	0	32	115	0	1	99
random	1	1	117	192037	6	1	1	1	0	985	1	4	0	8	116	0	1	99
random	1	1	118	193387	5	3	3	1	0	1304	1	4	0	24	117	0	1	99
random	1	1	119	195510	1	4	4	1	0	806	1	4	0	32	118	0	1	99
random	1	1	120	196983	4	2	2	1	0	783	1	4	0	16	119	0	1	99
fixed	2	1	1	198821	4	1	1	1	0	1226	1	4	0	40	1	0	0	100
fixed	2	1	2	200898	1	2	2	1	0	1290	1	4	0	48	2	0	0	100
fixed	2	1	3	202661	6	4	4	1	0	911	1	4	0	64	3	0	0	100
fixed	2	1	4	204305	2	1	1	1	0	1097	1	4	0	40	4	0	0	100
fixed	2	1	5	206144	5	3	3	1	0	1020	1	4	0	56	5	0	0	100
fixed	2	1	6	208070	6	4	4	1	0	938	1	4	0	64	6	0	0	100
fixed	2	1	7	209634	3	1	1	1	0	728	1	4	0	40	7	0	0	100
fixed	2	1	8	210980	2	3	3	1	0	831	1	4	0	56	8	0	0	100
fixed	2	1	9	212716	3	2	2	1	0	822	1	4	0	48	9	0	0	100
fixed	2	1	10	214053	1	4	4	1	0	749	1	4	0	64	10	0	0	100
fixed	2	1	11	215242	5	2	2	1	0	1003	1	4	0	48	11	0	0	100
fixed	2	1	12	217078	4	3	3	1	0	1221	1	4	0	56	12	0	0	100
fixed	2	2	1	219123	4	1	1	1	0	1102	1	4	0	40	13	0	0	100
fixed	2	2	2	220555	1	2	2	1	0	1170	1	4	0	48	14	0	0	100
fixed	2	2	3	222251	6	4	4	1	0	849	1	4	0	64	15	0	0	100
fixed	2	2	4	223720	2	1	1	1	0	947	1	4	0	40	16	0	0	100
fixed	2	2	5	225515	5	3	3	1	0	856	1	4	0	56	17	0	0	100
fixed	2	2	6	227102	6	4	4	1	0	828	1	4	0	64	18	0	0	100
fixed	2	2	7	228334	3	1	1	1	0	896	1	4	0	40	19	0	0	100
fixed	2	2	8	229926	2	3	3	1	0	877	1	4	0	56	20	0	0	100
fixed	2	2	9	231720	3	2	2	1	0	672	1	4	0	48	21	0	0	100
fixed	2	2	10	233169	1	4	4	1	0	739	1	4	0	64	22	0	0	100
fixed	2	2	11	234816	5	2	2	1	0	1149	1	4	0	48	23	0	0	100
fixed	2	2	12	236254	4	3	3	1	0	1016	1	4	0	56	24	0	0	100
fixed	2	3	1	237936	4	1	1	1	0	809	1	4	0	40	25	0	0	100
fixed	2	3	2	239366	1	2	2	1	0	1157	1	4	0	48	26	0	0	100
fixed	2	3	3	240988	6	4	4	1	0	760	1	4	0	64	27	0	0	100
fixed	2	3	4	242445	2	1	1	1	0	906	1	4	0	40	28	0	0	100
fixed	2	3	5	243741	5	3	3	1	0	811	1	4	0	56	29	0	0	100
fixed	2	3	6	244854	6	4	4	1	0	812	1	4	0	64	30	0	0	100
fixed	2	3	7	246646	3	1	1	1	0	1072	1	4	0	40	31	0	0	100
fixed	2	3	8	248725	2	3	3	1	0	1425	1	4	0	56	32	0	0	100
fixed	2	3	9	250743	3	2	2	1	0	779	1	4	0	48	33	0	0	100
fixed	2	3	10	251995	1	4	4	1	0	1358	1	4	0	64	34	0	0	100
fixed	2	3	11	254112	5	2	2	1	0	852	1	4	0	48	35	0	0	100
fixed	2	3	12	256011	4	3	3	1	0	971	1	4	0	56	36	0	0	100
fixed	2	4	1	257718	4	1	1	2	0	1987	2	4	0	40	37	0	0	100
fixed	2	4	2	260674	1	2	2	1	0	878	1	4	0	48	38	0	0	100
fixed	2	4	3	262403	6	4	4	1	0	685	1	4	0	64	39	0	0	100
fixed	2	4	4	264020	2	1	1	1	0	1056	1	4	0	40	40	0	0	100
fixed	2	4	5	265788	5	3	3	1	0	941	1	4	0	56	41	0	0	100
fixed	2	4	6	267661	6	4	4	1	0	846	1	4	0	64	42	0	0	100
fixed	2	4	7	269223	3	1	1	1	0	844	1	4	0	40	43	0	0	100
fixed	2	4	8	270592	2	3	3	1	0	954	1	4	0	56	44	0	0	100
fixed	2	4	9	272397	3	2	2	1	0	590	1	4	0	48	45	0	0	100
fixed	2	4	10	273406	1	4	4	1	0	1027	1	4	0	64	46	0	0	100
fixed	2	4	11	275085	5	2	2	1	0	1036	1	4	0	48	47	0	0	100
fixed	2	4	12	277026	4	3	3	1	0	738	1	4	0	56	48	0	0	100
fixed	2	5	1	279020	4	1	1	1	0	821	1	4	0	40	49	0	0	100
fixed	2	5	2	280629	1	2	2	2	0	1569	2	4	0	48	50	0	0	100
fixed	2	5	3	283205	6	4	4	1	0	804	1	4	0	64	51	0	0	100
fixed	2	5	4	284350	2	1	1	1	0	931	1	4	0	40	52	0	0	100
fixed	2	5	5	285893	5	3	3	1	0	1202	1	4	0	56	53	0	0	100
fixed	2	5	6	287871	6	4	4	1	0	1111	1	4	0	64	54	0	0	100
fixed	2	5	7	289929	3	1	1	1	0	1039	1	4	0	40	55	0	0	100
fixed	2	5	8	291535	2	3	3	1	0	947	1	4	0	56	56	0	0	100
fixed	2	5	9	292953	3	2	2	1	0	751	1	4	0	48	57	0	0	100
fixed	2	5	10	294661	1	4	4	1	0	743	1	4	0	64	58	0	0	100
fixed	2	5	11	296067	5	2	2	1	0	1219	1	4	0	48	59	0	0	100
fixed	2	5	12	297715	4	3	3	1	0	765	1	4	0	56	60	0	0	100
fixed	2	6	1	299436	4	1	1	1	0	868	1	4	0	40	61	0	0	100
fixed	2	6	2	301239	1	2	2	1	0	1216	1	4	0	48	62	0	0	100
fixed	2	6	3	303494	6	4	4	1	0	1288	1	4	0	64	63	0	0	100
fixed	2	6	4	305679	2	1	1	1	0	796	1	4	0	40	64	0	0	100
fixed	2	6	5	307089	5	3	3	1	0	1024	1	4	0	56	65	0	0	100
fixed	2	6	6	308987	6	4	4	1	0	968	1	4	0	64	66	0	0	100
fixed	2	6	7	310687	3	1	1	1	0	1000	1	4	0	40	67	0	0	100
fixed	2	6	8	312219	2	3	3	1	0	1295	1	4	0	56	68	0	0	100
fixed	2	6	9	314523	3	2	2	1	0	725	1	4	0	48	69	0	0	100
fixed	2	6	10	316197	1	4	4	1	0	774	1	4	0	64	70	0	0	100
fixed	2	6	11	318013	5	2	2	1	0	1225	1	4	0	48	71	0	0	100
fixed	2	6	12	320258	4	3	3	1	0	818	1	4	0	56	72	0	0	100
fixed	2	7	1	322109	4	1	1	1	0	804	1	4	0	40	73	0	0	100
fixed	2	7	2	323842	1	2	2	1	0	1307	1	4	0	48	74	0	0	100
fixed	2	7	3	326148	6	4	4	1	0	713	1	4	0	64	75	0	0	100
fixed	2	7	4	327183	2	1	1	1	0	1221	1	4	0	40	76	0	0	100
fixed	2	7	5	329236	5	3	3	1	0	1238	1	4	0	56	77	0	0	100
fixed	2	7	6	331406	6	4	4	1	0	1170	1	4	0	64	78	0	0	100
fixed	2	7	7	333427	3	1	1	1	0	677	1	4	0	40	79	0	0	100
fixed	2	7	8	335036	2	3	3	1	0	1113	1	4	0	56	80	0	0	100
fixed	2	7	9	337156	3	2	2	1	0	639	1	4	0	48	81	0	0	100
fixed	2	7	10	338314	1	4	4	1	0	1165	1	4	0	64	82	0	0	100
fixed	2	7	11	340245	5	2	2	1	0	1332	1	4	0	48	83	0	0	100
fixed	2	7	12	341870	4	3	3	1	0	831	1	4	0	56	84	0	0	100
fixed	2	8	1	343929	4	1	1	1	0	1008	1	4	0	40	85	0	0	100
fixed	2	8	2	345324	1	2	2	1	0	1061	1	4	0	48	86	0	0	100
fixed	2	8	3	346803	6	4	4	1	0	734	1	4	0	64	87	0	0	100
fixed	2	8	4	348032	2	1	1	1	0	938	1	4	0	40	88	0	0	100
fixed	2	8	5	349765	5	3	3	1	0	849	1	4	0	56	89	0	0	100
fixed	2	8	6	351347	6	4	4	1	0	934	1	4	0	64	90	0	0	100
fixed	2	8	7	353227	3	1	1	1	0	710	1	4	0	40	91	0	0	100
fixed	2	8	8	354458	2	3	3	1	0	1026	1	4	0	56	92	0	0	100
fixed	2	8	9	355840	3	2	2	1	0	663	1	4	0	48	93	0	0	100
fixed	2	8	10	357284	1	4	4	1	0	786	1	4	0	64	94	0	0	100
fixed	2	8	11	358720	5	2	2	1	0	1005	1	4	0	48	95	0	0	100
fixed	2	8	12	360691	4	3	3	1	0	930	1	4	0	56	96	0	0	100
fixed	2	9	1	362575	4	1	1	1	0	1338	1	4	0	40	97	0	0	100
fixed	2	9	2	364790	1	2	2	1	0	997	1	4	0	48	98	0	0	100
fixed	2	9	3	366806	6	4	4	1	0	831	1	4	0	64	99	0	0	100
fixed	2	9	4	368470	2	1	1	1	0	1120	1	4	0	40	100	0	0	100
fixed	2	9	5	370526	5	3	3	1	0	1009	1	4	0	56	101	0	0	100
fixed	2	9	6	372115	6	4	4	1	0	878	1	4	0	64	102	0	0	100
fixed	2	9	7	373884	3	1	1	1	0	1515	1	4	0	40	103	0	0	100
fixed	2	9	8	375898	2	3	3	1	0	998	1	4	0	56	104	0	0	100
fixed	2	9	9	377865	3	2	2	1	0	858	1	4	0	48	105	0	0	100
fixed	2	9	10	379542	1	4	4	1	0	820	1	4	0	64	106	0	0	100
fixed	2	9	11	380876	5	2	2	1	0	1163	1	4	0	48	107	0	0	100
fixed	2	9	12	382809	4	3	3	1	0	753	1	4	0	56	108	0	0	100
fixed	2	10	1	384395	4	1	1	1	0	1174	1	4	0	40	109	0	0	100
fixed	2	10	2	386060	1	2	2	1	0	1168	1	4	0	48	110	0	0	100
fixed	2	10	3	388173	6	4	4	1	0	742	1	4	0	64	111	0	0	100
fixed	2	10	4	389755	2	1	1	1	0	883	1	4	0	40	112	0	0	100
fixed	2	10	5	391384	5	3	3	1	0	990	1	4	0	56	113	0	0	100
fixed	2	10	6	392736	6	4	4	1	0	1285	1	4	0	64	114	0	0	100
fixed	2	10	7	394854	3	1	1	1	0	1083	1	4	0	40	115	0	0	100
fixed	2	10	8	396855	2	3	3	1	0	935	1	4	0	56	116	0	0	100
fixed	2	10	9	398581	3	2	2	1	0	733	1	4	0	48	117	0	0	100
fixed	2	10	10	400283	1	4	4	1	0	725	1	4	0	64	118	0	0	100
fixed	2	10	11	401715	5	2	2	1	0	961	1	4	0	48	119	0	0	100
fixed	2	10	12	403544	4	3	3	1	0	995	1	4	0	56	120	0	0	100
fixed	3	1	1	405845	4	1	1	1	0	1081	1	4	0	72	1	0	0	100
fixed	3	1	2	407534	1	2	2	1	0	930	1	4	0	80	2	0	0	100
fixed	3	1	3	409487	6	4	4	1	0	656	1	4	0	96	3	0	0	100
fixed	3	1	4	411173	2	1	1	1	0	904	1	4	0	72	4	0	0	100
fixed	3	1	5	412988	5	3	3	1	0	891	1	4	0	88	5	0	0	100
fixed	3	1	6	414772	6	4	4	1	0	863	1	4	0	96	6	0	0	100
fixed	3	1	7	416077	3	1	1	1	0	1080	1	4	0	72	7	0	0	100
fixed	3	1	8	417907	2	3	3	1	0	1227	1	4	0	88	8	0	0	100
fixed	3	1	9	419477	3	2	2	1	0	824	1	4	0	80	9	0	0	100
fixed	3	1	10	421153	1	4	4	1	0	737	1	4	0	96	10	0	0	100
fixed	3	1	11	422222	5	2	2	1	0	1028	1	4	0	80	11	0	0	100
fixed	3	1	12	423965	4	3	3	1	0	786	1	4	0	88	12	0	0	100
fixed	3	2	1	425412	4	1	1	1	0	1517	1	4	0	72	13	0	0	100
fixed	3	2	2	427839	1	2	2	1	0	1070	1	4	0	80	14	0	0	100
fixed	3	2	3	429804	6	4	4	1	0	722	1	4	0	96	15	0	0	100
fixed	3	2	4	431537	2	1	1	1	0	770	1	4	0	72	16	0	0	100
fixed	3	2	5	433061	5	3	3	1	0	1105	1	4	0	88	17	0	0	100
fixed	3	2	6	434696	6	4	4	1	0	812	1	4	0	96	18	0	0	100
fixed	3	2	7	436215	3	1	1	1	0	811	1	4	0	72	19	0	0	100
fixed	3	2	8	437482	2	3	3	1	0	1294	1	4	0	88	20	0	0	100
fixed	3	2	9	439167	3	2	2	1	0	702	1	4	0	80	21	0	0	100
fixed	3	2	10	440340	1	4	4	1	0	685	1	4	0	96	22	0	0	100
fixed	3	2	11	441475	5	2	2	1	0	996	1	4	0	80	23	0	0	100
fixed	3	2	12	442781	4	3	3	1	0	869	1	4	0	88	24	0	0	100
fixed	3	3	1	444659	4	1	1	1	0	821	1	4	0	72	25	0	0	100
fixed	3	3	2	446287	1	2	2	1	0	1065	1	4	0	80	26	0	0	100
fixed	3	3	3	448258	6	4	4	1	0	733	1	4	0	96	27	0	0	100
fixed	3	3	4	449672	2	1	1	1	0	881	1	4	0	72	28	0	0	100
fixed	3	3	5	451290	5	3	3	1	0	1260	1	4	0	88	29	0	0	100
fixed	3	3	6	453053	6	4	4	1	0	890	1	4	0	96	30	0	0	100
fixed	3	3	7	454629	3	1	1	1	0	896	1	4	0	72	31	0	0	100
fixed	3	3	8	456518	2	3	3	1	0	1000	1	4	0	88	32	0	0	100
fixed	3	3	9	457928	3	2	2	1	0	691	1	4	0	80	33	0	0	100
fixed	3	3	10	459174	1	4	4	1	0	671	1	4	0	96	34	0	0	100
fixed	3	3	11	460652	5	2	2	1	0	1048	1	4	0	80	35	0	0	100
fixed	3	3	12	462453	4	3	3	1	0	692	1	4	0	88	36	0	0	100
fixed	3	4	1	464408	4	1	1	1	0	1249	1	4	0	72	37	0	0	100
fixed	3	4	2	466684	1	2	2	1	0	1001	1	4	0	80	38	0	0	100
fixed	3	4	3	468311	6	4	4	1	0	700	1	4	0	96	39	0	0	100
fixed	3	4	4	469495	2	1	1	1	0	794	1	4	0	72	40	0	0	100
fixed	3	4	5	470775	5	3	3	1	0	819	1	4	0	88	41	0	0	100
fixed	3	4	6	472632	6	4	4	1	0	941	1	4	0	96	42	0	0	100
fixed	3	4	7	474316	3	1	1	1	0	973	1	4	0	72	43	0	0	100
fixed	3	4	8	476243	2	3	3	1	0	964	1	4	0	88	44	0	0	100
fixed	3	4	9	478152	3	2	2	1	0	763	1	4	0	80	45	0	0	100
fixed	3	4	10	479897	1	4	4	1	0	745	1	4	0	96	46	0	0	100
fixed	3	4	11	481219	5	2	2	1	0	1161	1	4	0	80	47	0	0	100
fixed	3	4	12	483063	4	3	3	1	0	851	1	4	0	88	48	0	0	100
fixed	3	5	1	485058	4	1	1	1	0	878	1	4	0	72	49	0	0	100
fixed	3	5	2	486749	1	2	2	1	0	1047	1	4	0	80	50	0	0	100
fixed	3	5	3	488186	6	4	4	1	0	762	1	4	0	96	51	0	0	100
fixed	3	5	4	489743	2	1	1	1	0	800	1	4	0	72	52	0	0	100
fixed	3	5	5	491254	5	3	3	1	0	1104	1	4	0	88	53	0	0	100
fixed	3	5	6	492959	6	4	4	1	0	808	1	4	0	96	54	0	0	100
fixed	3	5	7	494636	3	1	1	1	0	833	1	4	0	72	55	0	0	100
fixed	3	5	8	496183	2	3	3	1	0	1047	1	4	0	88	56	0	0	100
fixed	3	5	9	497691	3	2	2	1	0	823	1	4	0	80	57	0	0	100
fixed	3	5	10	499179	1	4	4	1	0	856	1	4	0	96	58	0	0	100
fixed	3	5	11	500394	5	2	2	1	0	957	1	4	0	80	59	0	0	100
fixed	3	5	12	501813	4	3	3	1	0	1017	1	4	0	88	60	0	0	100
fixed	3	6	1	503938	4	1	1	1	0	855	1	4	0	72	61	0	0	100
fixed	3	6	2	505825	1	2	2	1	0	1103	1	4	0	80	62	0	0	100
fixed	3	6	3	507746	6	4	4	1	0	669	1	4	0	96	63	0	0	100
fixed	3	6	4	508928	2	1	1	1	0	868	1	4	0	72	64	0	0	100
fixed	3	6	5	510127	5	3	3	1	0	1137	1	4	0	88	65	0	0	100
fixed	3	6	6	512295	6	4	4	1	0	989	1	4	0	96	66	0	0	100
fixed	3	6	7	513717	3	1	1	1	0	753	1	4	0	72	67	0	0	100
fixed	3	6	8	515233	2	3	3	1	0	1120	1	4	0	88	68	0	0	100
fixed	3	6	9	516708	3	2	2	1	0	682	1	4	0	80	69	0	0	100
fixed	3	6	10	518349	1	4	4	1	0	725	1	4	0	96	70	0	0	100
fixed	3	6	11	519706	5	2	2	1	0	1059	1	4	0	80	71	0	0	100
fixed	3	6	12	521683	4	3	3	1	0	703	1	4	0	88	72	0	0	100
fixed	3	7	1	523235	4	1	1	1	0	797	1	4	0	72	73	0	0	100
fixed	3	7	2	524591	1	2	2	1	0	972	1	4	0	80	74	0	0	100
fixed	3	7	3	526557	6	4	4	1	0	689	1	4	0	96	75	0	0	100
fixed	3	7	4	527632	2	1	1	1	0	955	1	4	0	72	76	0	0	100
fixed	3	7	5	529035	5	3	3	1	0	952	1	4	0	88	77	0	0	100
fixed	3	7	6	530998	6	4	4	1	0	837	1	4	0	96	78	0	0	100
fixed	3	7	7	532218	3	1	1	1	0	1153	1	4	0	72	79	0	0	100
fixed	3	7	8	533828	2	3	3	1	0	1085	1	4	0	88	80	0	0	100
fixed	3	7	9	535492	3	2	2	1	0	783	1	4	0	80	81	0	0	100
fixed	3	7	10	536607	1	4	4	1	0	735	1	4	0	96	82	0	0	100
fixed	3	7	11	538065	5	2	2	1	0	938	1	4	0	80	83	0	0	100
fixed	3	7	12	540006	4	3	3	1	0	1007	1	4	0	88	84	0	0	100
fixed	3	8	1	542098	4	1	1	1	0	950	1	4	0	72	85	0	0	100
fixed	3	8	2	543678	1	2	2	1	0	1012	1	4	0	80	86	0	0	100
fixed	3	8	3	545386	6	4	4	1	0	1084	1	4	0	96	87	0	0	100
fixed	3	8	4	547098	2	1	1	1	0	939	1	4	0	72	88	0	0	100
fixed	3	8	5	548503	5	3	3	1	0	999	1	4	0	88	89	0	0	100
fixed	3	8	6	550368	6	4	4	1	0	752	1	4	0	96	90	0	0	100
fixed	3	8	7	551536	3	1	1	1	0	958	1	4	0	72	91	0	0	100
fixed	3	8	8	553101	2	3	3	1	0	1141	1	4	0	88	92	0	0	100
fixed	3	8	9	554555	3	2	2	1	0	1031	1	4	0	80	93	0	0	100
fixed	3	8	10	556418	1	4	4	1	0	816	1	4	0	96	94	0	0	100
fixed	3	8	11	558122	5	2	2	1	0	984	1	4	0	80	95	0	0	100
fixed	3	8	12	560135	4	3	3	1	0	843	1	4	0	88	96	0	0	100
fixed	3	9	1	562081	4	1	1	1	0	872	1	4	0	72	97	0	0	100
fixed	3	9	2	563945	1	2	2	1	0	1417	1	4	0	80	98	0	0	100
fixed	3	9	3	565766	6	4	4	1	0	724	1	4	0	96	99	0	0	100
fixed	3	9	4	567182	2	1	1	1	0	832	1	4	0	72	100	0	0	100
fixed	3	9	5	568380	5	3	3	1	0	845	1	4	0	88	101	0	0	100
fixed	3	9	6	569652	6	4	4	1	0	624	1	4	0	96	102	0	0	100
fixed	3	9	7	570854	3	1	1	1	0	708	1	4	0	72	103	0	0	100
fixed	3	9	8	571865	2	3	3	1	0	1346	1	4	0	88	104	0	0	100
fixed	3	9	9	573957	3	2	2	1	0	745	1	4	0	80	105	0	0	100
fixed	3	9	10	575119	1	4	4	1	0	880	1	4	0	96	106	0	0	100
fixed	3	9	11	576386	5	2	2	1	0	1178	1	4	0	80	107	0	0	100
fixed	3	9	12	578189	4	3	3	1	0	782	1	4	0	88	108	0	0	100
fixed	3	10	1	580125	4	1	1	1	0	772	1	4	0	72	109	0	0	100
fixed	3	10	2	581467	1	2	0	1	2	0	3	4	0	80	109	0	1	99
fixed	3	10	3	584280	6	4	4	1	0	956	1	4	0	96	110	0	1	99
fixed	3	10	4	585633	2	1	1	1	0	795	1	4	0	72	111	0	1	99
fixed	3	10	5	587024	5	3	3	1	0	935	1	4	0	88	112	0	1	99
fixed	3	10	6	588364	6	4	4	1	0	1111	1	4	0	96	113	0	1	99
fixed	3	10	7	590392	3	1	1	1	0	737	1	4	0	72	114	0	1	99
fixed	3	10	8	591421	2	3	3	1	0	1589	1	4	0	88	115	0	1	99
fixed	3	10	9	593425	3	2	2	1	0	1056	1	4	0	80	116	0	1	99
fixed	3	10	10	595202	1	4	4	1	0	989	1	4	0	96	117	0	1	99
fixed	3	10	11	596744	5	2	2	1	0	1420	1	4	0	80	118	0	1	99
fixed	3	10	12	598940	4	3	3	1	0	847	1	4	0	88	119	0	1	99
fixed	4	1	1	731828	4	1	1	1	0	1194	1	4	0	104	1	0	0	100
fixed	4	1	2	733682	1	2	2	1	0	1004	1	4	0	112	2	0	0	100
fixed	4	1	3	735406	6	4	4	1	0	635	1	4	0	128	3	0	0	100
fixed	4	1	4	736526	2	1	1	1	0	787	1	4	0	104	4	0	0	100
fixed	4	1	5	738348	5	3	3	1	0	814	1	4	0	120	5	0	0	100
fixed	4	1	6	739517	6	4	4	1	0	709	1	4	0	128	6	0	0	100
fixed	4	1	7	740842	3	1	1	1	0	637	1	4	0	104	7	0	0	100
fixed	4	1	8	742056	2	3	3	1	0	881	1	4	0	120	8	0	0	100
fixed	4	1	9	743279	3	2	2	1	0	846	1	4	0	112	9	0	0	100
fixed	4	1	10	744979	1	4	4	1	0	709	1	4	0	128	10	0	0	100
fixed	4	1	11	746226	5	2	2	1	0	1145	1	4	0	112	11	0	0	100
fixed	4	1	12	747847	4	3	3	1	0	764	1	4	0	120	12	0	0	100
fixed	4	2	1	749724	4	1	1	1	0	812	1	4	0	104	13	0	0	100
fixed	4	2	2	751574	1	2	2	1	0	1271	1	4	0	112	14	0	0	100
fixed	4	2	3	753292	6	4	4	1	0	614	1	4	0	128	15	0	0	100
fixed	4	2	4	754523	2	1	1	1	0	697	1	4	0	104	16	0	0	100
fixed	4	2	5	756155	5	3	3	1	0	788	1	4	0	120	17	0	0	100
fixed	4	2	6	757429	6	4	4	1	0	966	1	4	0	128	18	0	0	100
fixed	4	2	7	758777	3	1	1	1	0	854	1	4	0	104	19	0	0	100
fixed	4	2	8	760334	2	3	3	1	0	795	1	4	0	120	20	0	0	100
fixed	4	2	9	761828	3	2	2	1	0	628	1	4	0	112	21	0	0	100
fixed	4	2	10	763299	1	4	4	1	0	710	1	4	0	128	22	0	0	100
fixed	4	2	11	764918	5	2	2	1	0	1225	1	4	0	112	23	0	0	100
fixed	4	2	12	766516	4	3	3	1	0	637	1	4	0	120	24	0	0	100
fixed	4	3	1	768019	4	1	1	1	0	902	1	4	0	104	25	0	0	100
fixed	4	3	2	769577	1	2	2	1	0	1532	1	4	0	112	26	0	0	100
fixed	4	3	3	772050	6	4	4	1	0	651	1	4	0	128	27	0	0	100
fixed	4	3	4	773023	2	1	1	1	0	866	1	4	0	104	28	0	0	100
fixed	4	3	5	774305	5	3	3	1	0	827	1	4	0	120	29	0	0	100
fixed	4	3	6	775863	6	4	4	1	0	1138	1	4	0	128	30	0	0	100
fixed	4	3	7	777908	3	1	1	1	0	811	1	4	0	104	31	0	0	100
fixed	4	3	8	779215	2	3	3	1	0	1403	1	4	0	120	32	0	0	100
fixed	4	3	9	781058	3	2	2	1	0	654	1	4	0	112	33	0	0	100
fixed	4	3	10	782025	1	4	4	1	0	805	1	4	0	128	34	0	0	100
fixed	4	3	11	783446	5	2	2	1	0	1288	1	4	0	112	35	0	0	100
fixed	4	3	12	785472	4	3	3	1	0	803	1	4	0	120	36	0	0	100
fixed	4	4	1	787467	4	1	1	1	0	878	1	4	0	104	37	0	0	100
fixed	4	4	2	789021	1	2	2	1	0	1300	1	4	0	112	38	0	0	100
fixed	4	4	3	790940	6	4	4	1	0	723	1	4	0	128	39	0	0	100
fixed	4	4	4	792599	2	1	1	1	0	821	1	4	0	104	40	0	0	100
fixed	4	4	5	793875	5	3	3	1	0	943	1	4	0	120	41	0	0	100
fixed	4	4	6	795776	6	4	4	1	0	926	1	4	0	128	42	0	0	100
fixed	4	4	7	797050	3	1	1	1	0	952	1	4	0	104	43	0	0	100
fixed	4	4	8	798340	2	3	3	1	0	1329	1	4	0	120	44	0	0	100
fixed	4	4	9	800675	3	2	2	1	0	591	1	4	0	112	45	0	0	100
fixed	4	4	10	801648	1	4	4	1	0	750	1	4	0	128	46	0	0	100
fixed	4	4	11	803412	5	2	2	1	0	1579	1	4	0	112	47	0	0	100
fixed	4	4	12	805841	4	3	3	1	0	820	1	4	0	120	48	0	0	100
fixed	4	5	1	807600	4	1	1	1	0	745	1	4	0	104	49	0	0	100
fixed	4	5	2	808911	1	2	2	2	0	2010	2	4	0	112	50	0	0	100
fixed	4	5	3	811513	6	4	4	1	0	724	1	4	0	128	51	0	0	100
fixed	4	5	4	812851	2	1	1	1	0	787	1	4	0	104	52	0	0	100
fixed	4	5	5	814078	5	3	3	1	0	1039	1	4	0	120	53	0	0	100
fixed	4	5	6	815849	6	4	4	1	0	804	1	4	0	128	54	0	0	100
fixed	4	5	7	817374	3	1	1	1	0	827	1	4	0	104	55	0	0	100
fixed	4	5	8	818956	2	3	3	1	0	1233	1	4	0	120	56	0	0	100
fixed	4	5	9	820903	3	2	2	1	0	542	1	4	0	112	57	0	0	100
fixed	4	5	10	821969	1	4	4	1	0	721	1	4	0	128	58	0	0	100
fixed	4	5	11	822995	5	2	2	1	0	1045	1	4	0	112	59	0	0	100
fixed	4	5	12	824436	4	3	3	1	0	792	1	4	0	120	60	0	0	100
fixed	4	6	1	826178	4	1	1	1	0	758	1	4	0	104	61	0	0	100
fixed	4	6	2	827498	1	2	2	1	0	1222	1	4	0	112	62	0	0	100
fixed	4	6	3	829076	6	4	4	1	0	804	1	4	0	128	63	0	0	100
fixed	4	6	4	830347	2	1	1	1	0	918	1	4	0	104	64	0	0	100
fixed	4	6	5	831609	5	3	3	1	0	928	1	4	0	120	65	0	0	100
fixed	4	6	6	833154	6	4	4	1	0	983	1	4	0	128	66	0	0	100
fixed	4	6	7	835143	3	1	1	1	0	755	1	4	0	104	67	0	0	100
fixed	4	6	8	836522	2	3	3	1	0	1344	1	4	0	120	68	0	0	100
fixed	4	6	9	838805	3	2	2	1	0	488	1	4	0	112	69	0	0	100
fixed	4	6	10	840001	1	4	4	1	0	637	1	4	0	128	70	0	0	100
fixed	4	6	11	841147	5	2	2	1	0	1252	1	4	0	112	71	0	0	100
fixed	4	6	12	842855	4	3	3	1	0	852	1	4	0	120	72	0	0	100
fixed	4	7	1	844407	4	1	1	1	0	794	1	4	0	104	73	0	0	100
fixed	4	7	2	845769	1	2	2	1	0	1273	1	4	0	112	74	0	0	100
fixed	4	7	3	847933	6	4	4	1	0	893	1	4	0	128	75	0	0	100
fixed	4	7	4	849646	2	1	1	1	0	877	1	4	0	104	76	0	0	100
fixed	4	7	5	851451	5	3	3	1	0	896	1	4	0	120	77	0	0	100
fixed	4	7	6	853064	6	4	4	1	0	740	1	4	0	128	78	0	0	100
fixed	4	7	7	854750	3	1	1	1	0	860	1	4	0	104	79	0	0	100
fixed	4	7	8	856092	2	3	3	1	0	1244	1	4	0	120	80	0	0	100
fixed	4	7	9	858154	3	2	2	1	0	676	1	4	0	112	81	0	0	100
fixed	4	7	10	859808	1	4	4	1	0	702	1	4	0	128	82	0	0	100
fixed	4	7	11	861062	5	2	2	1	0	1049	1	4	0	112	83	0	0	100
fixed	4	7	12	862696	4	3	3	1	0	932	1	4	0	120	84	0	0	100
fixed	4	8	1	864406	4	1	1	1	0	915	1	4	0	104	85	0	0	100
fixed	4	8	2	865919	1	2	2	1	0	1635	1	4	0	112	86	0	0	100
fixed	4	8	3	868489	6	4	4	1	0	638	1	4	0	128	87	0	0	100
fixed	4	8	4	870113	2	1	1	1	0	850	1	4	0	104	88	0	0	100
fixed	4	8	5	871442	5	3	3	1	0	857	1	4	0	120	89	0	0	100
fixed	4	8	6	872847	6	4	4	1	0	694	1	4	0	128	90	0	0	100
fixed	4	8	7	874484	3	1	1	1	0	864	1	4	0	104	91	0	0	100
fixed	4	8	8	876261	2	3	3	1	0	1061	1	4	0	120	92	0	0	100
fixed	4	8	9	878349	3	2	2	1	0	565	1	4	0	112	93	0	0	100
fixed	4	8	10	879918	1	4	4	1	0	586	1	4	0	128	94	0	0	100
fixed	4	8	11	880856	5	2	2	1	0	1363	1	4	0	112	95	0	0	100
fixed	4	8	12	882562	4	3	3	1	0	907	1	4	0	120	96	0	0	100
fixed	4	9	1	884171	4	1	1	1	0	742	1	4	0	104	97	0	0	100
fixed	4	9	2	885935	1	2	2	1	0	1068	1	4	0	112	98	0	0	100
fixed	4	9	3	887394	6	4	4	1	0	741	1	4	0	128	99	0	0	100
fixed	4	9	4	889178	2	1	1	1	0	754	1	4	0	104	100	0	0	100
fixed	4	9	5	890543	5	3	3	1	0	936	1	4	0	120	101	0	0	100
fixed	4	9	6	892033	6	4	4	1	0	841	1	4	0	128	102	0	0	100
fixed	4	9	7	893390	3	1	1	1	0	871	1	4	0	104	103	0	0	100
fixed	4	9	8	894667	2	3	3	1	0	1162	1	4	0	120	104	0	0	100
fixed	4	9	9	896745	3	2	2	1	0	746	1	4	0	112	105	0	0	100
fixed	4	9	10	898039	1	4	4	1	0	715	1	4	0	128	106	0	0	100
fixed	4	9	11	899274	5	2	2	1	0	998	1	4	0	112	107	0	0	100
fixed	4	9	12	901083	4	3	3	1	0	842	1	4	0	120	108	0	0	100
fixed	4	10	1	902867	4	1	1	1	0	710	1	4	0	104	109	0	0	100
fixed	4	10	2	904111	1	2	2	1	0	1050	1	4	0	112	110	0	0	100
fixed	4	10	3	906002	6	4	4	1	0	762	1	4	0	128	111	0	0	100
fixed	4	10	4	907627	2	1	1	1	0	716	1	4	0	104	112	0	0	100
fixed	4	10	5	908864	5	3	3	1	0	904	1	4	0	120	113	0	0	100
fixed	4	10	6	910428	6	4	4	1	0	598	1	4	0	128	114	0	0	100
fixed	4	10	7	911924	3	1	1	1	0	783	1	4	0	104	115	0	0	100
fixed	4	10	8	913261	2	3	3	1	0	1102	1	4	0	120	116	0	0	100
fixed	4	10	9	914803	3	2	2	1	0	597	1	4	0	112	117	0	0	100
fixed	4	10	10	916396	1	4	4	1	0	682	1	4	0	128	118	0	0	100
fixed	4	10	11	917764	5	2	2	1	0	1008	1	4	0	112	119	0	0	100
fixed	4	10	12	919593	4	3	3	1	0	778	1	4	0	120	120	0	0	100
fixed	5	1	1	921259	4	1	1	1	0	875	1	4	0	136	1	0	0	100
fixed	5	1	2	922592	1	2	2	1	0	1107	1	4	0	144	2	0	0	100
fixed	5	1	3	924094	6	4	4	1	0	683	1	4	0	160	3	0	0	100
fixed	5	1	4	925245	2	1	1	1	0	875	1	4	0	136	4	0	0	100
fixed	5	1	5	926838	5	3	3	1	0	903	1	4	0	152	5	0	0	100
fixed	5	1	6	928061	6	4	4	1	0	1075	1	4	0	160	6	0	0	100
fixed	5	1	7	929511	3	1	1	1	0	822	1	4	0	136	7	0	0	100
fixed	5	1	8	930665	2	3	3	1	0	909	1	4	0	152	8	0	0	100
fixed	5	1	9	931901	3	2	2	1	0	752	1	4	0	144	9	0	0	100
fixed	5	1	10	933552	1	4	4	1	0	651	1	4	0	160	10	0	0	100
fixed	5	1	11	934647	5	2	2	1	0	972	1	4	0	144	11	0	0	100
fixed	5	1	12	936004	4	3	3	1	0	819	1	4	0	152	12	0	0	100
fixed	5	2	1	937752	4	1	1	1	0	857	1	4	0	136	13	0	0	100
fixed	5	2	2	939373	1	2	2	1	0	1132	1	4	0	144	14	0	0	100
fixed	5	2	3	941250	6	4	4	1	0	797	1	4	0	160	15	0	0	100
fixed	5	2	4	942599	2	1	1	1	0	715	1	4	0	136	16	0	0	100
fixed	5	2	5	944323	5	3	3	1	0	1067	1	4	0	152	17	0	0	100
fixed	5	2	6	946296	6	4	4	1	0	1143	1	4	0	160	18	0	0	100
fixed	5	2	7	948107	3	1	1	1	0	946	1	4	0	136	19	0	0	100
fixed	5	2	8	950027	2	3	3	1	0	1193	1	4	0	152	20	0	0	100
fixed	5	2	9	952027	3	2	2	1	0	460	1	4	0	144	21	0	0	100
fixed	5	2	10	952891	1	4	4	1	0	688	1	4	0	160	22	0	0	100
fixed	5	2	11	954453	5	2	2	1	0	974	1	4	0	144	23	0	0	100
fixed	5	2	12	956334	4	3	3	1	0	838	1	4	0	152	24	0	0	100
fixed	5	3	1	958169	4	1	1	1	0	840	1	4	0	136	25	0	0	100
fixed	5	3	2	959466	1	2	2	1	0	1217	1	4	0	144	26	0	0	100
fixed	5	3	3	961236	6	4	4	1	0	686	1	4	0	160	27	0	0	100
fixed	5	3	4	962563	2	1	1	1	0	854	1	4	0	136	28	0	0	100
fixed	5	3	5	964290	5	3	3	1	0	821	1	4	0	152	29	0	0	100
fixed	5	3	6	965580	6	4	4	1	0	774	1	4	0	160	30	0	0	100
fixed	5	3	7	966737	3	1	1	1	0	902	1	4	0	136	31	0	0	100
fixed	5	3	8	968425	2	3	3	1	0	1173	1	4	0	152	32	0	0	100
fixed	5	3	9	970463	3	2	2	1	0	672	1	4	0	144	33	0	0	100
fixed	5	3	10	971656	1	4	4	1	0	685	1	4	0	160	34	0	0	100
fixed	5	3	11	972640	5	2	2	1	0	1235	1	4	0	144	35	0	0	100
fixed	5	3	12	974441	4	3	3	1	0	711	1	4	0	152	36	0	0	100
fixed	5	4	1	976079	4	1	1	1	0	777	1	4	0	136	37	0	0	100
fixed	5	4	2	977807	1	2	2	1	0	1096	1	4	0	144	38	0	0	100
fixed	5	4	3	979658	6	4	4	1	0	554	1	4	0	160	39	0	0	100
fixed	5	4	4	980965	2	1	1	1	0	739	1	4	0	136	40	0	0	100
fixed	5	4	5	982143	5	3	3	1	0	952	1	4	0	152	41	0	0	100
fixed	5	4	6	983799	6	4	4	1	0	642	1	4	0	160	42	0	0	100
fixed	5	4	7	984862	3	1	1	1	0	782	1	4	0	136	43	0	0	100
fixed	5	4	8	986056	2	3	3	1	0	1115	1	4	0	152	44	0	0	100
fixed	5	4	9	988177	3	2	2	1	0	465	1	4	0	144	45	0	0	100
fixed	5	4	10	989559	1	4	4	1	0	647	1	4	0	160	46	0	0	100
fixed	5	4	11	990587	5	2	2	1	0	1435	1	4	0	144	47	0	0	100
fixed	5	4	12	992751	4	3	3	1	0	831	1	4	0	152	48	0	0	100
fixed	5	5	1	994608	4	1	1	1	0	704	1	4	0	136	49	0	0	100
fixed	5	5	2	995841	1	2	2	1	0	1061	1	4	0	144	50	0	0	100
fixed	5	5	3	997513	6	4	4	1	0	637	1	4	0	160	51	0	0	100
fixed	5	5	4	998718	2	1	1	1	0	738	1	4	0	136	52	0	0	100
fixed	5	5	5	999838	5	3	3	1	0	1011	1	4	0	152	53	0	0	100
fixed	5	5	6	1001744	6	4	4	1	0	1410	1	4	0	160	54	0	0	100
fixed	5	5	7	1003927	3	1	1	1	0	742	1	4	0	136	55	0	0	100
fixed	5	5	8	1005586	2	3	3	1	0	776	1	4	0	152	56	0	0	100
fixed	5	5	9	1007235	3	2	2	1	0	666	1	4	0	144	57	0	0	100
fixed	5	5	10	1008799	1	4	4	1	0	680	1	4	0	160	58	0	0	100
fixed	5	5	11	1010237	5	2	2	1	0	1131	1	4	0	144	59	0	0	100
fixed	5	5	12	1012251	4	3	3	1	0	589	1	4	0	152	60	0	0	100
fixed	5	6	1	1013588	4	1	1	1	0	989	1	4	0	136	61	0	0	100
fixed	5	6	2	1015085	1	2	2	1	0	1302	1	4	0	144	62	0	0	100
fixed	5	6	3	1017029	6	4	4	1	0	691	1	4	0	160	63	0	0	100
fixed	5	6	4	1018125	2	1	1	1	0	1253	1	4	0	136	64	0	0	100
fixed	5	6	5	1020182	5	3	3	1	0	902	1	4	0	152	65	0	0	100
fixed	5	6	6	1021725	6	4	4	1	0	580	1	4	0	160	66	0	0	100
fixed	5	6	7	1022793	3	1	1	1	0	863	1	4	0	136	67	0	0	100
fixed	5	6	8	1024619	2	3	3	1	0	1514	1	4	0	152	68	0	0	100
fixed	5	6	9	1026569	3	2	2	1	0	615	1	4	0	144	69	0	0	100
fixed	5	6	10	1027970	1	4	4	1	0	556	1	4	0	160	70	0	0	100
fixed	5	6	11	1028954	5	2	2	1	0	1058	1	4	0	144	71	0	0	100
fixed	5	6	12	1030737	4	3	3	1	0	766	1	4	0	152	72	0	0	100
fixed	5	7	1	1032200	4	1	1	1	0	888	1	4	0	136	73	0	0	100
fixed	5	7	2	1033855	1	2	2	1	0	1042	1	4	0	144	74	0	0	100
fixed	5	7	3	1035763	6	4	4	1	0	514	1	4	0	160	75	0	0	100
fixed	5	7	4	1037224	2	1	1	1	0	708	1	4	0	136	76	0	0	100
fixed	5	7	5	1038804	5	3	3	1	0	929	1	4	0	152	77	0	0	100
fixed	5	7	6	1040626	6	4	4	1	0	524	1	4	0	160	78	0	0	100
fixed	5	7	7	1041656	3	1	1	1	0	784	1	4	0	136	79	0	0	100
fixed	5	7	8	1043199	2	3	3	1	0	1591	1	4	0	152	80	0	0	100
fixed	5	7	9	1045559	3	2	2	1	0	331	1	4	0	144	81	0	0	100
fixed	5	7	10	1046264	1	4	4	1	0	573	1	4	0	160	82	0	0	100
fixed	5	7	11	1047323	5	2	2	1	0	952	1	4	0	144	83	0	0	100
fixed	5	7	12	1049182	4	3	3	1	0	857	1	4	0	152	84	0	0	100
fixed	5	8	1	1050612	4	1	1	1	0	716	1	4	0	136	85	0	0	100
fixed	5	8	2	1051985	1	2	2	1	0	1314	1	4	0	144	86	0	0	100
fixed	5	8	3	1053746	6	4	4	1	0	776	1	4	0	160	87	0	0	100
fixed	5	8	4	1055432	2	1	1	1	0	737	1	4	0	136	88	0	0	100
fixed	5	8	5	1056674	5	3	3	1	0	1164	1	4	0	152	89	0	0	100
fixed	5	8	6	1058562	6	4	4	1	0	524	1	4	0	160	90	0	0	100
fixed	5	8	7	1059551	3	1	1	1	0	666	1	4	0	136	91	0	0	100
fixed	5	8	8	1060516	2	3	3	1	0	842	1	4	0	152	92	0	0	100
fixed	5	8	9	1062012	3	2	2	1	0	426	1	4	0	144	93	0	0	100
fixed	5	8	10	1062778	1	4	4	1	0	713	1	4	0	160	94	0	0	100
fixed	5	8	11	1064447	5	2	2	1	0	1147	1	4	0	144	95	0	0	100
fixed	5	8	12	1066536	4	3	3	1	0	914	1	4	0	152	96	0	0	100
fixed	5	9	1	1068590	4	1	1	1	0	835	1	4	0	136	97	0	0	100
fixed	5	9	2	1070263	1	2	2	1	0	1156	1	4	0	144	98	0	0	100
fixed	5	9	3	1072434	6	4	4	1	0	496	1	4	0	160	99	0	0	100
fixed	5	9	4	1073608	2	1	1	1	0	863	1	4	0	136	100	0	0	100
fixed	5	9	5	1075460	5	3	3	1	0	536	1	4	0	152	101	0	0	100
fixed	5	9	6	1076607	6	4	4	1	0	487	1	4	0	160	102	0	0	100
fixed	5	9	7	1077720	3	1	1	1	0	745	1	4	0	136	103	0	0	100
fixed	5	9	8	1079170	2	3	3	1	0	763	1	4	0	152	104	0	0	100
fixed	5	9	9	1080366	3	2	2	1	0	560	1	4	0	144	105	0	0	100
fixed	5	9	10	1081392	1	4	4	1	0	621	1	4	0	160	106	0	0	100
fixed	5	9	11	1082579	5	2	2	1	0	1131	1	4	0	144	107	0	0	100
fixed	5	9	12	1084324	4	3	3	1	0	913	1	4	0	152	108	0	0	100
fixed	5	10	1	1085982	4	1	1	1	0	770	1	4	0	136	109	0	0	100
fixed	5	10	2	1087563	1	2	2	1	0	1088	1	4	0	144	110	0	0	100
fixed	5	10	3	1088980	6	4	4	1	0	652	1	4	0	160	111	0	0	100
fixed	5	10	4	1090631	2	1	1	1	0	734	1	4	0	136	112	0	0	100
fixed	5	10	5	1091982	5	3	3	1	0	876	1	4	0	152	113	0	0	100
fixed	5	10	6	1093564	6	4	4	1	0	538	1	4	0	160	114	0	0	100
fixed	5	10	7	1095129	3	1	1	1	0	679	1	4	0	136	115	0	0	100
fixed	5	10	8	1096441	2	3	3	1	0	1079	1	4	0	152	116	0	0	100
fixed	5	10	9	1097885	3	2	2	1	0	1235	1	4	0	144	117	0	0	100
fixed	5	10	10	1099597	1	4	4	1	0	626	1	4	0	160	118	0	0	100
fixed	5	10	11	1100649	5	2	2	1	0	813	1	4	0	144	119	0	0	100
fixed	5	10	12	1102443	4	3	3	1	0	457	1	4	0	152	120	0	0	100
random	6	1	1	1226074	6	1	1	1	0	1269	1	4	0	168	1	0	0	100
random	6	1	2	1227685	4	4	4	1	0	785	1	4	0	192	2	0	0	100
random	6	1	3	1228815	2	2	2	1	0	969	1	4	0	176	3	0	0	100
random	6	1	4	1230341	3	3	3	1	0	504	1	4	0	184	4	0	0	100
random	6	1	5	1231559	5	2	2	1	0	1061	1	4	0	176	5	0	0	100
random	6	1	6	1232997	1	4	4	1	0	648	1	4	0	192	6	0	0	100
random	6	1	7	1234010	6	1	1	1	0	773	1	4	0	168	7	0	0	100
random	6	1	8	1235492	2	3	3	1	0	1110	1	4	0	184	8	0	0	100
random	6	1	9	1237608	4	2	2	1	0	748	1	4	0	176	9	0	0	100
random	6	1	10	1238860	1	1	1	1	0	1063	1	4	0	168	10	0	0	100
random	6	1	11	1240787	5	4	4	1	0	542	1	4	0	192	11	0	0	100
random	6	1	12	1241653	3	3	3	1	0	929	1	4	0	184	12	0	0	100
random	6	1	13	1243469	5	2	2	1	0	1164	1	4	0	176	13	0	0	100
random	6	1	14	1244990	1	4	4	1	0	788	1	4	0	192	14	0	0	100
random	6	1	15	1246161	3	1	1	1	0	818	1	4	0	168	15	0	0	100
random	6	1	16	1247648	4	3	3	1	0	907	1	4	0	184	16	0	0	100
random	6	1	17	1249143	6	4	4	1	0	876	1	4	0	192	17	0	0	100
random	6	1	18	1250505	2	1	1	1	0	786	1	4	0	168	18	0	0	100
random	6	1	19	1252243	5	3	3	1	0	889	1	4	0	184	19	0	0	100
random	6	1	20	1253794	2	2	2	1	0	623	1	4	0	176	20	0	0	100
random	6	1	21	1255462	3	3	3	1	0	776	1	4	0	184	21	0	0	100
random	6	1	22	1257201	6	1	1	1	0	1014	1	4	0	168	22	0	0	100
random	6	1	23	1258661	4	2	2	1	0	985	1	4	0	176	23	0	0	100
random	6	1	24	1259964	1	4	4	1	0	730	1	4	0	192	24	0	0	100
random	6	1	25	1261830	4	3	3	1	0	1450	1	4	0	184	25	0	0	100
random	6	1	26	1263718	2	1	1	2	0	1114	2	4	0	168	26	0	0	100
random	6	1	27	1265838	5	2	2	1	0	1025	1	4	0	176	27	0	0	100
random	6	1	28	1267877	6	4	4	1	0	730	1	4	0	192	28	0	0	100
random	6	1	29	1269633	1	3	3	1	0	1112	1	4	0	184	29	0	0	100
random	6	1	30	1271063	5	2	2	1	0	868	1	4	0	176	30	0	0	100
random	6	1	31	1272277	2	1	1	1	0	976	1	4	0	168	31	0	0	100
random	6	1	32	1273728	3	3	3	1	0	1171	1	4	0	184	32	0	0	100
random	6	1	33	1275437	6	4	4	1	0	746	1	4	0	192	33	0	0	100
random	6	1	34	1277161	4	2	2	1	0	937	1	4	0	176	34	0	0	100
random	6	1	35	1278665	3	4	4	1	0	698	1	4	0	192	35	0	0	100
random	6	1	36	1279745	1	1	1	1	0	900	1	4	0	168	36	0	0	100
random	6	1	37	1281646	3	4	4	1	0	1235	1	4	0	192	37	0	0	100
random	6	1	38	1283377	5	3	3	1	0	986	1	4	0	184	38	0	0	100
random	6	1	39	1285354	6	1	1	1	0	870	1	4	0	168	39	0	0	100
random	6	1	40	1287084	1	2	2	1	0	685	1	4	0	176	40	0	0	100
random	6	1	41	1288211	2	3	3	1	0	1021	1	4	0	184	41	0	0	100
random	6	1	42	1289900	4	4	4	1	0	686	1	4	0	192	42	0	0	100
random	6	1	43	1291389	1	2	2	1	0	871	1	4	0	176	43	0	0	100
random	6	1	44	1292943	6	3	3	1	0	941	1	4	0	184	44	0	0	100
random	6	1	45	1294425	3	1	1	1	0	926	1	4	0	168	45	0	0	100
random	6	1	46	1296219	4	4	4	1	0	634	1	4	0	192	46	0	0	100
random	6	1	47	1297424	2	2	2	1	0	847	1	4	0	176	47	0	0	100
random	6	1	48	1299255	5	1	1	1	0	985	1	4	0	168	48	0	0	100
random	6	1	49	1301109	2	3	3	1	0	1059	1	4	0	184	49	0	0	100
random	6	1	50	1302865	3	1	1	1	0	912	1	4	0	168	50	0	0	100
random	6	1	51	1304232	1	4	4	1	0	774	1	4	0	192	51	0	0	100
random	6	1	52	1306054	5	3	3	1	0	1049	1	4	0	184	52	0	0	100
random	6	1	53	1307760	3	2	2	1	0	809	1	4	0	176	53	0	0	100
random	6	1	54	1308883	6	4	0	1	2	0	3	4	0	192	53	0	1	98
random	6	1	55	1312007	4	2	2	1	0	997	1	4	0	176	54	0	1	98
random	6	1	56	1313348	1	1	1	1	0	1029	1	4	0	168	55	0	1	98
random	6	1	57	1314811	5	4	4	1	0	958	1	4	0	192	56	0	1	98
random	6	1	58	1316695	2	1	1	1	0	894	1	4	0	168	57	0	1	98
random	6	1	59	1318342	6	2	2	1	0	1305	1	4	0	176	58	0	1	98
random	6	1	60	1320491	4	3	3	1	0	662	1	4	0	184	59	0	1	98
random	6	1	61	1322329	1	2	2	1	0	936	1	4	0	176	60	0	1	98
random	6	1	62	1324071	6	4	4	1	0	758	1	4	0	192	61	0	1	98
random	6	1	63	1325228	4	1	1	1	0	846	1	4	0	168	62	0	1	98
random	6	1	64	1326731	2	2	2	1	0	1038	1	4	0	176	63	0	1	98
random	6	1	65	1328760	4	3	3	1	0	1056	1	4	0	184	64	0	1	98
random	6	1	66	1330776	3	1	1	1	0	931	1	4	0	168	65	0	1	98
random	6	1	67	1332487	1	3	3	1	0	994	1	4	0	184	66	0	1	99
random	6	1	68	1334450	5	4	4	1	0	815	1	4	0	192	67	0	1	99
random	6	1	69	1335939	2	2	2	1	0	816	1	4	0	176	68	0	1	99
random	6	1	70	1337735	3	1	1	1	0	836	1	4	0	168	69	0	1	99
random	6	1	71	1339558	5	4	4	1	0	758	1	4	0	192	70	0	1	99
random	6	1	72	1341317	6	3	3	1	0	1188	1	4	0	184	71	0	1	99
random	6	1	73	1343263	2	1	1	1	0	937	1	4	0	168	72	0	1	99
random	6	1	74	1344591	5	3	3	1	0	1025	1	4	0	184	73	0	1	99
random	6	1	75	1346035	1	4	4	1	0	916	1	4	0	192	74	0	1	99
random	6	1	76	1347689	6	2	2	1	0	886	1	4	0	176	75	0	1	99
random	6	1	77	1349488	2	1	1	1	0	890	1	4	0	168	76	0	1	99
random	6	1	78	1351285	4	4	4	1	0	862	1	4	0	192	77	0	1	99
random	6	1	79	1352464	3	2	2	1	0	1412	1	4	0	176	78	0	1	99
random	6	1	80	1354795	4	3	3	1	0	737	1	4	0	184	79	0	1	99
random	6	1	81	1356221	1	4	4	1	0	701	1	4	0	192	80	0	1	99
random	6	1	82	1357681	5	1	1	1	0	767	1	4	0	168	81	0	1	99
random	6	1	83	1359206	3	2	2	1	0	1086	1	4	0	176	82	0	1	99
random	6	1	84	1361339	6	3	3	1	0	1004	1	4	0	184	83	0	1	99
random	6	1	85	1363179	3	2	2	1	0	886	1	4	0	176	84	0	1	99
random	6	1	86	1364484	1	3	3	1	0	839	1	4	0	184	85	0	1	99
random	6	1	87	1366289	4	4	4	1	0	530	1	4	0	192	86	0	1	99
random	6	1	88	1367151	2	1	1	1	0	654	1	4	0	168	87	0	1	99
random	6	1	89	1368710	6	4	4	1	0	1068	1	4	0	192	88	0	1	99
random	6	1	90	1370720	3	3	3	1	0	1175	1	4	0	184	89	0	1	99
random	6	1	91	1372198	5	4	4	1	0	976	1	4	0	192	90	0	1	99
random	6	1	92	1373908	1	2	2	1	0	648	1	4	0	176	91	0	1	99
random	6	1	93	1375574	5	1	1	1	0	713	1	4	0	168	92	0	1	99
random	6	1	94	1376784	4	3	3	1	0	950	1	4	0	184	93	0	1	99
random	6	1	95	1378111	6	1	1	1	0	742	1	4	0	168	94	0	1	99
random	6	1	96	1379335	2	2	2	1	0	722	1	4	0	176	95	0	1	99
random	6	1	97	1380939	4	3	3	1	0	1126	1	4	0	184	96	0	1	99
random	6	1	98	1382945	3	2	2	1	0	689	1	4	0	176	97	0	1	99
random	6	1	99	1384299	6	3	3	1	0	791	1	4	0	184	98	0	1	99
random	6	1	100	1385418	1	4	4	1	0	928	1	4	0	192	99	0	1	99
random	6	1	101	1387281	4	1	1	1	0	873	1	4	0	168	100	0	1	99
random	6	1	102	1388819	5	2	0	1	2	0	3	4	0	176	100	0	2	98
random	6	1	103	1392313	2	4	4	1	0	764	1	4	0	192	101	0	2	98
random	6	1	104	1393491	3	1	1	1	0	1210	1	4	0	168	102	0	2	98
random	6	1	105	1395464	1	3	3	1	0	1167	1	4	0	184	103	0	2	98
random	6	1	106	1397505	2	2	2	1	0	1024	1	4	0	176	104	0	2	98
random	6	1	107	1399444	5	4	4	1	0	1022	1	4	0	192	105	0	2	98
random	6	1	108	1401421	6	1	1	1	0	914	1	4	0	168	106	0	2	98
random	6	1	109	1403160	5	4	4	1	0	984	1	4	0	192	107	0	2	98
random	6	1	110	1404574	6	3	3	1	0	925	1	4	0	184	108	0	2	98
random	6	1	111	1406294	2	2	2	1	0	580	1	4	0	176	109	0	2	98
random	6	1	112	1407683	3	1	1	1	0	1033	1	4	0	168	110	0	2	98
random	6	1	113	1409624	1	2	2	1	0	1303	1	4	0	176	111	0	2	98
random	6	1	114	1411759	2	3	3	1	0	525	1	4	0	184	112	0	2	98
random	6	1	115	1413026	3	1	1	1	0	631	1	4	0	168	113	0	2	98
random	6	1	116	1414678	4	4	4	1	0	513	1	4	0	192	114	0	2	98
random	6	1	117	1416013	6	1	1	1	0	808	1	4	0	168	115	0	2	98
random	6	1	118	1417291	5	3	3	1	0	1074	1	4	0	184	116	0	2	98
random	6	1	119	1419273	1	4	4	1	0	902	1	4	0	192	117	0	2	98
random	6	1	120	1420485	4	2	2	1	0	675	1	4	0	176	118	0	2	98
fixed	7	1	1	1422706	4	1	1	1	0	956	1	4	0	200	1	0	0	100
fixed	7	1	2	1423989	1	2	2	1	0	1311	1	4	0	208	2	0	0	100
fixed	7	1	3	1426054	6	4	4	1	0	615	1	4	0	224	3	0	0	100
fixed	7	1	4	1427126	2	1	1	1	0	826	1	4	0	200	4	0	0	100
fixed	7	1	5	1428722	5	3	3	1	0	886	1	4	0	216	5	0	0	100
fixed	7	1	6	1430475	6	4	4	1	0	1107	1	4	0	224	6	0	0	100
fixed	7	1	7	1432541	3	1	1	1	0	828	1	4	0	200	7	0	0	100
fixed	7	1	8	1434068	2	3	3	1	0	891	1	4	0	216	8	0	0	100
fixed	7	1	9	1435581	3	2	2	1	0	620	1	4	0	208	9	0	0	100
fixed	7	1	10	1436555	1	4	4	1	0	875	1	4	0	224	10	0	0	100
fixed	7	1	11	1438455	5	2	2	1	0	1226	1	4	0	208	11	0	0	100
fixed	7	1	12	1440446	4	3	3	1	0	662	1	4	0	216	12	0	0	100
fixed	7	2	1	1441805	4	1	1	1	0	844	1	4	0	200	1	0	0	8
fixed	7	2	2	1443655	1	2	2	1	0	1006	1	4	0	208	2	0	0	14
fixed	7	2	3	1445682	6	4	4	1	0	671	1	4	0	224	3	0	0	20
fixed	7	2	4	1446750	2	1	1	1	0	778	1	4	0	200	4	0	0	25
fixed	7	2	5	1448043	5	3	3	1	0	1220	1	4	0	216	5	0	0	29
fixed	7	2	6	1449952	6	4	4	1	0	891	1	4	0	224	6	0	0	33
fixed	7	2	7	1451803	3	1	1	1	0	1044	1	4	0	200	7	0	0	37
fixed	7	2	8	1453326	2	3	3	1	0	1004	1	4	0	216	8	0	0	40
fixed	7	2	9	1454931	3	2	2	1	0	872	1	4	0	208	9	0	0	43
fixed	7	2	10	1456631	1	4	4	1	0	736	1	4	0	224	10	0	0	45
fixed	7	2	11	1457756	5	2	2	1	0	961	1	4	0	208	11	0	0	48
fixed	7	2	12	1459668	4	3	3	1	0	855	1	4	0	216	12	0	0	50
fixed	7	3	1	1461270	4	1	1	1	0	667	1	4	0	200	1	0	0	4
fixed	7	3	2	1462756	1	2	2	1	0	1364	1	4	0	208	2	0	0	8
fixed	7	3	3	1465140	6	4	4	1	0	664	1	4	0	224	3	0	0	11
fixed	7	3	4	1466468	2	1	1	1	0	791	1	4	0	200	4	0	0	14
fixed	7	3	5	1468050	5	3	3	1	0	965	1	4	0	216	5	0	0	17
fixed	7	3	6	1469938	6	4	4	1	0	852	1	4	0	224	6	0	0	20
fixed	7	3	7	1471766	3	1	1	1	0	735	1	4	0	200	7	0	0	23
fixed	7	3	8	1473080	2	3	3	1	0	951	1	4	0	216	8	0	0	25
fixed	7	3	9	1474515	3	2	2	1	0	747	1	4	0	208	9	0	0	27
fixed	7	3	10	1476255	1	4	4	1	0	688	1	4	0	224	10	0	0	29
fixed	7	3	11	1477385	5	2	2	1	0	1153	1	4	0	208	11	0	0	31
fixed	7	3	12	1479482	4	3	3	1	0	768	1	4	0	216	12	0	0	33
fixed	7	4	1	1480801	4	1	1	1	0	672	1	4	0	200	1	0	0	3
fixed	7	4	2	1481873	1	2	2	1	0	1235	1	4	0	208	2	0	0	5
fixed	7	4	3	1483844	6	4	4	1	0	655	1	4	0	224	3	0	0	8
fixed	7	4	4	1484948	2	1	1	1	0	768	1	4	0	200	4	0	0	10
fixed	7	4	5	1486562	5	3	3	1	0	949	1	4	0	216	5	0	0	12
fixed	7	4	6	1488085	6	4	4	1	0	779	1	4	0	224	6	0	0	14
fixed	7	4	7	1489343	3	1	1	1	0	678	1	4	0	200	7	0	0	16
fixed	7	4	8	1490852	2	3	3	1	0	959	1	4	0	216	8	0	0	18
fixed	7	4	9	1492566	3	2	2	1	0	542	1	4	0	208	9	0	0	20
fixed	7	4	10	1493750	1	4	4	1	0	700	1	4	0	224	10	0	0	22
fixed	7	4	11	1495071	5	2	2	1	0	1060	1	4	0	208	11	0	0	23
fixed	7	4	12	1497074	4	3	3	1	0	663	1	4	0	216	12	0	0	25
fixed	7	5	1	1499012	4	1	1	1	0	629	1	4	0	200	1	0	0	2
fixed	7	5	2	1499939	1	2	2	1	0	1094	1	4	0	208	2	0	0	4
fixed	7	5	3	1501841	6	4	4	1	0	701	1	4	0	224	3	0	0	6
fixed	7	5	4	1503253	2	1	1	1	0	681	1	4	0	200	4	0	0	8
fixed	7	5	5	1504759	5	3	3	1	0	873	1	4	0	216	5	0	0	9
fixed	7	5	6	1506490	6	4	0	0	2	0	3	4	0	224	5	0	1	9
fixed	7	5	7	1509705	3	1	1	1	0	768	1	4	0	200	6	0	1	11
fixed	7	5	8	1511052	2	3	3	1	0	1287	1	4	0	216	7	0	1	13
fixed	7	5	9	1513298	3	2	2	1	0	672	1	4	0	208	8	0	1	14
fixed	7	5	10	1514433	1	4	4	1	0	655	1	4	0	224	9	0	1	16
fixed	7	5	11	1515591	5	2	2	1	0	1135	1	4	0	208	10	0	1	17
fixed	7	5	12	1517066	4	3	3	1	0	776	1	4	0	216	11	0	1	18
fixed	7	6	1	1518944	4	1	1	1	0	720	1	4	0	200	1	0	0	2
fixed	7	6	2	1520099	1	2	2	1	0	1168	1	4	0	208	2	0	0	3
fixed	7	6	3	1522286	6	4	4	1	0	571	1	4	0	224	3	0	0	5
fixed	7	6	4	1523870	2	1	1	1	0	896	1	4	0	200	4	0	0	6
fixed	7	6	5	1525787	5	3	3	1	0	711	1	4	0	216	5	0	0	8
fixed	7	6	6	1527091	6	4	4	1	0	504	1	4	0	224	6	0	0	9
fixed	7	6	7	1527970	3	1	1	1	0	738	1	4	0	200	7	0	0	10
fixed	7	6	8	1529681	2	3	3	1	0	930	1	4	0	216	8	0	0	12
fixed	7	6	9	1531111	3	2	2	1	0	765	1	4	0	208	9	0	0	13
fixed	7	6	10	1532377	1	4	4	1	0	783	1	4	0	224	10	0	0	14
fixed	7	6	11	1533667	5	2	2	1	0	1017	1	4	0	208	11	0	0	15
fixed	7	6	12	1535588	4	3	3	1	0	1448	1	4	0	216	12	0	0	17
fixed	7	7	1	1538325	4	1	1	1	0	932	1	4	0	200	1	0	0	1
fixed	7	7	2	1540218	1	2	2	1	0	980	1	4	0	208	2	0	0	3
fixed	7	7	3	1542100	6	4	4	1	0	476	1	4	0	224	3	0	0	4
fixed	7	7	4	1543556	2	1	1	1	0	798	1	4	0	200	4	0	0	5
fixed	7	7	5	1545081	5	3	3	1	0	814	1	4	0	216	5	0	0	6
fixed	7	7	6	1546913	6	4	4	1	0	640	1	4	0	224	6	0	0	8
fixed	7	7	7	1548013	3	1	1	1	0	785	1	4	0	200	7	0	0	9
fixed	7	7	8	1549414	2	3	3	1	0	1182	1	4	0	216	8	0	0	10
fixed	7	7	9	1550946	3	2	2	1	0	685	1	4	0	208	9	0	0	11
fixed	7	7	10	1552367	1	4	4	1	0	641	1	4	0	224	10	0	0	12
fixed	7	7	11	1553735	5	2	2	1	0	1247	1	4	0	208	11	0	0	13
fixed	7	7	12	1555476	4	3	3	1	0	934	1	4	0	216	12	0	0	14
fixed	7	8	1	1557088	4	1	1	1	0	649	1	4	0	200	1	0	0	1
fixed	7	8	2	1558214	1	2	2	1	0	1209	1	4	0	208	2	0	0	2
fixed	7	8	3	1560444	6	4	4	1	0	435	1	4	0	224	3	0	0	3
fixed	7	8	4	1561578	2	1	1	1	0	667	1	4	0	200	4	0	0	5
fixed	7	8	5	1563212	5	3	3	1	0	518	1	4	0	216	5	0	0	6
fixed	7	8	6	1564180	6	4	4	1	0	693	1	4	0	224	6	0	0	7
fixed	7	8	7	1565688	3	1	1	1	0	861	1	4	0	200	7	0	0	8
fixed	7	8	8	1567212	2	3	3	1	0	796	1	4	0	216	8	0	0	9
fixed	7	8	9	1568760	3	2	2	1	0	427	1	4	0	208	9	0	0	10
fixed	7	8	10	1569681	1	4	4	1	0	564	1	4	0	224	10	0	0	11
fixed	7	8	11	1570663	5	2	2	1	0	994	1	4	0	208	11	0	0	12
fixed	7	8	12	1572273	4	3	3	1	0	758	1	4	0	216	12	0	0	13
fixed	7	9	1	1573929	4	1	1	1	0	744	1	4	0	200	1	0	0	1
fixed	7	9	2	1575549	1	2	2	1	0	1091	1	4	0	208	2	0	0	2
fixed	7	9	3	1577402	6	4	4	1	0	444	1	4	0	224	3	0	0	3
fixed	7	9	4	1578754	2	1	1	1	0	804	1	4	0	200	4	0	0	4
fixed	7	9	5	1580429	5	3	3	1	0	484	1	4	0	216	5	0	0	5
fixed	7	9	6	1581255	6	4	4	1	0	666	1	4	0	224	6	0	0	6
fixed	7	9	7	1582541	3	1	1	1	0	747	1	4	0	200	7	0	0	7
fixed	7	9	8	1583728	2	3	3	1	0	777	1	4	0	216	8	0	0	8
fixed	7	9	9	1585320	3	2	2	1	0	1166	1	4	0	208	9	0	0	9
fixed	7	9	10	1586976	1	4	4	1	0	663	1	4	0	224	10	0	0	9
fixed	7	9	11	1588030	5	2	2	1	0	954	1	4	0	208	11	0	0	10
fixed	7	9	12	1589727	4	3	3	1	0	739	1	4	0	216	12	0	0	11
fixed	7	10	1	1591656	4	1	1	1	0	729	1	4	0	200	1	0	0	1
fixed	7	10	2	1592733	1	2	2	1	0	1043	1	4	0	208	2	0	0	2
fixed	7	10	3	1594676	6	4	4	1	0	417	1	4	0	224	3	0	0	3
fixed	7	10	4	1596020	2	1	1	1	0	848	1	4	0	200	4	0	0	4
fixed	7	10	5	1597872	5	3	3	1	0	385	1	4	0	216	5	0	0	4
fixed	7	10	6	1599303	6	4	4	1	0	341	1	4	0	224	6	0	0	5
fixed	7	10	7	1600081	3	1	1	1	0	684	1	4	0	200	7	0	0	6
fixed	7	10	8	1601358	2	3	3	1	0	798	1	4	0	216	8	0	0	7
fixed	7	10	9	1602789	3	2	2	1	0	401	1	4	0	208	9	0	0	8
fixed	7	10	10	1603750	1	4	4	1	0	560	1	4	0	224	10	0	0	8
fixed	7	10	11	1604959	5	2	2	1	0	1093	1	4	0	208	11	0	0	9
fixed	7	10	12	1606960	4	3	0	0	2	0	3	4	0	216	11	0	1	9
