type	block	sequ.	trial	time	Pos.	Color	Button	NumRsp	Resp_1	RT_1	R_Code	Resp_2	RT_2	Trigg.	n_hit	n_inc	n_miss	score_%

random	1	1	1	1458	6	1	0	0	2	0	3	4	0	8	0	0	1	0
random	1	1	2	4644	4	4	4	1	0	1398	1	4	0	32	1	0	1	50
random	1	1	3	6837	2	2	2	1	0	1296	1	4	0	16	2	0	1	67
random	1	1	4	8969	3	3	3	1	0	1078	1	4	0	24	3	0	1	75
random	1	1	5	10525	5	2	2	2	0	1613	2	4	0	16	4	0	1	80
random	1	1	6	12787	1	4	4	1	0	916	1	4	0	32	5	0	1	83
random	1	1	7	14604	6	1	1	1	0	1160	1	4	0	8	6	0	1	86
random	1	1	8	16502	2	3	3	1	0	999	1	4	0	24	7	0	1	88
random	1	1	9	18216	4	2	2	1	0	1222	1	4	0	16	8	0	1	89
random	1	1	10	19777	1	1	1	2	0	1373	2	4	0	8	9	0	1	90
random	1	1	11	21444	5	4	4	1	0	670	1	4	0	32	10	0	1	91
random	1	1	12	23105	3	3	3	1	0	1440	1	4	0	24	11	0	1	92
random	1	1	13	25251	5	2	2	1	0	1188	1	4	0	16	12	0	1	92
random	1	1	14	27101	1	4	4	1	0	711	1	4	0	32	13	0	1	93
random	1	1	15	28412	3	1	1	1	0	1007	1	4	0	8	14	0	1	93
random	1	1	16	29956	4	3	3	1	0	1062	1	4	0	24	15	0	1	94
random	1	1	17	31448	6	4	4	1	0	798	1	4	0	32	16	0	1	94
random	1	1	18	33041	2	1	1	1	0	987	1	4	0	8	17	0	1	94
random	1	1	19	34600	5	3	3	2	0	1521	2	4	0	24	18	0	1	95
random	1	1	20	37014	2	2	2	1	0	1162	1	4	0	16	19	0	1	95
random	1	1	21	38917	3	3	3	1	0	1346	1	4	0	24	20	0	1	95
random	1	1	22	40923	6	1	1	1	0	1229	1	4	0	8	21	0	1	95
random	1	1	23	42929	4	2	2	1	0	1256	1	4	0	16	22	0	1	96
random	1	1	24	44808	1	4	4	1	0	625	1	4	0	32	23	0	1	96
random	1	1	25	46621	4	3	3	1	0	1611	1	4	0	24	24	0	1	96
random	1	1	26	49157	2	1	1	1	0	1065	1	4	0	8	25	0	1	96
random	1	1	27	50774	5	2	2	1	0	1268	1	4	0	16	26	0	1	96
random	1	1	28	52346	6	4	4	1	0	650	1	4	0	32	27	0	1	96
random	1	1	29	53404	1	3	3	2	0	1412	2	4	0	24	28	0	1	97
random	1	1	30	55299	5	2	2	1	0	1268	1	4	0	16	29	0	1	97
random	1	1	31	57506	2	1	1	1	0	983	1	4	0	8	30	0	1	97
random	1	1	32	58908	3	3	3	1	0	1019	1	4	0	24	31	0	1	97
random	1	1	33	60688	6	4	4	1	0	696	1	4	0	32	32	0	1	97
random	1	1	34	61790	4	2	2	1	0	1329	1	4	0	16	33	0	1	97
random	1	1	35	63464	3	4	4	1	0	786	1	4	0	32	34	0	1	97
random	1	1	36	64641	1	1	1	1	0	1129	1	4	0	8	35	0	1	97
random	1	1	37	66520	3	4	4	1	0	761	1	4	0	32	36	0	1	97
random	1	1	38	67770	5	3	3	1	0	1380	1	4	0	24	37	0	1	97
random	1	1	39	69431	6	1	1	1	0	1181	1	4	0	8	38	0	1	97
random	1	1	40	71584	1	2	2	1	0	1370	1	4	0	16	39	0	1	98
random	1	1	41	73791	2	3	3	1	0	1309	1	4	0	24	40	0	1	98
random	1	1	42	76023	4	4	4	1	0	759	1	4	0	32	41	0	1	98
random	1	1	43	77787	1	2	2	1	0	1116	1	4	0	16	42	0	1	98
random	1	1	44	79890	6	3	3	1	0	1338	1	4	0	24	43	0	1	98
random	1	1	45	82239	3	1	1	1	0	1151	1	4	0	8	44	0	1	98
random	1	1	46	84212	4	4	4	1	0	731	1	4	0	32	45	0	1	98
random	1	1	47	85282	2	2	0	1	2	0	3	4	0	16	45	0	2	96
random	1	1	48	88096	5	1	1	1	0	1551	1	4	0	8	46	0	2	96
random	1	1	49	90579	2	3	3	1	0	1102	1	4	0	24	47	0	2	96
random	1	1	50	92429	3	1	1	1	0	1352	1	4	0	8	48	0	2	96
random	1	1	51	94124	1	4	4	1	0	784	1	4	0	32	49	0	2	96
random	1	1	52	95934	5	3	3	1	0	1035	1	4	0	24	50	0	2	96
random	1	1	53	97249	3	2	2	1	0	1211	1	4	0	16	51	0	2	96
random	1	1	54	98919	6	4	4	1	0	708	1	4	0	32	52	0	2	96
random	1	1	55	100166	4	2	2	1	0	1064	1	4	0	16	53	0	2	96
random	1	1	56	102178	1	1	1	1	0	1018	1	4	0	8	54	0	2	96
random	1	1	57	104171	5	4	4	1	0	790	1	4	0	32	55	0	2	96
random	1	1	58	105693	2	1	1	1	0	902	1	4	0	8	56	0	2	97
random	1	1	59	107564	6	2	2	1	0	1055	1	4	0	16	57	0	2	97
random	1	1	60	109242	4	3	3	1	0	1063	1	4	0	24	58	0	2	97
random	1	1	61	111363	1	2	2	1	0	1229	1	4	0	16	59	0	2	97
random	1	1	62	113589	6	4	4	1	0	671	1	4	0	32	60	0	2	97
random	1	1	63	115283	4	1	1	1	0	960	1	4	0	8	61	0	2	97
random	1	1	64	117189	2	2	2	1	0	1095	1	4	0	16	62	0	2	97
random	1	1	65	118750	4	3	3	1	0	1013	1	4	0	24	63	0	2	97
random	1	1	66	120512	3	1	1	1	0	978	1	4	0	8	64	0	2	97
random	1	1	67	122394	1	3	3	1	0	1074	1	4	0	24	65	0	2	97
random	1	1	68	124091	5	4	4	1	0	699	1	4	0	32	66	0	2	97
random	1	1	69	125673	2	2	2	1	0	1088	1	4	0	16	67	0	2	97
random	1	1	70	127150	3	1	1	1	0	1233	1	4	0	8	68	0	2	97
random	1	1	71	129328	5	4	4	1	0	621	1	4	0	32	69	0	2	97
random	1	1	72	130271	6	3	3	1	0	1101	1	4	0	24	70	0	2	97
random	1	1	73	132415	2	1	1	1	0	1186	1	4	0	8	71	0	2	97
random	1	1	74	134032	5	3	3	1	0	1222	1	4	0	24	72	0	2	97
random	1	1	75	135638	1	4	4	1	0	969	1	4	0	32	73	0	2	97
random	1	1	76	137431	6	2	2	1	0	1237	1	4	0	16	74	0	2	97
random	1	1	77	139134	2	1	1	1	0	853	1	4	0	8	75	0	2	97
random	1	1	78	140546	4	4	4	1	0	698	1	4	0	32	76	0	2	97
random	1	1	79	141815	3	2	2	1	0	1244	1	4	0	16	77	0	2	97
random	1	1	80	143449	4	3	3	2	0	1503	2	4	0	24	78	0	2	98
random	1	1	81	145800	1	4	4	1	0	627	1	4	0	32	79	0	2	98
random	1	1	82	147004	5	1	1	2	0	1208	2	4	0	8	80	0	2	98
random	1	1	83	148786	3	2	2	1	0	1188	1	4	0	16	81	0	2	98
random	1	1	84	150459	6	3	3	1	0	1109	1	4	0	24	82	0	2	98
random	1	1	85	152180	3	2	2	2	0	1333	2	4	0	16	83	0	2	98
random	1	1	86	153948	1	3	3	1	0	1233	1	4	0	24	84	0	2	98
random	1	1	87	155842	4	4	4	1	0	586	1	4	0	32	85	0	2	98
random	1	1	88	157405	2	1	1	1	0	912	1	4	0	8	86	0	2	98
random	1	1	89	159117	6	4	4	1	0	871	1	4	0	32	87	0	2	98
random	1	1	90	160956	3	3	3	1	0	1105	1	4	0	24	88	0	2	98
random	1	1	91	163038	5	4	4	1	0	849	1	4	0	32	89	0	2	98
random	1	1	92	164361	1	2	2	1	0	1049	1	4	0	16	90	0	2	98
random	1	1	93	165788	5	1	1	1	0	1092	1	4	0	8	91	0	2	98
random	1	1	94	167820	4	3	3	1	0	998	1	4	0	24	92	0	2	98
random	1	1	95	169464	6	1	1	1	0	1017	1	4	0	8	93	0	2	98
random	1	1	96	170892	2	2	2	1	0	1196	1	4	0	16	94	0	2	98
random	1	1	97	173265	4	3	3	1	0	1087	1	4	0	24	95	0	2	98
random	1	1	98	175174	3	2	2	2	0	1447	2	4	0	16	96	0	2	98
random	1	1	99	176972	6	3	3	1	0	1018	1	4	0	24	97	0	2	98
random	1	1	100	178930	1	4	4	1	0	584	1	4	0	32	98	0	2	98
random	1	1	101	180399	4	1	1	1	0	1009	1	4	0	8	99	0	2	98
random	1	1	102	182187	5	2	2	1	0	1246	1	4	0	16	100	0	2	98
random	1	1	103	183987	2	4	4	1	0	690	1	4	0	32	101	0	2	98
random	1	1	104	185626	3	1	1	1	0	1092	1	4	0	8	102	0	2	98
random	1	1	105	187075	1	3	3	1	0	1031	1	4	0	24	103	0	2	98
random	1	1	106	188905	2	2	2	1	0	1969	1	4	0	16	104	0	2	98
random	1	1	107	191884	5	4	4	1	0	643	1	4	0	32	105	0	2	98
random	1	1	108	193544	6	1	1	1	0	1117	1	4	0	8	106	0	2	98
random	1	1	109	195587	5	4	4	1	0	726	1	4	0	32	107	0	2	98
random	1	1	110	197174	6	3	3	1	0	1291	1	4	0	24	108	0	2	98
random	1	1	111	199003	2	2	2	2	0	1702	2	4	0	16	109	0	2	98
random	1	1	112	200991	3	1	1	1	0	897	1	4	0	8	110	0	2	98
random	1	1	113	202663	1	2	2	1	0	1267	1	4	0	16	111	0	2	98
random	1	1	114	204823	2	3	3	1	0	887	1	4	0	24	112	0	2	98
random	1	1	115	206205	3	1	1	1	0	1029	1	4	0	8	113	0	2	98
random	1	1	116	207849	4	4	4	1	0	623	1	4	0	32	114	0	2	98
random	1	1	117	208890	6	1	1	1	0	971	1	4	0	8	115	0	2	98
random	1	1	118	210355	5	3	3	1	0	1124	1	4	0	24	116	0	2	98
random	1	1	119	211878	1	4	4	1	0	548	1	4	0	32	117	0	2	98
random	1	1	120	213288	4	2	2	1	0	1065	1	4	0	16	118	0	2	98
fixed	2	1	1	215249	4	1	1	2	0	1021	2	4	0	40	1	0	0	100
fixed	2	1	2	216799	1	2	2	1	0	1188	1	4	0	48	2	0	0	100
fixed	2	1	3	218608	6	4	4	1	0	799	1	4	0	64	3	0	0	100
fixed	2	1	4	220093	2	1	1	1	0	961	1	4	0	40	4	0	0	100
fixed	2	1	5	221369	5	3	3	1	0	954	1	4	0	56	5	0	0	100
fixed	2	1	6	223149	6	4	4	1	0	663	1	4	0	64	6	0	0	100
fixed	2	1	7	224757	3	1	1	1	0	906	1	4	0	40	7	0	0	100
fixed	2	1	8	226580	2	3	3	1	0	1189	1	4	0	56	8	0	0	100
fixed	2	1	9	228750	3	2	2	1	0	1033	1	4	0	48	9	0	0	100
fixed	2	1	10	230260	1	4	4	1	0	730	1	4	0	64	10	0	0	100
fixed	2	1	11	231918	5	2	2	1	0	948	1	4	0	48	11	0	0	100
fixed	2	1	12	233397	4	3	3	1	0	1093	1	4	0	56	12	0	0	100
fixed	2	2	1	235451	4	1	1	1	0	1014	1	4	0	40	13	0	0	100
fixed	2	2	2	236765	1	2	2	1	0	1222	1	4	0	48	14	0	0	100
fixed	2	2	3	238646	6	4	4	1	0	686	1	4	0	64	15	0	0	100
fixed	2	2	4	240227	2	1	1	1	0	1019	1	4	0	40	16	0	0	100
fixed	2	2	5	241980	5	3	3	1	0	858	1	4	0	56	17	0	0	100
fixed	2	2	6	243552	6	4	4	1	0	766	1	4	0	64	18	0	0	100
fixed	2	2	7	244999	3	1	1	1	0	1018	1	4	0	40	19	0	0	100
fixed	2	2	8	246510	2	3	3	1	0	1033	1	4	0	56	20	0	0	100
fixed	2	2	9	247964	3	2	2	1	0	964	1	4	0	48	21	0	0	100
fixed	2	2	10	249967	1	4	4	1	0	639	1	4	0	64	22	0	0	100
fixed	2	2	11	251418	5	2	2	1	0	1074	1	4	0	48	23	0	0	100
fixed	2	2	12	253208	4	3	3	1	0	998	1	4	0	56	24	0	0	100
fixed	2	3	1	254932	4	1	1	1	0	964	1	4	0	40	25	0	0	100
fixed	2	3	2	256222	1	2	2	1	0	1302	1	4	0	48	26	0	0	100
fixed	2	3	3	258475	6	4	4	1	0	766	1	4	0	64	27	0	0	100
fixed	2	3	4	260016	2	1	1	1	0	933	1	4	0	40	28	0	0	100
fixed	2	3	5	261839	5	3	3	1	0	864	1	4	0	56	29	0	0	100
fixed	2	3	6	263152	6	4	4	1	0	784	1	4	0	64	30	0	0	100
fixed	2	3	7	264864	3	1	1	1	0	1088	1	4	0	40	31	0	0	100
fixed	2	3	8	266325	2	3	3	1	0	1138	1	4	0	56	32	0	0	100
fixed	2	3	9	267782	3	2	2	1	0	652	1	4	0	48	33	0	0	100
fixed	2	3	10	268775	1	4	4	1	0	611	1	4	0	64	34	0	0	100
fixed	2	3	11	269869	5	2	2	1	0	1140	1	4	0	48	35	0	0	100
fixed	2	3	12	271922	4	3	3	1	0	973	1	4	0	56	36	0	0	100
fixed	2	4	1	273678	4	1	1	1	0	1051	1	4	0	40	37	0	0	100
fixed	2	4	2	275402	1	2	2	1	0	1018	1	4	0	48	38	0	0	100
fixed	2	4	3	276759	6	4	4	1	0	744	1	4	0	64	39	0	0	100
fixed	2	4	4	278382	2	1	1	1	0	1060	1	4	0	40	40	0	0	100
fixed	2	4	5	280441	5	3	3	1	0	1077	1	4	0	56	41	0	0	100
fixed	2	4	6	282375	6	4	4	1	0	659	1	4	0	64	42	0	0	100
fixed	2	4	7	283742	3	1	1	2	0	1089	2	4	0	40	43	0	0	100
fixed	2	4	8	285396	2	3	3	1	0	1298	1	4	0	56	44	0	0	100
fixed	2	4	9	287709	3	2	2	1	0	977	1	4	0	48	45	0	0	100
fixed	2	4	10	289210	1	4	4	1	0	737	1	4	0	64	46	0	0	100
fixed	2	4	11	290280	5	2	2	1	0	932	1	4	0	48	47	0	0	100
fixed	2	4	12	291504	4	3	3	1	0	1111	1	4	0	56	48	0	0	100
fixed	2	5	1	293510	4	1	1	1	0	731	1	4	0	40	49	0	0	100
fixed	2	5	2	295130	1	2	2	1	0	1334	1	4	0	48	50	0	0	100
fixed	2	5	3	296977	6	4	4	1	0	640	1	4	0	64	51	0	0	100
fixed	2	5	4	298214	2	1	1	1	0	948	1	4	0	40	52	0	0	100
fixed	2	5	5	299682	5	3	3	1	0	877	1	4	0	56	53	0	0	100
fixed	2	5	6	300917	6	4	4	1	0	873	1	4	0	64	54	0	0	100
fixed	2	5	7	302535	3	1	1	1	0	996	1	4	0	40	55	0	0	100
fixed	2	5	8	304041	2	3	3	1	0	1245	1	4	0	56	56	0	0	100
fixed	2	5	9	305916	3	2	2	1	0	1277	1	4	0	48	57	0	0	100
fixed	2	5	10	308081	1	4	4	1	0	721	1	4	0	64	58	0	0	100
fixed	2	5	11	309526	5	2	2	1	0	1101	1	4	0	48	59	0	0	100
fixed	2	5	12	311010	4	3	3	1	0	934	1	4	0	56	60	0	0	100
fixed	2	6	1	312924	4	1	1	1	0	1004	1	4	0	40	61	0	0	100
fixed	2	6	2	314486	1	2	2	1	0	1162	1	4	0	48	62	0	0	100
fixed	2	6	3	316210	6	4	4	1	0	650	1	4	0	64	63	0	0	100
fixed	2	6	4	317267	2	1	1	1	0	1204	1	4	0	40	64	0	0	100
fixed	2	6	5	318888	5	3	3	1	0	968	1	4	0	56	65	0	0	100
fixed	2	6	6	320281	6	4	4	1	0	725	1	4	0	64	66	0	0	100
fixed	2	6	7	321950	3	1	1	1	0	1126	1	4	0	40	67	0	0	100
fixed	2	6	8	323756	2	3	3	1	0	1130	1	4	0	56	68	0	0	100
fixed	2	6	9	325682	3	2	2	1	0	1216	1	4	0	48	69	0	0	100
fixed	2	6	10	327440	1	4	4	1	0	622	1	4	0	64	70	0	0	100
fixed	2	6	11	329012	5	2	2	1	0	1035	1	4	0	48	71	0	0	100
fixed	2	6	12	331026	4	3	3	1	0	942	1	4	0	56	72	0	0	100
fixed	2	7	1	332756	4	1	1	1	0	1020	1	4	0	40	73	0	0	100
fixed	2	7	2	334327	1	2	2	1	0	1050	1	4	0	48	74	0	0	100
fixed	2	7	3	336009	6	4	4	1	0	779	1	4	0	64	75	0	0	100
fixed	2	7	4	337221	2	1	1	1	0	1039	1	4	0	40	76	0	0	100
fixed	2	7	5	338649	5	3	3	1	0	1171	1	4	0	56	77	0	0	100
fixed	2	7	6	340731	6	4	4	1	0	579	1	4	0	64	78	0	0	100
fixed	2	7	7	341752	3	1	1	1	0	1096	1	4	0	40	79	0	0	100
fixed	2	7	8	343735	2	3	3	1	0	1051	1	4	0	56	80	0	0	100
fixed	2	7	9	345250	3	2	2	1	0	972	1	4	0	48	81	0	0	100
fixed	2	7	10	346731	1	4	4	1	0	741	1	4	0	64	82	0	0	100
fixed	2	7	11	348251	5	2	2	1	0	956	1	4	0	48	83	0	0	100
fixed	2	7	12	349826	4	3	3	1	0	1122	1	4	0	56	84	0	0	100
fixed	2	8	1	352204	4	1	1	1	0	973	1	4	0	40	85	0	0	100
fixed	2	8	2	353683	1	2	2	1	0	1438	1	4	0	48	86	0	0	100
fixed	2	8	3	355793	6	4	4	1	0	1037	1	4	0	64	87	0	0	100
fixed	2	8	4	357360	2	1	1	1	0	995	1	4	0	40	88	0	0	100
fixed	2	8	5	359016	5	3	3	2	0	1189	2	4	0	56	89	0	0	100
fixed	2	8	6	360792	6	4	4	1	0	817	1	4	0	64	90	0	0	100
fixed	2	8	7	362346	3	1	1	1	0	1071	1	4	0	40	91	0	0	100
fixed	2	8	8	363989	2	3	3	1	0	1106	1	4	0	56	92	0	0	100
fixed	2	8	9	365612	3	2	2	1	0	877	1	4	0	48	93	0	0	100
fixed	2	8	10	366927	1	4	4	1	0	837	1	4	0	64	94	0	0	100
fixed	2	8	11	368141	5	2	2	1	0	929	1	4	0	48	95	0	0	100
fixed	2	8	12	369937	4	3	3	2	0	1206	2	4	0	56	96	0	0	100
fixed	2	9	1	372153	4	1	1	1	0	1104	1	4	0	40	97	0	0	100
fixed	2	9	2	373730	1	2	2	1	0	1093	1	4	0	48	98	0	0	100
fixed	2	9	3	375833	6	4	4	1	0	708	1	4	0	64	99	0	0	100
fixed	2	9	4	377209	2	1	1	1	0	970	1	4	0	40	100	0	0	100
fixed	2	9	5	378956	5	3	3	1	0	880	1	4	0	56	101	0	0	100
fixed	2	9	6	380693	6	4	4	1	0	702	1	4	0	64	102	0	0	100
fixed	2	9	7	382005	3	1	1	1	0	1327	1	4	0	40	103	0	0	100
fixed	2	9	8	383935	2	3	3	1	0	1045	1	4	0	56	104	0	0	100
fixed	2	9	9	385909	3	2	2	1	0	777	1	4	0	48	105	0	0	100
fixed	2	9	10	387531	1	4	4	1	0	661	1	4	0	64	106	0	0	100
fixed	2	9	11	388708	5	2	2	1	0	1202	1	4	0	48	107	0	0	100
fixed	2	9	12	390723	4	3	3	1	0	1133	1	4	0	56	108	0	0	100
fixed	2	10	1	392687	4	1	1	1	0	1002	1	4	0	40	109	0	0	100
fixed	2	10	2	394739	1	2	2	1	0	1203	1	4	0	48	110	0	0	100
fixed	2	10	3	396872	6	4	4	1	0	745	1	4	0	64	111	0	0	100
fixed	2	10	4	398475	2	1	1	1	0	1013	1	4	0	40	112	0	0	100
fixed	2	10	5	400212	5	3	3	1	0	948	1	4	0	56	113	0	0	100
fixed	2	10	6	401703	6	4	4	1	0	797	1	4	0	64	114	0	0	100
fixed	2	10	7	403402	3	1	1	1	0	1036	1	4	0	40	115	0	0	100
fixed	2	10	8	405164	2	3	3	1	0	1298	1	4	0	56	116	0	0	100
fixed	2	10	9	407319	3	2	2	1	0	1087	1	4	0	48	117	0	0	100
fixed	2	10	10	408961	1	4	4	1	0	537	1	4	0	64	118	0	0	100
fixed	2	10	11	409837	5	2	2	1	0	908	1	4	0	48	119	0	0	100
fixed	2	10	12	411261	4	3	3	1	0	992	1	4	0	56	120	0	0	100
fixed	3	1	1	413285	4	1	1	1	0	1017	1	4	0	72	1	0	0	100
fixed	3	1	2	414622	1	2	2	1	0	1409	1	4	0	80	2	0	0	100
fixed	3	1	3	416961	6	4	4	1	0	662	1	4	0	96	3	0	0	100
fixed	3	1	4	418453	2	1	1	1	0	1335	1	4	0	72	4	0	0	100
fixed	3	1	5	420416	5	3	3	1	0	1140	1	4	0	88	5	0	0	100
fixed	3	1	6	422383	6	4	4	1	0	737	1	4	0	96	6	0	0	100
fixed	3	1	7	423613	3	1	1	1	0	1292	1	4	0	72	7	0	0	100
fixed	3	1	8	425383	2	3	3	1	0	1009	1	4	0	88	8	0	0	100
fixed	3	1	9	427385	3	2	2	1	0	1261	1	4	0	80	9	0	0	100
fixed	3	1	10	429308	1	4	4	1	0	507	1	4	0	96	10	0	0	100
fixed	3	1	11	430772	5	2	2	1	0	1341	1	4	0	80	11	0	0	100
fixed	3	1	12	432984	4	3	3	1	0	839	1	4	0	88	12	0	0	100
fixed	3	2	1	434489	4	1	1	1	0	959	1	4	0	72	13	0	0	100
fixed	3	2	2	436306	1	2	2	1	0	955	1	4	0	80	14	0	0	100
fixed	3	2	3	437630	6	4	4	1	0	706	1	4	0	96	15	0	0	100
fixed	3	2	4	438983	2	1	1	2	0	1049	2	4	0	72	16	0	0	100
fixed	3	2	5	440327	5	3	3	1	0	1128	1	4	0	88	17	0	0	100
fixed	3	2	6	442171	6	4	4	1	0	627	1	4	0	96	18	0	0	100
fixed	3	2	7	443718	3	1	1	1	0	1161	1	4	0	72	19	0	0	100
fixed	3	2	8	445546	2	3	3	1	0	1020	1	4	0	88	20	0	0	100
fixed	3	2	9	447210	3	2	2	1	0	741	1	4	0	80	21	0	0	100
fixed	3	2	10	448513	1	4	4	1	0	518	1	4	0	96	22	0	0	100
fixed	3	2	11	449634	5	2	2	1	0	990	1	4	0	80	23	0	0	100
fixed	3	2	12	451596	4	3	3	1	0	867	1	4	0	88	24	0	0	100
fixed	3	3	1	453753	4	1	1	1	0	888	1	4	0	72	25	0	0	100
fixed	3	3	2	455264	1	2	2	1	0	1112	1	4	0	80	26	0	0	100
fixed	3	3	3	457357	6	4	4	1	0	687	1	4	0	96	27	0	0	100
fixed	3	3	4	458670	2	1	1	1	0	1048	1	4	0	72	28	0	0	100
fixed	3	3	5	460005	5	3	3	1	0	895	1	4	0	88	29	0	0	100
fixed	3	3	6	461577	6	4	4	1	0	756	1	4	0	96	30	0	0	100
fixed	3	3	7	462913	3	1	1	1	0	1028	1	4	0	72	31	0	0	100
fixed	3	3	8	464743	2	3	3	1	0	1071	1	4	0	88	32	0	0	100
fixed	3	3	9	466668	3	2	2	1	0	1141	1	4	0	80	33	0	0	100
fixed	3	3	10	468161	1	4	4	1	0	645	1	4	0	96	34	0	0	100
fixed	3	3	11	469808	5	2	2	1	0	1159	1	4	0	80	35	0	0	100
fixed	3	3	12	471482	4	3	3	1	0	1217	1	4	0	88	36	0	0	100
fixed	3	4	1	473919	4	1	1	1	0	953	1	4	0	72	37	0	0	100
fixed	3	4	2	475423	1	2	2	1	0	1450	1	4	0	80	38	0	0	100
fixed	3	4	3	477844	6	4	4	1	0	867	1	4	0	96	39	0	0	100
fixed	3	4	4	479482	2	1	1	2	0	1510	2	4	0	72	40	0	0	100
fixed	3	4	5	481322	5	3	3	1	0	888	1	4	0	88	41	0	0	100
fixed	3	4	6	482577	6	4	4	1	0	827	1	4	0	96	42	0	0	100
fixed	3	4	7	484193	3	1	1	1	0	1606	1	4	0	72	43	0	0	100
fixed	3	4	8	486334	2	3	3	1	0	1292	1	4	0	88	44	0	0	100
fixed	3	4	9	488575	3	2	2	1	0	829	1	4	0	80	45	0	0	100
fixed	3	4	10	489726	1	4	4	1	0	716	1	4	0	96	46	0	0	100
fixed	3	4	11	490769	5	2	2	1	0	976	1	4	0	80	47	0	0	100
fixed	3	4	12	492151	4	3	3	1	0	973	1	4	0	88	48	0	0	100
fixed	3	5	1	493718	4	1	1	1	0	939	1	4	0	72	49	0	0	100
fixed	3	5	2	495123	1	2	2	1	0	1175	1	4	0	80	50	0	0	100
fixed	3	5	3	496860	6	4	4	1	0	630	1	4	0	96	51	0	0	100
fixed	3	5	4	498133	2	1	1	1	0	976	1	4	0	72	52	0	0	100
fixed	3	5	5	499884	5	3	3	1	0	958	1	4	0	88	53	0	0	100
fixed	3	5	6	501816	6	4	4	1	0	684	1	4	0	96	54	0	0	100
fixed	3	5	7	502901	3	1	1	1	0	1038	1	4	0	72	55	0	0	100
fixed	3	5	8	504508	2	3	3	1	0	1122	1	4	0	88	56	0	0	100
fixed	3	5	9	505942	3	2	2	1	0	950	1	4	0	80	57	0	0	100
fixed	3	5	10	507815	1	4	4	1	0	382	1	4	0	96	58	0	0	100
fixed	3	5	11	508479	5	2	2	1	0	1346	1	4	0	80	59	0	0	100
fixed	3	5	12	510650	4	3	3	1	0	798	1	4	0	88	60	0	0	100
fixed	3	6	1	512631	4	1	1	1	0	1138	1	4	0	72	61	0	0	100
fixed	3	6	2	514191	1	2	2	1	0	1048	1	4	0	80	62	0	0	100
fixed	3	6	3	515946	6	4	4	1	0	710	1	4	0	96	63	0	0	100
fixed	3	6	4	517149	2	1	1	1	0	1035	1	4	0	72	64	0	0	100
fixed	3	6	5	519092	5	3	3	1	0	889	1	4	0	88	65	0	0	100
fixed	3	6	6	520920	6	4	4	1	0	723	1	4	0	96	66	0	0	100
fixed	3	6	7	522568	3	1	1	1	0	1253	1	4	0	72	67	0	0	100
fixed	3	6	8	524371	2	3	3	1	0	873	1	4	0	88	68	0	0	100
fixed	3	6	9	526153	3	2	2	1	0	861	1	4	0	80	69	0	0	100
fixed	3	6	10	527978	1	4	4	1	0	656	1	4	0	96	70	0	0	100
fixed	3	6	11	529431	5	2	2	1	0	995	1	4	0	80	71	0	0	100
fixed	3	6	12	531028	4	3	3	1	0	935	1	4	0	88	72	0	0	100
fixed	3	7	1	533148	4	1	1	1	0	837	1	4	0	72	73	0	0	100
fixed	3	7	2	534285	1	2	2	1	0	1085	1	4	0	80	74	0	0	100
fixed	3	7	3	536202	6	4	4	1	0	683	1	4	0	96	75	0	0	100
fixed	3	7	4	537435	2	1	1	1	0	1120	1	4	0	72	76	0	0	100
fixed	3	7	5	539102	5	3	3	1	0	929	1	4	0	88	77	0	0	100
fixed	3	7	6	540895	6	4	4	1	0	821	1	4	0	96	78	0	0	100
fixed	3	7	7	542293	3	1	1	1	0	970	1	4	0	72	79	0	0	100
fixed	3	7	8	544109	2	3	3	1	0	813	1	4	0	88	80	0	0	100
fixed	3	7	9	545502	3	2	2	1	0	778	1	4	0	80	81	0	0	100
fixed	3	7	10	546877	1	4	4	1	0	592	1	4	0	96	82	0	0	100
fixed	3	7	11	548244	5	2	2	2	0	1118	2	4	0	80	83	0	0	100
fixed	3	7	12	550276	4	3	3	1	0	968	1	4	0	88	84	0	0	100
fixed	3	8	1	552195	4	1	1	1	0	1230	1	4	0	72	85	0	0	100
fixed	3	8	2	554239	1	2	2	1	0	944	1	4	0	80	86	0	0	100
fixed	3	8	3	555652	6	4	4	1	0	620	1	4	0	96	87	0	0	100
fixed	3	8	4	557238	2	1	1	1	0	1336	1	4	0	72	88	0	0	100
fixed	3	8	5	559405	5	3	3	1	0	1021	1	4	0	88	89	0	0	100
fixed	3	8	6	561423	6	4	4	1	0	847	1	4	0	96	90	0	0	100
fixed	3	8	7	562587	3	1	1	1	0	1350	1	4	0	72	91	0	0	100
fixed	3	8	8	564792	2	3	3	1	0	1233	1	4	0	88	92	0	0	100
fixed	3	8	9	566594	3	2	2	1	0	852	1	4	0	80	93	0	0	100
fixed	3	8	10	568349	1	4	4	1	0	450	1	4	0	96	94	0	0	100
fixed	3	8	11	569275	5	2	2	1	0	963	1	4	0	80	95	0	0	100
fixed	3	8	12	571162	4	3	3	1	0	971	1	4	0	88	96	0	0	100
fixed	3	9	1	573012	4	1	1	1	0	892	1	4	0	72	97	0	0	100
fixed	3	9	2	574904	1	2	2	1	0	1172	1	4	0	80	98	0	0	100
fixed	3	9	3	576518	6	4	4	1	0	720	1	4	0	96	99	0	0	100
fixed	3	9	4	578119	2	1	1	1	0	1109	1	4	0	72	100	0	0	100
fixed	3	9	5	579703	5	3	3	1	0	1209	1	4	0	88	101	0	0	100
fixed	3	9	6	581700	6	4	4	1	0	716	1	4	0	96	102	0	0	100
fixed	3	9	7	582840	3	1	1	1	0	1036	1	4	0	72	103	0	0	100
fixed	3	9	8	584640	2	3	3	1	0	1112	1	4	0	88	104	0	0	100
fixed	3	9	9	586539	3	2	2	1	0	1120	1	4	0	80	105	0	0	100
fixed	3	9	10	588136	1	4	4	1	0	532	1	4	0	96	106	0	0	100
fixed	3	9	11	589143	5	2	2	1	0	1090	1	4	0	80	107	0	0	100
fixed	3	9	12	590890	4	3	3	1	0	983	1	4	0	88	108	0	0	100
fixed	3	10	1	593145	4	1	1	1	0	968	1	4	0	72	109	0	0	100
fixed	3	10	2	595047	1	2	2	1	0	1287	1	4	0	80	110	0	0	100
fixed	3	10	3	597323	6	4	4	1	0	647	1	4	0	96	111	0	0	100
fixed	3	10	4	598462	2	1	1	1	0	1327	1	4	0	72	112	0	0	100
fixed	3	10	5	600186	5	3	3	1	0	1086	1	4	0	88	113	0	0	100
fixed	3	10	6	602144	6	4	4	1	0	715	1	4	0	96	114	0	0	100
fixed	3	10	7	603241	3	1	1	1	0	1252	1	4	0	72	115	0	0	100
fixed	3	10	8	604967	2	3	3	1	0	1243	1	4	0	88	116	0	0	100
fixed	3	10	9	606706	3	2	2	1	0	690	1	4	0	80	117	0	0	100
fixed	3	10	10	607879	1	4	4	1	0	648	1	4	0	96	118	0	0	100
fixed	3	10	11	609109	5	2	2	1	0	964	1	4	0	80	119	0	0	100
fixed	3	10	12	610649	4	3	3	1	0	915	1	4	0	88	120	0	0	100
fixed	4	1	1	796642	4	1	1	1	0	1477	1	4	0	104	1	0	0	100
fixed	4	1	2	798831	1	2	2	1	0	888	1	4	0	112	2	0	0	100
fixed	4	1	3	800762	6	4	4	1	0	606	1	4	0	128	3	0	0	100
fixed	4	1	4	802057	2	1	1	1	0	1135	1	4	0	104	4	0	0	100
fixed	4	1	5	804159	5	3	3	1	0	943	1	4	0	120	5	0	0	100
fixed	4	1	6	806047	6	4	4	1	0	615	1	4	0	128	6	0	0	100
fixed	4	1	7	807444	3	1	1	1	0	987	1	4	0	104	7	0	0	100
fixed	4	1	8	809048	2	3	3	1	0	1031	1	4	0	120	8	0	0	100
fixed	4	1	9	811024	3	2	2	2	0	1580	2	4	0	112	9	0	0	100
fixed	4	1	10	813371	1	4	4	1	0	520	1	4	0	128	10	0	0	100
fixed	4	1	11	814498	5	2	2	1	0	1033	1	4	0	112	11	0	0	100
fixed	4	1	12	816186	4	3	3	1	0	1009	1	4	0	120	12	0	0	100
fixed	4	2	1	818047	4	1	1	1	0	978	1	4	0	104	13	0	0	100
fixed	4	2	2	820040	1	2	2	1	0	1118	1	4	0	112	14	0	0	100
fixed	4	2	3	821762	6	4	4	1	0	629	1	4	0	128	15	0	0	100
fixed	4	2	4	822859	2	1	1	2	0	1310	2	4	0	104	16	0	0	100
fixed	4	2	5	824884	5	3	3	1	0	1009	1	4	0	120	17	0	0	100
fixed	4	2	6	826470	6	4	4	1	0	653	1	4	0	128	18	0	0	100
fixed	4	2	7	828161	3	1	1	1	0	1118	1	4	0	104	19	0	0	100
fixed	4	2	8	830265	2	3	3	1	0	933	1	4	0	120	20	0	0	100
fixed	4	2	9	831816	3	2	2	2	0	1379	2	4	0	112	21	0	0	100
fixed	4	2	10	834037	1	4	4	1	0	549	1	4	0	128	22	0	0	100
fixed	4	2	11	835375	5	2	2	1	0	1196	1	4	0	112	23	0	0	100
fixed	4	2	12	837003	4	3	3	1	0	752	1	4	0	120	24	0	0	100
fixed	4	3	1	838831	4	1	1	1	0	930	1	4	0	104	25	0	0	100
fixed	4	3	2	840393	1	2	2	1	0	1080	1	4	0	112	26	0	0	100
fixed	4	3	3	842009	6	4	4	1	0	731	1	4	0	128	27	0	0	100
fixed	4	3	4	843634	2	1	1	1	0	1231	1	4	0	104	28	0	0	100
fixed	4	3	5	845451	5	3	3	1	0	1545	1	4	0	120	29	0	0	100
fixed	4	3	6	847783	6	4	4	1	0	814	1	4	0	128	30	0	0	100
fixed	4	3	7	849200	3	1	1	1	0	1459	1	4	0	104	31	0	0	100
fixed	4	3	8	851575	2	3	3	1	0	1127	1	4	0	120	32	0	0	100
fixed	4	3	9	853565	3	2	2	1	0	874	1	4	0	112	33	0	0	100
fixed	4	3	10	855252	1	4	4	1	0	562	1	4	0	128	34	0	0	100
fixed	4	3	11	856382	5	2	2	1	0	1147	1	4	0	112	35	0	0	100
fixed	4	3	12	857993	4	3	3	1	0	934	1	4	0	120	36	0	0	100
fixed	4	4	1	860217	4	1	1	1	0	816	1	4	0	104	37	0	0	100
fixed	4	4	2	861873	1	2	2	1	0	1042	1	4	0	112	38	0	0	100
fixed	4	4	3	863847	6	4	4	1	0	718	1	4	0	128	39	0	0	100
fixed	4	4	4	864934	2	1	1	1	0	1216	1	4	0	104	40	0	0	100
fixed	4	4	5	866549	5	3	3	1	0	908	1	4	0	120	41	0	0	100
fixed	4	4	6	868264	6	4	4	1	0	676	1	4	0	128	42	0	0	100
fixed	4	4	7	869878	3	1	1	1	0	975	1	4	0	104	43	0	0	100
fixed	4	4	8	871481	2	3	3	1	0	1043	1	4	0	120	44	0	0	100
fixed	4	4	9	873211	3	2	2	1	0	1154	1	4	0	112	45	0	0	100
fixed	4	4	10	874669	1	4	4	1	0	692	1	4	0	128	46	0	0	100
fixed	4	4	11	876207	5	2	2	1	0	963	1	4	0	112	47	0	0	100
fixed	4	4	12	878187	4	3	3	1	0	1071	1	4	0	120	48	0	0	100
fixed	4	5	1	879999	4	1	1	1	0	970	1	4	0	104	49	0	0	100
fixed	4	5	2	881467	1	2	2	1	0	1212	1	4	0	112	50	0	0	100
fixed	4	5	3	883013	6	4	4	1	0	675	1	4	0	128	51	0	0	100
fixed	4	5	4	884534	2	1	1	1	0	1074	1	4	0	104	52	0	0	100
fixed	4	5	5	886274	5	3	3	1	0	825	1	4	0	120	53	0	0	100
fixed	4	5	6	888082	6	4	4	1	0	676	1	4	0	128	54	0	0	100
fixed	4	5	7	889379	3	1	1	1	0	1485	1	4	0	104	55	0	0	100
fixed	4	5	8	891615	2	3	3	1	0	1022	1	4	0	120	56	0	0	100
fixed	4	5	9	893475	3	2	2	1	0	1224	1	4	0	112	57	0	0	100
fixed	4	5	10	895413	1	4	4	1	0	566	1	4	0	128	58	0	0	100
fixed	4	5	11	896843	5	2	2	1	0	1105	1	4	0	112	59	0	0	100
fixed	4	5	12	898795	4	3	3	1	0	734	1	4	0	120	60	0	0	100
fixed	4	6	1	900349	4	1	1	1	0	828	1	4	0	104	61	0	0	100
fixed	4	6	2	902065	1	2	2	1	0	1068	1	4	0	112	62	0	0	100
fixed	4	6	3	903582	6	4	4	1	0	836	1	4	0	128	63	0	0	100
fixed	4	6	4	904953	2	1	1	1	0	1026	1	4	0	104	64	0	0	100
fixed	4	6	5	906775	5	3	3	1	0	804	1	4	0	120	65	0	0	100
fixed	4	6	6	908133	6	4	4	1	0	730	1	4	0	128	66	0	0	100
fixed	4	6	7	909345	3	1	1	1	0	999	1	4	0	104	67	0	0	100
fixed	4	6	8	910935	2	3	3	1	0	908	1	4	0	120	68	0	0	100
fixed	4	6	9	912390	3	2	2	1	0	903	1	4	0	112	69	0	0	100
fixed	4	6	10	913857	1	4	4	1	0	712	1	4	0	128	70	0	0	100
fixed	4	6	11	914949	5	2	2	1	0	986	1	4	0	112	71	0	0	100
fixed	4	6	12	916570	4	3	3	1	0	749	1	4	0	120	72	0	0	100
fixed	4	7	1	918125	4	1	1	1	0	803	1	4	0	104	73	0	0	100
fixed	4	7	2	919436	1	2	2	1	0	1020	1	4	0	112	74	0	0	100
fixed	4	7	3	920819	6	4	4	1	0	665	1	4	0	128	75	0	0	100
fixed	4	7	4	922248	2	1	1	1	0	1141	1	4	0	104	76	0	0	100
fixed	4	7	5	924368	5	3	3	1	0	739	1	4	0	120	77	0	0	100
fixed	4	7	6	925959	6	4	4	1	0	687	1	4	0	128	78	0	0	100
fixed	4	7	7	927255	3	1	1	1	0	1025	1	4	0	104	79	0	0	100
fixed	4	7	8	928915	2	3	3	2	0	1435	2	4	0	120	80	0	0	100
fixed	4	7	9	930632	3	2	2	1	0	986	1	4	0	112	81	0	0	100
fixed	4	7	10	932247	1	4	4	1	0	581	1	4	0	128	82	0	0	100
fixed	4	7	11	933216	5	2	2	1	0	996	1	4	0	112	83	0	0	100
fixed	4	7	12	934989	4	3	3	1	0	873	1	4	0	120	84	0	0	100
fixed	4	8	1	936487	4	1	1	1	0	874	1	4	0	104	85	0	0	100
fixed	4	8	2	938204	1	2	2	1	0	1009	1	4	0	112	86	0	0	100
fixed	4	8	3	939577	6	4	4	1	0	735	1	4	0	128	87	0	0	100
fixed	4	8	4	941000	2	1	1	1	0	954	1	4	0	104	88	0	0	100
fixed	4	8	5	942430	5	3	3	1	0	830	1	4	0	120	89	0	0	100
fixed	4	8	6	943617	6	4	4	1	0	788	1	4	0	128	90	0	0	100
fixed	4	8	7	945298	3	1	1	1	0	949	1	4	0	104	91	0	0	100
fixed	4	8	8	946998	2	3	3	1	0	1156	1	4	0	120	92	0	0	100
fixed	4	8	9	948744	3	2	2	2	0	1115	2	4	0	112	93	0	0	100
fixed	4	8	10	950504	1	4	4	1	0	528	1	4	0	128	94	0	0	100
fixed	4	8	11	951436	5	2	2	1	0	1097	1	4	0	112	95	0	0	100
fixed	4	8	12	953282	4	3	3	1	0	922	1	4	0	120	96	0	0	100
fixed	4	9	1	954849	4	1	1	1	0	912	1	4	0	104	97	0	0	100
fixed	4	9	2	956508	1	2	2	1	0	1210	1	4	0	112	98	0	0	100
fixed	4	9	3	958716	6	4	4	1	0	796	1	4	0	128	99	0	0	100
fixed	4	9	4	959928	2	1	1	1	0	985	1	4	0	104	100	0	0	100
fixed	4	9	5	961728	5	3	3	1	0	917	1	4	0	120	101	0	0	100
fixed	4	9	6	963318	6	4	4	1	0	745	1	4	0	128	102	0	0	100
fixed	4	9	7	965091	3	1	1	1	0	1014	1	4	0	104	103	0	0	100
fixed	4	9	8	966432	2	3	3	1	0	885	1	4	0	120	104	0	0	100
fixed	4	9	9	967824	3	2	2	1	0	1011	1	4	0	112	105	0	0	100
fixed	4	9	10	969704	1	4	4	1	0	507	1	4	0	128	106	0	0	100
fixed	4	9	11	970960	5	2	2	1	0	950	1	4	0	112	107	0	0	100
fixed	4	9	12	972235	4	3	3	1	0	808	1	4	0	120	108	0	0	100
fixed	4	10	1	973595	4	1	1	1	0	886	1	4	0	104	109	0	0	100
fixed	4	10	2	975135	1	2	2	1	0	989	1	4	0	112	110	0	0	100
fixed	4	10	3	976866	6	4	4	1	0	659	1	4	0	128	111	0	0	100
fixed	4	10	4	977846	2	1	1	1	0	1090	1	4	0	104	112	0	0	100
fixed	4	10	5	979476	5	3	3	1	0	885	1	4	0	120	113	0	0	100
fixed	4	10	6	981001	6	4	4	1	0	756	1	4	0	128	114	0	0	100
fixed	4	10	7	982075	3	1	1	1	0	1143	1	4	0	104	115	0	0	100
fixed	4	10	8	983556	2	3	3	1	0	1080	1	4	0	120	116	0	0	100
fixed	4	10	9	985021	3	2	2	1	0	698	1	4	0	112	117	0	0	100
fixed	4	10	10	986678	1	4	4	1	0	748	1	4	0	128	118	0	0	100
fixed	4	10	11	988105	5	2	2	1	0	1272	1	4	0	112	119	0	0	100
fixed	4	10	12	989747	4	3	3	1	0	1026	1	4	0	120	120	0	0	100
fixed	5	1	1	991737	4	1	1	1	0	685	1	4	0	136	1	0	0	100
fixed	5	1	2	992864	1	2	2	1	0	1270	1	4	0	144	2	0	0	100
fixed	5	1	3	994714	6	4	4	1	0	647	1	4	0	160	3	0	0	100
fixed	5	1	4	995849	2	1	1	1	0	1143	1	4	0	136	4	0	0	100
fixed	5	1	5	997681	5	3	3	1	0	850	1	4	0	152	5	0	0	100
fixed	5	1	6	999321	6	4	4	1	0	725	1	4	0	160	6	0	0	100
fixed	5	1	7	1000814	3	1	1	1	0	1069	1	4	0	136	7	0	0	100
fixed	5	1	8	1002599	2	3	3	1	0	1073	1	4	0	152	8	0	0	100
fixed	5	1	9	1004160	3	2	2	1	0	792	1	4	0	144	9	0	0	100
fixed	5	1	10	1005391	1	4	4	1	0	707	1	4	0	160	10	0	0	100
fixed	5	1	11	1006591	5	2	2	1	0	1704	1	4	0	144	11	0	0	100
fixed	5	1	12	1009321	4	3	3	1	0	1013	1	4	0	152	12	0	0	100
fixed	5	2	1	1011438	4	1	1	1	0	859	1	4	0	136	13	0	0	100
fixed	5	2	2	1012818	1	2	2	1	0	1097	1	4	0	144	14	0	0	100
fixed	5	2	3	1014699	6	4	4	1	0	777	1	4	0	160	15	0	0	100
fixed	5	2	4	1016474	2	1	1	1	0	1174	1	4	0	136	16	0	0	100
fixed	5	2	5	1018056	5	3	3	1	0	763	1	4	0	152	17	0	0	100
fixed	5	2	6	1019703	6	4	4	1	0	1101	1	4	0	160	18	0	0	100
fixed	5	2	7	1021765	3	1	1	1	0	982	1	4	0	136	19	0	0	100
fixed	5	2	8	1023405	2	3	3	1	0	1048	1	4	0	152	20	0	0	100
fixed	5	2	9	1025257	3	2	2	1	0	1114	1	4	0	144	21	0	0	100
fixed	5	2	10	1027319	1	4	4	1	0	603	1	4	0	160	22	0	0	100
fixed	5	2	11	1028840	5	2	2	1	0	1210	1	4	0	144	23	0	0	100
fixed	5	2	12	1031062	4	3	3	1	0	948	1	4	0	152	24	0	0	100
fixed	5	3	1	1032606	4	1	1	1	0	938	1	4	0	136	25	0	0	100
fixed	5	3	2	1034539	1	2	2	1	0	1353	1	4	0	144	26	0	0	100
fixed	5	3	3	1036897	6	4	4	1	0	661	1	4	0	160	27	0	0	100
fixed	5	3	4	1038453	2	1	1	1	0	1051	1	4	0	136	28	0	0	100
fixed	5	3	5	1039880	5	3	3	1	0	1175	1	4	0	152	29	0	0	100
fixed	5	3	6	1042009	6	4	4	1	0	813	1	4	0	160	30	0	0	100
fixed	5	3	7	1043507	3	1	1	1	0	1077	1	4	0	136	31	0	0	100
fixed	5	3	8	1045078	2	3	3	1	0	1171	1	4	0	152	32	0	0	100
fixed	5	3	9	1046772	3	2	2	1	0	706	1	4	0	144	33	0	0	100
fixed	5	3	10	1048392	1	4	4	1	0	550	1	4	0	160	34	0	0	100
fixed	5	3	11	1049745	5	2	2	1	0	1181	1	4	0	144	35	0	0	100
fixed	5	3	12	1051461	4	3	3	1	0	852	1	4	0	152	36	0	0	100
fixed	5	4	1	1053507	4	1	1	1	0	845	1	4	0	136	37	0	0	100
fixed	5	4	2	1055273	1	2	2	1	0	1027	1	4	0	144	38	0	0	100
fixed	5	4	3	1057190	6	4	4	1	0	761	1	4	0	160	39	0	0	100
fixed	5	4	4	1058750	2	1	1	1	0	1144	1	4	0	136	40	0	0	100
fixed	5	4	5	1060915	5	3	3	1	0	876	1	4	0	152	41	0	0	100
fixed	5	4	6	1062261	6	4	4	1	0	866	1	4	0	160	42	0	0	100
fixed	5	4	7	1063448	3	1	1	1	0	1368	1	4	0	136	43	0	0	100
fixed	5	4	8	1065504	2	3	3	1	0	1129	1	4	0	152	44	0	0	100
fixed	5	4	9	1067484	3	2	2	1	0	918	1	4	0	144	45	0	0	100
fixed	5	4	10	1068999	1	4	4	1	0	653	1	4	0	160	46	0	0	100
fixed	5	4	11	1070394	5	2	2	1	0	898	1	4	0	144	47	0	0	100
fixed	5	4	12	1071604	4	3	3	1	0	799	1	4	0	152	48	0	0	100
fixed	5	5	1	1073072	4	1	1	1	0	832	1	4	0	136	49	0	0	100
fixed	5	5	2	1074670	1	2	2	1	0	1173	1	4	0	144	50	0	0	100
fixed	5	5	3	1076180	6	4	4	1	0	709	1	4	0	160	51	0	0	100
fixed	5	5	4	1077845	2	1	1	1	0	951	1	4	0	136	52	0	0	100
fixed	5	5	5	1079131	5	3	3	1	0	1032	1	4	0	152	53	0	0	100
fixed	5	5	6	1080562	6	4	4	1	0	859	1	4	0	160	54	0	0	100
fixed	5	5	7	1081904	3	1	1	1	0	1331	1	4	0	136	55	0	0	100
fixed	5	5	8	1083818	2	3	3	1	0	1225	1	4	0	152	56	0	0	100
fixed	5	5	9	1085556	3	2	2	1	0	864	1	4	0	144	57	0	0	100
fixed	5	5	10	1087196	1	4	4	1	0	595	1	4	0	160	58	0	0	100
fixed	5	5	11	1088686	5	2	2	1	0	1284	1	4	0	144	59	0	0	100
fixed	5	5	12	1090640	4	3	3	1	0	889	1	4	0	152	60	0	0	100
fixed	5	6	1	1092152	4	1	1	1	0	1248	1	4	0	136	61	0	0	100
fixed	5	6	2	1094127	1	2	2	1	0	1141	1	4	0	144	62	0	0	100
fixed	5	6	3	1095994	6	4	4	1	0	806	1	4	0	160	63	0	0	100
fixed	5	6	4	1097447	2	1	1	1	0	1216	1	4	0	136	64	0	0	100
fixed	5	6	5	1099465	5	3	3	1	0	1155	1	4	0	152	65	0	0	100
fixed	5	6	6	1101198	6	4	4	1	0	810	1	4	0	160	66	0	0	100
fixed	5	6	7	1102393	3	1	1	1	0	1367	1	4	0	136	67	0	0	100
fixed	5	6	8	1104412	2	3	3	1	0	1442	1	4	0	152	68	0	0	100
fixed	5	6	9	1106474	3	2	2	1	0	754	1	4	0	144	69	0	0	100
fixed	5	6	10	1107964	1	4	4	1	0	595	1	4	0	160	70	0	0	100
fixed	5	6	11	1109249	5	2	2	1	0	1293	1	4	0	144	71	0	0	100
fixed	5	6	12	1110951	4	3	3	1	0	908	1	4	0	152	72	0	0	100
fixed	5	7	1	1112536	4	1	1	1	0	961	1	4	0	136	73	0	0	100
fixed	5	7	2	1113996	1	2	2	1	0	1003	1	4	0	144	74	0	0	100
fixed	5	7	3	1115957	6	4	4	1	0	649	1	4	0	160	75	0	0	100
fixed	5	7	4	1117050	2	1	1	1	0	1146	1	4	0	136	76	0	0	100
fixed	5	7	5	1118671	5	3	3	1	0	781	1	4	0	152	77	0	0	100
fixed	5	7	6	1119740	6	4	4	1	0	776	1	4	0	160	78	0	0	100
fixed	5	7	7	1121520	3	1	1	1	0	981	1	4	0	136	79	0	0	100
fixed	5	7	8	1122989	2	3	3	1	0	1207	1	4	0	152	80	0	0	100
fixed	5	7	9	1124617	3	2	2	1	0	737	1	4	0	144	81	0	0	100
fixed	5	7	10	1126347	1	4	4	1	0	689	1	4	0	160	82	0	0	100
fixed	5	7	11	1128009	5	2	2	1	0	914	1	4	0	144	83	0	0	100
fixed	5	7	12	1129384	4	3	3	1	0	744	1	4	0	152	84	0	0	100
fixed	5	8	1	1130914	4	1	1	1	0	679	1	4	0	136	85	0	0	100
fixed	5	8	2	1132420	1	2	2	1	0	1023	1	4	0	144	86	0	0	100
fixed	5	8	3	1133748	6	4	4	1	0	719	1	4	0	160	87	0	0	100
fixed	5	8	4	1134950	2	1	1	1	0	1036	1	4	0	136	88	0	0	100
fixed	5	8	5	1136393	5	3	3	1	0	887	1	4	0	152	89	0	0	100
fixed	5	8	6	1137663	6	4	4	1	0	705	1	4	0	160	90	0	0	100
fixed	5	8	7	1139368	3	1	1	1	0	961	1	4	0	136	91	0	0	100
fixed	5	8	8	1141051	2	3	3	1	0	858	1	4	0	152	92	0	0	100
fixed	5	8	9	1142408	3	2	2	1	0	1088	1	4	0	144	93	0	0	100
fixed	5	8	10	1144463	1	4	4	1	0	625	1	4	0	160	94	0	0	100
fixed	5	8	11	1145659	5	2	2	1	0	870	1	4	0	144	95	0	0	100
fixed	5	8	12	1147409	4	3	3	1	0	852	1	4	0	152	96	0	0	100
fixed	5	9	1	1149460	4	1	1	1	0	925	1	4	0	136	97	0	0	100
fixed	5	9	2	1150792	1	2	2	1	0	1245	1	4	0	144	98	0	0	100
fixed	5	9	3	1152597	6	4	4	1	0	641	1	4	0	160	99	0	0	100
fixed	5	9	4	1154200	2	1	1	1	0	957	1	4	0	136	100	0	0	100
fixed	5	9	5	1156020	5	3	3	1	0	864	1	4	0	152	101	0	0	100
fixed	5	9	6	1157173	6	4	4	1	0	775	1	4	0	160	102	0	0	100
fixed	5	9	7	1158577	3	1	1	1	0	971	1	4	0	136	103	0	0	100
fixed	5	9	8	1159888	2	3	3	1	0	1124	1	4	0	152	104	0	0	100
fixed	5	9	9	1161392	3	2	2	1	0	668	1	4	0	144	105	0	0	100
fixed	5	9	10	1162503	1	4	4	1	0	637	1	4	0	160	106	0	0	100
fixed	5	9	11	1163492	5	2	2	1	0	891	1	4	0	144	107	0	0	100
fixed	5	9	12	1164870	4	3	3	1	0	745	1	4	0	152	108	0	0	100
fixed	5	10	1	1166368	4	1	1	1	0	801	1	4	0	136	109	0	0	100
fixed	5	10	2	1168096	1	2	2	1	0	992	1	4	0	144	110	0	0	100
fixed	5	10	3	1169746	6	4	4	1	0	690	1	4	0	160	111	0	0	100
fixed	5	10	4	1171364	2	1	1	1	0	1021	1	4	0	136	112	0	0	100
fixed	5	10	5	1172957	5	3	3	2	0	1034	2	4	0	152	113	0	0	100
fixed	5	10	6	1174574	6	4	4	1	0	726	1	4	0	160	114	0	0	100
fixed	5	10	7	1176247	3	1	1	1	0	1095	1	4	0	136	115	0	0	100
fixed	5	10	8	1177700	2	3	3	1	0	1369	1	4	0	152	116	0	0	100
fixed	5	10	9	1179907	3	2	2	1	0	860	1	4	0	144	117	0	0	100
fixed	5	10	10	1181274	1	4	4	1	0	522	1	4	0	160	118	0	0	100
fixed	5	10	11	1182806	5	2	2	1	0	1185	1	4	0	144	119	0	0	100
fixed	5	10	12	1184750	4	3	3	1	0	927	1	4	0	152	120	0	0	100
random	6	1	1	1377333	6	1	1	1	0	1338	1	4	0	168	1	0	0	100
random	6	1	2	1379324	4	4	4	1	0	773	1	4	0	192	2	0	0	100
random	6	1	3	1381047	2	2	2	1	0	916	1	4	0	176	3	0	0	100
random	6	1	4	1382720	3	3	3	1	0	798	1	4	0	184	4	0	0	100
random	6	1	5	1384225	5	2	2	1	0	822	1	4	0	176	5	0	0	100
random	6	1	6	1385602	1	4	4	1	0	684	1	4	0	192	6	0	0	100
random	6	1	7	1386939	6	1	1	1	0	811	1	4	0	168	7	0	0	100
random	6	1	8	1388537	2	3	3	1	0	983	1	4	0	184	8	0	0	100
random	6	1	9	1389983	4	2	2	2	0	1186	2	4	0	176	9	0	0	100
random	6	1	10	1391489	1	1	1	1	0	1346	1	4	0	168	10	0	0	100
random	6	1	11	1393241	5	4	4	1	0	1264	1	4	0	192	11	0	0	100
random	6	1	12	1395207	3	3	3	1	0	997	1	4	0	184	12	0	0	100
random	6	1	13	1397033	5	2	2	1	0	1007	1	4	0	176	13	0	0	100
random	6	1	14	1398557	1	4	4	1	0	799	1	4	0	192	14	0	0	100
random	6	1	15	1399806	3	1	1	1	0	1090	1	4	0	168	15	0	0	100
random	6	1	16	1401570	4	3	3	1	0	991	1	4	0	184	16	0	0	100
random	6	1	17	1403465	6	4	4	1	0	631	1	4	0	192	17	0	0	100
random	6	1	18	1405080	2	1	1	1	0	1003	1	4	0	168	18	0	0	100
random	6	1	19	1406731	5	3	3	1	0	829	1	4	0	184	19	0	0	100
random	6	1	20	1408506	2	2	2	2	0	1226	2	4	0	176	20	0	0	100
random	6	1	21	1410357	3	3	3	1	0	1339	1	4	0	184	21	0	0	100
random	6	1	22	1412535	6	1	1	1	0	991	1	4	0	168	22	0	0	100
random	6	1	23	1414147	4	2	2	1	0	1091	1	4	0	176	23	0	0	100
random	6	1	24	1415604	1	4	4	1	0	845	1	4	0	192	24	0	0	100
random	6	1	25	1417517	4	3	3	2	0	1804	2	4	0	184	25	0	0	100
random	6	1	26	1419903	2	1	1	1	0	1015	1	4	0	168	26	0	0	100
random	6	1	27	1421416	5	2	2	1	0	959	1	4	0	176	27	0	0	100
random	6	1	28	1423234	6	4	4	1	0	602	1	4	0	192	28	0	0	100
random	6	1	29	1424265	1	3	3	1	0	1070	1	4	0	184	29	0	0	100
random	6	1	30	1426045	5	2	2	1	0	971	1	4	0	176	30	0	0	100
random	6	1	31	1427582	2	1	1	1	0	1090	1	4	0	168	31	0	0	100
random	6	1	32	1429158	3	3	3	1	0	951	1	4	0	184	32	0	0	100
random	6	1	33	1430383	6	4	4	1	0	779	1	4	0	192	33	0	0	100
random	6	1	34	1431609	4	2	2	1	0	975	1	4	0	176	34	0	0	100
random	6	1	35	1432888	3	4	4	1	0	945	1	4	0	192	35	0	0	100
random	6	1	36	1434818	1	1	1	1	0	935	1	4	0	168	36	0	0	100
random	6	1	37	1436747	3	4	4	1	0	901	1	4	0	192	37	0	0	100
random	6	1	38	1438492	5	3	3	1	0	1068	1	4	0	184	38	0	0	100
random	6	1	39	1440097	6	1	1	1	0	1304	1	4	0	168	39	0	0	100
random	6	1	40	1441780	1	2	2	1	0	1088	1	4	0	176	40	0	0	100
random	6	1	41	1443868	2	3	3	1	0	1152	1	4	0	184	41	0	0	100
random	6	1	42	1445618	4	4	4	1	0	565	1	4	0	192	42	0	0	100
random	6	1	43	1446582	1	2	2	1	0	1117	1	4	0	176	43	0	0	100
random	6	1	44	1448621	6	3	3	1	0	991	1	4	0	184	44	0	0	100
random	6	1	45	1450312	3	1	1	1	0	1023	1	4	0	168	45	0	0	100
random	6	1	46	1452110	4	4	4	1	0	731	1	4	0	192	46	0	0	100
random	6	1	47	1453302	2	2	2	1	0	1128	1	4	0	176	47	0	0	100
random	6	1	48	1455090	5	1	1	1	0	1116	1	4	0	168	48	0	0	100
random	6	1	49	1456897	2	3	3	1	0	1096	1	4	0	184	49	0	0	100
random	6	1	50	1458337	3	1	1	1	0	1099	1	4	0	168	50	0	0	100
random	6	1	51	1459817	1	4	4	1	0	693	1	4	0	192	51	0	0	100
random	6	1	52	1461036	5	3	3	2	0	1305	2	4	0	184	52	0	0	100
random	6	1	53	1462705	3	2	2	1	0	1394	1	4	0	176	53	0	0	100
random	6	1	54	1464455	6	4	4	1	0	872	1	4	0	192	54	0	0	100
random	6	1	55	1465717	4	2	2	1	0	898	1	4	0	176	55	0	0	100
random	6	1	56	1467266	1	1	1	1	0	945	1	4	0	168	56	0	0	100
random	6	1	57	1468755	5	4	4	1	0	674	1	4	0	192	57	0	0	100
random	6	1	58	1469879	2	1	1	1	0	842	1	4	0	168	58	0	0	100
random	6	1	59	1471434	6	2	2	1	0	976	1	4	0	176	59	0	0	100
random	6	1	60	1473205	4	3	3	1	0	757	1	4	0	184	60	0	0	100
random	6	1	61	1475075	1	2	2	1	0	1126	1	4	0	176	61	0	0	100
random	6	1	62	1476712	6	4	4	1	0	729	1	4	0	192	62	0	0	100
random	6	1	63	1477904	4	1	1	1	0	934	1	4	0	168	63	0	0	100
random	6	1	64	1479556	2	2	2	1	0	960	1	4	0	176	64	0	0	100
random	6	1	65	1480878	4	3	3	1	0	832	1	4	0	184	65	0	0	100
random	6	1	66	1482620	3	1	1	1	0	935	1	4	0	168	66	0	0	100
random	6	1	67	1484363	1	3	3	1	0	964	1	4	0	184	67	0	0	100
random	6	1	68	1485981	5	4	4	1	0	648	1	4	0	192	68	0	0	100
random	6	1	69	1487217	2	2	2	1	0	964	1	4	0	176	69	0	0	100
random	6	1	70	1489165	3	1	1	1	0	1049	1	4	0	168	70	0	0	100
random	6	1	71	1490534	5	4	4	1	0	807	1	4	0	192	71	0	0	100
random	6	1	72	1492085	6	3	3	1	0	1061	1	4	0	184	72	0	0	100
random	6	1	73	1494055	2	1	1	1	0	1018	1	4	0	168	73	0	0	100
random	6	1	74	1496082	5	3	3	1	0	860	1	4	0	184	74	0	0	100
random	6	1	75	1497708	1	4	4	1	0	776	1	4	0	192	75	0	0	100
random	6	1	76	1499357	6	2	2	1	0	978	1	4	0	176	76	0	0	100
random	6	1	77	1501281	2	1	1	1	0	904	1	4	0	168	77	0	0	100
random	6	1	78	1503174	4	4	4	1	0	744	1	4	0	192	78	0	0	100
random	6	1	79	1504604	3	2	2	1	0	1171	1	4	0	176	79	0	0	100
random	6	1	80	1506569	4	3	3	1	0	792	1	4	0	184	80	0	0	100
random	6	1	81	1507704	1	4	4	1	0	728	1	4	0	192	81	0	0	100
random	6	1	82	1509214	5	1	1	1	0	1120	1	4	0	168	82	0	0	100
random	6	1	83	1511187	3	2	2	1	0	893	1	4	0	176	83	0	0	100
random	6	1	84	1513011	6	3	3	1	0	783	1	4	0	184	84	0	0	100
random	6	1	85	1515073	3	2	2	1	0	1200	1	4	0	176	85	0	0	100
random	6	1	86	1516842	1	3	3	1	0	1205	1	4	0	184	86	0	0	100
random	6	1	87	1518556	4	4	4	1	0	725	1	4	0	192	87	0	0	100
random	6	1	88	1519972	2	1	1	1	0	1120	1	4	0	168	88	0	0	100
random	6	1	89	1521516	6	4	4	1	0	807	1	4	0	192	89	0	0	100
random	6	1	90	1523151	3	3	3	1	0	1066	1	4	0	184	90	0	0	100
random	6	1	91	1524689	5	4	4	1	0	713	1	4	0	192	91	0	0	100
random	6	1	92	1525798	1	2	2	1	0	817	1	4	0	176	92	0	0	100
random	6	1	93	1527043	5	1	1	1	0	1021	1	4	0	168	93	0	0	100
random	6	1	94	1528412	4	3	3	1	0	827	1	4	0	184	94	0	0	100
random	6	1	95	1529568	6	1	1	1	0	874	1	4	0	168	95	0	0	100
random	6	1	96	1531413	2	2	2	1	0	892	1	4	0	176	96	0	0	100
random	6	1	97	1533117	4	3	3	1	0	1379	1	4	0	184	97	0	0	100
random	6	1	98	1535471	3	2	2	1	0	1056	1	4	0	176	98	0	0	100
random	6	1	99	1537170	6	3	3	1	0	896	1	4	0	184	99	0	0	100
random	6	1	100	1538589	1	4	4	1	0	628	1	4	0	192	100	0	0	100
random	6	1	101	1539616	4	1	1	1	0	904	1	4	0	168	101	0	0	100
random	6	1	102	1541405	5	2	2	1	0	1068	1	4	0	176	102	0	0	100
random	6	1	103	1543328	2	4	4	1	0	659	1	4	0	192	103	0	0	100
random	6	1	104	1544866	3	1	1	1	0	1066	1	4	0	168	104	0	0	100
random	6	1	105	1546240	1	3	3	1	0	840	1	4	0	184	105	0	0	100
random	6	1	106	1547459	2	2	2	1	0	908	1	4	0	176	106	0	0	100
random	6	1	107	1548852	5	4	4	1	0	690	1	4	0	192	107	0	0	100
random	6	1	108	1549826	6	1	1	1	0	968	1	4	0	168	108	0	0	100
random	6	1	109	1551496	5	4	4	1	0	825	1	4	0	192	109	0	0	100
random	6	1	110	1553239	6	3	3	1	0	943	1	4	0	184	110	0	0	100
random	6	1	111	1554967	2	2	2	1	0	1151	1	4	0	176	111	0	0	100
random	6	1	112	1556530	3	1	1	1	0	1100	1	4	0	168	112	0	0	100
random	6	1	113	1558241	1	2	2	1	0	1012	1	4	0	176	113	0	0	100
random	6	1	114	1559865	2	3	3	1	0	1255	1	4	0	184	114	0	0	100
random	6	1	115	1561431	3	1	1	1	0	989	1	4	0	168	115	0	0	100
random	6	1	116	1563141	4	4	4	1	0	660	1	4	0	192	116	0	0	100
random	6	1	117	1564641	6	1	1	1	0	1013	1	4	0	168	117	0	0	100
random	6	1	118	1566673	5	3	3	1	0	783	1	4	0	184	118	0	0	100
random	6	1	119	1568110	1	4	4	1	0	674	1	4	0	192	119	0	0	100
random	6	1	120	1569558	4	2	2	1	0	916	1	4	0	176	120	0	0	100
fixed	7	1	1	1571476	4	1	1	1	0	1075	1	4	0	200	1	0	0	100
fixed	7	1	2	1573053	1	2	2	1	0	1000	1	4	0	208	2	0	0	100
fixed	7	1	3	1574594	6	4	4	1	0	719	1	4	0	224	3	0	0	100
fixed	7	1	4	1576176	2	1	1	1	0	988	1	4	0	200	4	0	0	100
fixed	7	1	5	1577471	5	3	3	1	0	949	1	4	0	216	5	0	0	100
fixed	7	1	6	1579116	6	4	4	1	0	671	1	4	0	224	6	0	0	100
fixed	7	1	7	1580380	3	1	1	1	0	1026	1	4	0	200	7	0	0	100
fixed	7	1	8	1582403	2	3	3	1	0	1036	1	4	0	216	8	0	0	100
fixed	7	1	9	1584299	3	2	2	1	0	820	1	4	0	208	9	0	0	100
fixed	7	1	10	1585431	1	4	4	1	0	820	1	4	0	224	10	0	0	100
fixed	7	1	11	1586707	5	2	2	1	0	1190	1	4	0	208	11	0	0	100
fixed	7	1	12	1588286	4	3	3	1	0	883	1	4	0	216	12	0	0	100
fixed	7	2	1	1590358	4	1	1	1	0	1067	1	4	0	200	1	0	0	8
fixed	7	2	2	1592075	1	2	2	1	0	915	1	4	0	208	2	0	0	14
fixed	7	2	3	1593630	6	4	4	1	0	744	1	4	0	224	3	0	0	20
fixed	7	2	4	1595318	2	1	1	1	0	889	1	4	0	200	4	0	0	25
fixed	7	2	5	1596888	5	3	3	1	0	678	1	4	0	216	5	0	0	29
fixed	7	2	6	1597987	6	4	4	1	0	648	1	4	0	224	6	0	0	33
fixed	7	2	7	1599494	3	1	1	2	0	1008	2	4	0	200	7	0	0	37
fixed	7	2	8	1600984	2	3	3	1	0	921	1	4	0	216	8	0	0	40
fixed	7	2	9	1602686	3	2	2	1	0	1025	1	4	0	208	9	0	0	43
fixed	7	2	10	1604677	1	4	4	1	0	677	1	4	0	224	10	0	0	45
fixed	7	2	11	1606060	5	2	2	1	0	938	1	4	0	208	11	0	0	48
fixed	7	2	12	1607862	4	3	3	1	0	902	1	4	0	216	12	0	0	50
fixed	7	3	1	1609789	4	1	1	1	0	852	1	4	0	200	1	0	0	4
fixed	7	3	2	1611667	1	2	2	1	0	973	1	4	0	208	2	0	0	8
fixed	7	3	3	1613557	6	4	4	1	0	717	1	4	0	224	3	0	0	11
fixed	7	3	4	1614935	2	1	1	1	0	954	1	4	0	200	4	0	0	14
fixed	7	3	5	1616300	5	3	3	1	0	1025	1	4	0	216	5	0	0	17
fixed	7	3	6	1618155	6	4	4	1	0	890	1	4	0	224	6	0	0	20
fixed	7	3	7	1619645	3	1	1	1	0	1131	1	4	0	200	7	0	0	23
fixed	7	3	8	1621547	2	3	3	1	0	1123	1	4	0	216	8	0	0	25
fixed	7	3	9	1623227	3	2	2	1	0	707	1	4	0	208	9	0	0	27
fixed	7	3	10	1624966	1	4	4	1	0	434	1	4	0	224	10	0	0	29
fixed	7	3	11	1626348	5	2	2	1	0	927	1	4	0	208	11	0	0	31
fixed	7	3	12	1628298	4	3	3	1	0	901	1	4	0	216	12	0	0	33
fixed	7	4	1	1630339	4	1	1	1	0	830	1	4	0	200	1	0	0	3
fixed	7	4	2	1632087	1	2	2	1	0	1132	1	4	0	208	2	0	0	5
fixed	7	4	3	1633862	6	4	4	1	0	736	1	4	0	224	3	0	0	8
fixed	7	4	4	1635600	2	1	1	1	0	959	1	4	0	200	4	0	0	10
fixed	7	4	5	1636948	5	3	3	1	0	726	1	4	0	216	5	0	0	12
fixed	7	4	6	1638509	6	4	4	1	0	700	1	4	0	224	6	0	0	14
fixed	7	4	7	1639777	3	1	1	1	0	982	1	4	0	200	7	0	0	16
fixed	7	4	8	1641546	2	3	3	1	0	980	1	4	0	216	8	0	0	18
fixed	7	4	9	1642879	3	2	2	1	0	747	1	4	0	208	9	0	0	20
fixed	7	4	10	1644221	1	4	4	1	0	690	1	4	0	224	10	0	0	22
fixed	7	4	11	1645864	5	2	2	1	0	1276	1	4	0	208	11	0	0	23
fixed	7	4	12	1647950	4	3	3	1	0	884	1	4	0	216	12	0	0	25
fixed	7	5	1	1649870	4	1	1	1	0	810	1	4	0	200	1	0	0	2
fixed	7	5	2	1651609	1	2	2	1	0	1065	1	4	0	208	2	0	0	4
fixed	7	5	3	1653706	6	4	4	1	0	768	1	4	0	224	3	0	0	6
fixed	7	5	4	1655323	2	1	1	1	0	956	1	4	0	200	4	0	0	8
fixed	7	5	5	1656810	5	3	3	1	0	1245	1	4	0	216	5	0	0	9
fixed	7	5	6	1658424	6	4	4	1	0	800	1	4	0	224	6	0	0	11
fixed	7	5	7	1660144	3	1	1	1	0	983	1	4	0	200	7	0	0	13
fixed	7	5	8	1661760	2	3	3	1	0	1035	1	4	0	216	8	0	0	14
fixed	7	5	9	1663667	3	2	2	1	0	795	1	4	0	208	9	0	0	16
fixed	7	5	10	1664876	1	4	4	1	0	647	1	4	0	224	10	0	0	17
fixed	7	5	11	1666098	5	2	2	1	0	1267	1	4	0	208	11	0	0	19
fixed	7	5	12	1668258	4	3	3	1	0	1016	1	4	0	216	12	0	0	20
fixed	7	6	1	1670187	4	1	1	1	0	894	1	4	0	200	1	0	0	2
fixed	7	6	2	1671715	1	2	2	1	0	1062	1	4	0	208	2	0	0	3
fixed	7	6	3	1673715	6	4	4	1	0	833	1	4	0	224	3	0	0	5
fixed	7	6	4	1674865	2	1	1	1	0	1152	1	4	0	200	4	0	0	6
fixed	7	6	5	1676927	5	3	3	1	0	1113	1	4	0	216	5	0	0	8
fixed	7	6	6	1678634	6	4	4	1	0	785	1	4	0	224	6	0	0	9
fixed	7	6	7	1679897	3	1	1	1	0	1171	1	4	0	200	7	0	0	10
fixed	7	6	8	1681479	2	3	3	1	0	1200	1	4	0	216	8	0	0	12
fixed	7	6	9	1683377	3	2	2	1	0	752	1	4	0	208	9	0	0	13
fixed	7	6	10	1684461	1	4	4	1	0	714	1	4	0	224	10	0	0	14
fixed	7	6	11	1685544	5	2	2	1	0	1220	1	4	0	208	11	0	0	15
fixed	7	6	12	1687449	4	3	3	1	0	827	1	4	0	216	12	0	0	17
fixed	7	7	1	1688916	4	1	1	1	0	813	1	4	0	200	1	0	0	1
fixed	7	7	2	1690438	1	2	2	1	0	1060	1	4	0	208	2	0	0	3
fixed	7	7	3	1692137	6	4	4	1	0	701	1	4	0	224	3	0	0	4
fixed	7	7	4	1693654	2	1	1	1	0	1028	1	4	0	200	4	0	0	5
fixed	7	7	5	1695114	5	3	3	1	0	958	1	4	0	216	5	0	0	6
fixed	7	7	6	1697076	6	4	4	1	0	747	1	4	0	224	6	0	0	8
fixed	7	7	7	1698721	3	1	1	1	0	1069	1	4	0	200	7	0	0	9
fixed	7	7	8	1700359	2	3	3	1	0	1016	1	4	0	216	8	0	0	10
fixed	7	7	9	1702371	3	2	2	1	0	1019	1	4	0	208	9	0	0	11
fixed	7	7	10	1704380	1	4	4	1	0	718	1	4	0	224	10	0	0	12
fixed	7	7	11	1705984	5	2	2	1	0	1018	1	4	0	208	11	0	0	13
fixed	7	7	12	1707443	4	3	3	1	0	708	1	4	0	216	12	0	0	14
fixed	7	8	1	1709400	4	1	1	1	0	841	1	4	0	200	1	0	0	1
fixed	7	8	2	1710856	1	2	2	1	0	931	1	4	0	208	2	0	0	2
fixed	7	8	3	1712309	6	4	4	1	0	710	1	4	0	224	3	0	0	3
fixed	7	8	4	1713613	2	1	1	1	0	943	1	4	0	200	4	0	0	5
fixed	7	8	5	1715032	5	3	3	1	0	795	1	4	0	216	5	0	0	6
fixed	7	8	6	1716477	6	4	4	1	0	782	1	4	0	224	6	0	0	7
fixed	7	8	7	1717665	3	1	1	1	0	1084	1	4	0	200	7	0	0	8
fixed	7	8	8	1719512	2	3	3	1	0	909	1	4	0	216	8	0	0	9
fixed	7	8	9	1721078	3	2	2	1	0	890	1	4	0	208	9	0	0	10
fixed	7	8	10	1722784	1	4	4	1	0	634	1	4	0	224	10	0	0	11
fixed	7	8	11	1723951	5	2	2	1	0	1009	1	4	0	208	11	0	0	12
fixed	7	8	12	1725507	4	3	3	1	0	967	1	4	0	216	12	0	0	13
fixed	7	9	1	1727494	4	1	1	1	0	843	1	4	0	200	1	0	0	1
fixed	7	9	2	1728929	1	2	2	1	0	1294	1	4	0	208	2	0	0	2
fixed	7	9	3	1731015	6	4	4	1	0	878	1	4	0	224	3	0	0	3
fixed	7	9	4	1732574	2	1	1	1	0	892	1	4	0	200	4	0	0	4
fixed	7	9	5	1734208	5	3	3	1	0	1174	1	4	0	216	5	0	0	5
fixed	7	9	6	1736177	6	4	4	1	0	787	1	4	0	224	6	0	0	6
fixed	7	9	7	1737847	3	1	1	1	0	1109	1	4	0	200	7	0	0	7
fixed	7	9	8	1739683	2	3	3	1	0	975	1	4	0	216	8	0	0	8
fixed	7	9	9	1741311	3	2	2	1	0	617	1	4	0	208	9	0	0	9
fixed	7	9	10	1742395	1	4	4	1	0	699	1	4	0	224	10	0	0	9
fixed	7	9	11	1743918	5	2	2	1	0	1299	1	4	0	208	11	0	0	10
fixed	7	9	12	1745664	4	3	3	1	0	977	1	4	0	216	12	0	0	11
fixed	7	10	1	1747861	4	1	1	1	0	852	1	4	0	200	1	0	0	1
fixed	7	10	2	1749090	1	2	2	1	0	1808	1	4	0	208	2	0	0	2
fixed	7	10	3	1751191	6	4	4	1	0	919	1	4	0	224	3	0	0	3
fixed	7	10	4	1752557	2	1	1	1	0	933	1	4	0	200	4	0	0	4
fixed	7	10	5	1753797	5	3	3	1	0	1033	1	4	0	216	5	0	0	4
fixed	7	10	6	1755507	6	4	4	1	0	817	1	4	0	224	6	0	0	5
fixed	7	10	7	1757142	3	1	1	2	0	1475	2	4	0	200	7	0	0	6
fixed	7	10	8	1759340	2	3	3	1	0	1126	1	4	0	216	8	0	0	7
fixed	7	10	9	1760860	3	2	2	1	0	1022	1	4	0	208	9	0	0	8
fixed	7	10	10	1762778	1	4	4	1	0	876	1	4	0	224	10	0	0	8
fixed	7	10	11	1764495	5	2	2	1	0	1260	1	4	0	208	11	0	0	9
fixed	7	10	12	1766263	4	3	3	1	0	745	1	4	0	216	12	0	0	10
