type	block	sequ.	trial	time	Pos.	Color	Button	NumRsp	Resp_1	RT_1	R_Code	Resp_2	RT_2	Trigg.	n_hit	n_inc	n_miss	score_%

random	1	1	1	1776	6	1	1	1	0	1310	1	4	0	8	1	0	0	100
random	1	1	2	3383	4	4	4	1	0	722	1	4	0	32	2	0	0	100
random	1	1	3	4647	2	2	0	1	2	0	3	4	0	16	2	0	1	67
random	1	1	4	7507	3	3	3	2	0	1707	2	4	0	24	3	0	1	75
random	1	1	5	10039	5	2	2	1	0	976	1	4	0	16	4	0	1	80
random	1	1	6	11701	1	4	4	1	0	1042	1	4	0	32	5	0	1	83
random	1	1	7	13541	6	1	1	1	0	1148	1	4	0	8	6	0	1	86
random	1	1	8	15207	2	3	3	1	0	878	1	4	0	24	7	0	1	88
random	1	1	9	16676	4	2	2	1	0	575	1	4	0	16	8	0	1	89
random	1	1	10	17934	1	1	1	2	0	1650	2	4	0	8	9	0	1	90
random	1	1	11	20516	5	4	4	1	0	685	1	4	0	32	10	0	1	91
random	1	1	12	21899	3	3	3	1	0	938	1	4	0	24	11	0	1	92
random	1	1	13	23831	5	2	2	1	0	872	1	4	0	16	12	0	1	92
random	1	1	14	25575	1	4	4	1	0	574	1	4	0	32	13	0	1	93
random	1	1	15	26992	3	1	1	1	0	922	1	4	0	8	14	0	1	93
random	1	1	16	28508	4	3	3	2	0	1186	2	4	0	24	15	0	1	94
random	1	1	17	30361	6	4	4	1	0	732	1	4	0	32	16	0	1	94
random	1	1	18	31719	2	1	1	1	0	1010	1	4	0	8	17	0	1	94
random	1	1	19	33088	5	3	3	1	0	1056	1	4	0	24	18	0	1	95
random	1	1	20	34817	2	2	2	1	0	503	1	4	0	16	19	0	1	95
random	1	1	21	35899	3	3	3	1	0	1017	1	4	0	24	20	0	1	95
random	1	1	22	37888	6	1	1	1	0	909	1	4	0	8	21	0	1	95
random	1	1	23	39242	4	2	2	1	0	1139	1	4	0	16	22	0	1	96
random	1	1	24	41150	1	4	4	1	0	723	1	4	0	32	23	0	1	96
random	1	1	25	43012	4	3	3	1	0	1084	1	4	0	24	24	0	1	96
random	1	1	26	44481	2	1	1	1	0	1005	1	4	0	8	25	0	1	96
random	1	1	27	46353	5	2	2	1	0	894	1	4	0	16	26	0	1	96
random	1	1	28	47915	6	4	4	1	0	876	1	4	0	32	27	0	1	96
random	1	1	29	49155	1	3	3	1	0	880	1	4	0	24	28	0	1	97
random	1	1	30	50713	5	2	2	1	0	909	1	4	0	16	29	0	1	97
random	1	1	31	52191	2	1	1	1	0	927	1	4	0	8	30	0	1	97
random	1	1	32	53779	3	3	3	1	0	1020	1	4	0	24	31	0	1	97
random	1	1	33	55160	6	4	4	1	0	713	1	4	0	32	32	0	1	97
random	1	1	34	56385	4	2	2	1	0	885	1	4	0	16	33	0	1	97
random	1	1	35	58291	3	4	4	1	0	1013	1	4	0	32	34	0	1	97
random	1	1	36	59922	1	1	1	1	0	783	1	4	0	8	35	0	1	97
random	1	1	37	61993	3	4	4	1	0	736	1	4	0	32	36	0	1	97
random	1	1	38	63728	5	3	3	1	0	1310	1	4	0	24	37	0	1	97
random	1	1	39	65815	6	1	1	1	0	1014	1	4	0	8	38	0	1	97
random	1	1	40	67312	1	2	2	1	0	967	1	4	0	16	39	0	1	98
random	1	1	41	69158	2	3	3	1	0	1112	1	4	0	24	40	0	1	98
random	1	1	42	70839	4	4	4	1	0	521	1	4	0	32	41	0	1	98
random	1	1	43	72231	1	2	2	1	0	1174	1	4	0	16	42	0	1	98
random	1	1	44	73900	6	3	3	1	0	904	1	4	0	24	43	0	1	98
random	1	1	45	75658	3	1	1	1	0	1477	1	4	0	8	44	0	1	98
random	1	1	46	78176	4	4	4	1	0	650	1	4	0	32	45	0	1	98
random	1	1	47	79366	2	2	2	2	0	2232	2	4	0	16	46	0	1	98
random	1	1	48	82538	5	1	1	1	0	1026	1	4	0	8	47	0	1	98
random	1	1	49	84565	2	3	3	1	0	948	1	4	0	24	48	0	1	98
random	1	1	50	86351	3	1	1	1	0	1016	1	4	0	8	49	0	1	98
random	1	1	51	88059	1	4	4	1	0	616	1	4	0	32	50	0	1	98
random	1	1	52	89669	5	3	3	1	0	1140	1	4	0	24	51	0	1	98
random	1	1	53	91670	3	2	2	1	0	959	1	4	0	16	52	0	1	98
random	1	1	54	93030	6	4	4	1	0	613	1	4	0	32	53	0	1	98
random	1	1	55	94512	4	2	2	1	0	1310	1	4	0	16	54	0	1	98
random	1	1	56	96304	1	1	1	1	0	1379	1	4	0	8	55	0	1	98
random	1	1	57	98149	5	4	4	1	0	724	1	4	0	32	56	0	1	98
random	1	1	58	99711	2	1	1	1	0	1106	1	4	0	8	57	0	1	98
random	1	1	59	101438	6	2	2	1	0	1137	1	4	0	16	58	0	1	98
random	1	1	60	102879	4	3	3	1	0	740	1	4	0	24	59	0	1	98
random	1	1	61	104881	1	2	2	1	0	1279	1	4	0	16	60	0	1	98
random	1	1	62	106462	6	4	4	1	0	765	1	4	0	32	61	0	1	98
random	1	1	63	108187	4	1	1	1	0	1019	1	4	0	8	62	0	1	98
random	1	1	64	110058	2	2	2	1	0	1172	1	4	0	16	63	0	1	98
random	1	1	65	111830	4	3	3	1	0	769	1	4	0	24	64	0	1	98
random	1	1	66	113549	3	1	1	1	0	944	1	4	0	8	65	0	1	98
random	1	1	67	115230	1	3	3	1	0	857	1	4	0	24	66	0	1	99
random	1	1	68	116602	5	4	4	1	0	703	1	4	0	32	67	0	1	99
random	1	1	69	118317	2	2	2	1	0	998	1	4	0	16	68	0	1	99
random	1	1	70	119888	3	1	1	1	0	956	1	4	0	8	69	0	1	99
random	1	1	71	121766	5	4	4	1	0	620	1	4	0	32	70	0	1	99
random	1	1	72	122891	6	3	3	1	0	900	1	4	0	24	71	0	1	99
random	1	1	73	124563	2	1	1	1	0	949	1	4	0	8	72	0	1	99
random	1	1	74	126043	5	3	3	1	0	1087	1	4	0	24	73	0	1	99
random	1	1	75	127503	1	4	4	1	0	713	1	4	0	32	74	0	1	99
random	1	1	76	128967	6	2	2	1	0	1035	1	4	0	16	75	0	1	99
random	1	1	77	130879	2	1	1	1	0	954	1	4	0	8	76	0	1	99
random	1	1	78	132876	4	4	4	1	0	790	1	4	0	32	77	0	1	99
random	1	1	79	134699	3	2	2	1	0	921	1	4	0	16	78	0	1	99
random	1	1	80	136591	4	3	3	1	0	952	1	4	0	24	79	0	1	99
random	1	1	81	138190	1	4	4	1	0	669	1	4	0	32	80	0	1	99
random	1	1	82	139467	5	1	1	2	0	1142	2	4	0	8	81	0	1	99
random	1	1	83	141620	3	2	2	1	0	1259	1	4	0	16	82	0	1	99
random	1	1	84	143407	6	3	3	1	0	879	1	4	0	24	83	0	1	99
random	1	1	85	144963	3	2	2	1	0	1189	1	4	0	16	84	0	1	99
random	1	1	86	146718	1	3	3	1	0	787	1	4	0	24	85	0	1	99
random	1	1	87	147953	4	4	4	1	0	727	1	4	0	32	86	0	1	99
random	1	1	88	149245	2	1	1	1	0	736	1	4	0	8	87	0	1	99
random	1	1	89	150296	6	4	4	1	0	676	1	4	0	32	88	0	1	99
random	1	1	90	151512	3	3	3	1	0	1152	1	4	0	24	89	0	1	99
random	1	1	91	153424	5	4	4	1	0	807	1	4	0	32	90	0	1	99
random	1	1	92	154647	1	2	2	1	0	948	1	4	0	16	91	0	1	99
random	1	1	93	156383	5	1	1	1	0	994	1	4	0	8	92	0	1	99
random	1	1	94	158231	4	3	3	2	0	1316	2	4	0	24	93	0	1	99
random	1	1	95	160256	6	1	1	1	0	1174	1	4	0	8	94	0	1	99
random	1	1	96	162266	2	2	2	1	0	1169	1	4	0	16	95	0	1	99
random	1	1	97	164076	4	3	3	1	0	1012	1	4	0	24	96	0	1	99
random	1	1	98	165799	3	2	2	1	0	1035	1	4	0	16	97	0	1	99
random	1	1	99	167203	6	3	3	1	0	1176	1	4	0	24	98	0	1	99
random	1	1	100	169342	1	4	4	1	0	661	1	4	0	32	99	0	1	99
random	1	1	101	170546	4	1	1	1	0	986	1	4	0	8	100	0	1	99
random	1	1	102	172449	5	2	2	1	0	1201	1	4	0	16	101	0	1	99
random	1	1	103	174266	2	4	4	1	0	676	1	4	0	32	102	0	1	99
random	1	1	104	175984	3	1	1	2	0	1452	2	4	0	8	103	0	1	99
random	1	1	105	177992	1	3	3	1	0	1134	1	4	0	24	104	0	1	99
random	1	1	106	179782	2	2	2	1	0	1115	1	4	0	16	105	0	1	99
random	1	1	107	181574	5	4	4	1	0	663	1	4	0	32	106	0	1	99
random	1	1	108	183079	6	1	1	1	0	1159	1	4	0	8	107	0	1	99
random	1	1	109	185128	5	4	4	1	0	720	1	4	0	32	108	0	1	99
random	1	1	110	186707	6	3	3	1	0	1198	1	4	0	24	109	0	1	99
random	1	1	111	188873	2	2	2	1	0	858	1	4	0	16	110	0	1	99
random	1	1	112	190129	3	1	1	1	0	989	1	4	0	8	111	0	1	99
random	1	1	113	191718	1	2	2	1	0	1033	1	4	0	16	112	0	1	99
random	1	1	114	193146	2	3	3	1	0	837	1	4	0	24	113	0	1	99
random	1	1	115	194603	3	1	1	1	0	1127	1	4	0	8	114	0	1	99
random	1	1	116	196716	4	4	4	1	0	614	1	4	0	32	115	0	1	99
random	1	1	117	198220	6	1	1	1	0	1182	1	4	0	8	116	0	1	99
random	1	1	118	200093	5	3	3	1	0	927	1	4	0	24	117	0	1	99
random	1	1	119	201507	1	4	4	1	0	699	1	4	0	32	118	0	1	99
random	1	1	120	203167	4	2	2	1	0	669	1	4	0	16	119	0	1	99
fixed	2	1	1	204690	4	1	1	1	0	1092	1	4	0	40	1	0	0	100
fixed	2	1	2	206286	1	2	2	1	0	1000	1	4	0	48	2	0	0	100
fixed	2	1	3	207568	6	4	4	1	0	866	1	4	0	64	3	0	0	100
fixed	2	1	4	208896	2	1	1	1	0	922	1	4	0	40	4	0	0	100
fixed	2	1	5	210597	5	3	3	1	0	882	1	4	0	56	5	0	0	100
fixed	2	1	6	212088	6	4	4	1	0	667	1	4	0	64	6	0	0	100
fixed	2	1	7	213115	3	1	1	1	0	1143	1	4	0	40	7	0	0	100
fixed	2	1	8	214551	2	3	3	1	0	986	1	4	0	56	8	0	0	100
fixed	2	1	9	216278	3	2	2	1	0	889	1	4	0	48	9	0	0	100
fixed	2	1	10	217527	1	4	4	1	0	660	1	4	0	64	10	0	0	100
fixed	2	1	11	219002	5	2	2	1	0	1006	1	4	0	48	11	0	0	100
fixed	2	1	12	220344	4	3	3	1	0	837	1	4	0	56	12	0	0	100
fixed	2	2	1	221801	4	1	1	1	0	895	1	4	0	40	13	0	0	100
fixed	2	2	2	223085	1	2	2	1	0	928	1	4	0	48	14	0	0	100
fixed	2	2	3	224708	6	4	4	1	0	692	1	4	0	64	15	0	0	100
fixed	2	2	4	226083	2	1	1	1	0	1402	1	4	0	40	16	0	0	100
fixed	2	2	5	228016	5	3	3	1	0	744	1	4	0	56	17	0	0	100
fixed	2	2	6	229272	6	4	4	1	0	723	1	4	0	64	18	0	0	100
fixed	2	2	7	230795	3	1	1	1	0	1050	1	4	0	40	19	0	0	100
fixed	2	2	8	232216	2	3	3	1	0	934	1	4	0	56	20	0	0	100
fixed	2	2	9	234100	3	2	2	2	0	1182	2	4	0	48	21	0	0	100
fixed	2	2	10	236186	1	4	4	1	0	798	1	4	0	64	22	0	0	100
fixed	2	2	11	237309	5	2	2	1	0	1062	1	4	0	48	23	0	0	100
fixed	2	2	12	238799	4	3	3	1	0	823	1	4	0	56	24	0	0	100
fixed	2	3	1	240898	4	1	1	1	0	1078	1	4	0	40	25	0	0	100
fixed	2	3	2	242582	1	2	2	1	0	1815	1	4	0	48	26	0	0	100
fixed	2	3	3	244700	6	4	4	1	0	821	1	4	0	64	27	0	0	100
fixed	2	3	4	246316	2	1	1	1	0	1057	1	4	0	40	28	0	0	100
fixed	2	3	5	248197	5	3	3	1	0	937	1	4	0	56	29	0	0	100
fixed	2	3	6	250105	6	4	4	1	0	680	1	4	0	64	30	0	0	100
fixed	2	3	7	251604	3	1	1	1	0	1089	1	4	0	40	31	0	0	100
fixed	2	3	8	253157	2	3	3	1	0	975	1	4	0	56	32	0	0	100
fixed	2	3	9	254555	3	2	2	1	0	1132	1	4	0	48	33	0	0	100
fixed	2	3	10	256303	1	4	4	1	0	586	1	4	0	64	34	0	0	100
fixed	2	3	11	257206	5	2	2	1	0	1035	1	4	0	48	35	0	0	100
fixed	2	3	12	258916	4	3	3	1	0	571	1	4	0	56	36	0	0	100
fixed	2	4	1	260613	4	1	1	1	0	867	1	4	0	40	37	0	0	100
fixed	2	4	2	261809	1	2	2	1	0	1089	1	4	0	48	38	0	0	100
fixed	2	4	3	263547	6	4	4	1	0	703	1	4	0	64	39	0	0	100
fixed	2	4	4	264917	2	1	1	1	0	925	1	4	0	40	40	0	0	100
fixed	2	4	5	266437	5	3	3	1	0	805	1	4	0	56	41	0	0	100
fixed	2	4	6	268032	6	4	4	1	0	681	1	4	0	64	42	0	0	100
fixed	2	4	7	269720	3	1	1	1	0	809	1	4	0	40	43	0	0	100
fixed	2	4	8	271565	2	3	3	1	0	972	1	4	0	56	44	0	0	100
fixed	2	4	9	273329	3	2	2	1	0	1297	1	4	0	48	45	0	0	100
fixed	2	4	10	275441	1	4	4	1	0	591	1	4	0	64	46	0	0	100
fixed	2	4	11	277059	5	2	2	1	0	1091	1	4	0	48	47	0	0	100
fixed	2	4	12	278607	4	3	3	1	0	833	1	4	0	56	48	0	0	100
fixed	2	5	1	280545	4	1	1	1	0	903	1	4	0	40	49	0	0	100
fixed	2	5	2	282478	1	2	2	1	0	1061	1	4	0	48	50	0	0	100
fixed	2	5	3	283883	6	4	4	1	0	786	1	4	0	64	51	0	0	100
fixed	2	5	4	285020	2	1	1	1	0	1297	1	4	0	40	52	0	0	100
fixed	2	5	5	287179	5	3	3	1	0	1014	1	4	0	56	53	0	0	100
fixed	2	5	6	288814	6	4	4	1	0	657	1	4	0	64	54	0	0	100
fixed	2	5	7	289824	3	1	1	1	0	1102	1	4	0	40	55	0	0	100
fixed	2	5	8	291835	2	3	3	2	0	1457	2	4	0	56	56	0	0	100
fixed	2	5	9	294249	3	2	2	1	0	1091	1	4	0	48	57	0	0	100
fixed	2	5	10	296202	1	4	4	1	0	656	1	4	0	64	58	0	0	100
fixed	2	5	11	297360	5	2	2	1	0	935	1	4	0	48	59	0	0	100
fixed	2	5	12	298747	4	3	3	1	0	812	1	4	0	56	60	0	0	100
fixed	2	6	1	300645	4	1	1	1	0	860	1	4	0	40	61	0	0	100
fixed	2	6	2	302517	1	2	2	1	0	1188	1	4	0	48	62	0	0	100
fixed	2	6	3	304289	6	4	4	1	0	729	1	4	0	64	63	0	0	100
fixed	2	6	4	306009	2	1	1	1	0	784	1	4	0	40	64	0	0	100
fixed	2	6	5	307394	5	3	3	1	0	1062	1	4	0	56	65	0	0	100
fixed	2	6	6	308950	6	4	4	1	0	788	1	4	0	64	66	0	0	100
fixed	2	6	7	310162	3	1	1	1	0	2097	1	4	0	40	67	0	0	100
fixed	2	6	8	312553	2	3	3	1	0	988	1	4	0	56	68	0	0	100
fixed	2	6	9	313901	3	2	2	1	0	778	1	4	0	48	69	0	0	100
fixed	2	6	10	315302	1	4	4	1	0	527	1	4	0	64	70	0	0	100
fixed	2	6	11	316660	5	2	2	1	0	894	1	4	0	48	71	0	0	100
fixed	2	6	12	318537	4	3	3	1	0	982	1	4	0	56	72	0	0	100
fixed	2	7	1	320226	4	1	1	1	0	902	1	4	0	40	73	0	0	100
fixed	2	7	2	321848	1	2	2	1	0	1010	1	4	0	48	74	0	0	100
fixed	2	7	3	323457	6	4	4	1	0	710	1	4	0	64	75	0	0	100
fixed	2	7	4	324827	2	1	1	1	0	1148	1	4	0	40	76	0	0	100
fixed	2	7	5	326774	5	3	3	1	0	785	1	4	0	56	77	0	0	100
fixed	2	7	6	328151	6	4	4	1	0	1231	1	4	0	64	78	0	0	100
fixed	2	7	7	330039	3	1	1	1	0	967	1	4	0	40	79	0	0	100
fixed	2	7	8	331845	2	3	3	1	0	922	1	4	0	56	80	0	0	100
fixed	2	7	9	333248	3	2	2	1	0	1119	1	4	0	48	81	0	0	100
fixed	2	7	10	335126	1	4	4	1	0	527	1	4	0	64	82	0	0	100
fixed	2	7	11	336614	5	2	2	1	0	888	1	4	0	48	83	0	0	100
fixed	2	7	12	338204	4	3	3	1	0	1077	1	4	0	56	84	0	0	100
fixed	2	8	1	339841	4	1	1	1	0	935	1	4	0	40	85	0	0	100
fixed	2	8	2	341445	1	2	2	2	0	1395	2	4	0	48	86	0	0	100
fixed	2	8	3	343258	6	4	4	1	0	719	1	4	0	64	87	0	0	100
fixed	2	8	4	344286	2	1	1	1	0	1059	1	4	0	40	88	0	0	100
fixed	2	8	5	345688	5	3	3	1	0	832	1	4	0	56	89	0	0	100
fixed	2	8	6	347406	6	4	4	1	0	688	1	4	0	64	90	0	0	100
fixed	2	8	7	348546	3	1	1	1	0	911	1	4	0	40	91	0	0	100
fixed	2	8	8	349845	2	3	3	1	0	1344	1	4	0	56	92	0	0	100
fixed	2	8	9	351895	3	2	2	1	0	713	1	4	0	48	93	0	0	100
fixed	2	8	10	352890	1	4	4	1	0	735	1	4	0	64	94	0	0	100
fixed	2	8	11	353930	5	2	2	1	0	1019	1	4	0	48	95	0	0	100
fixed	2	8	12	355345	4	3	3	1	0	895	1	4	0	56	96	0	0	100
fixed	2	9	1	356966	4	1	1	1	0	850	1	4	0	40	97	0	0	100
fixed	2	9	2	358674	1	2	2	1	0	1082	1	4	0	48	98	0	0	100
fixed	2	9	3	360560	6	4	4	1	0	706	1	4	0	64	99	0	0	100
fixed	2	9	4	362246	2	1	1	1	0	858	1	4	0	40	100	0	0	100
fixed	2	9	5	363914	5	3	3	1	0	892	1	4	0	56	101	0	0	100
fixed	2	9	6	365558	6	4	4	1	0	726	1	4	0	64	102	0	0	100
fixed	2	9	7	367202	3	1	1	1	0	937	1	4	0	40	103	0	0	100
fixed	2	9	8	368892	2	3	3	2	0	2258	2	4	0	56	104	0	0	100
fixed	2	9	9	371893	3	2	2	1	0	834	1	4	0	48	105	0	0	100
fixed	2	9	10	373599	1	4	4	1	0	666	1	4	0	64	106	0	0	100
fixed	2	9	11	374733	5	2	2	1	0	866	1	4	0	48	107	0	0	100
fixed	2	9	12	376069	4	3	3	1	0	793	1	4	0	56	108	0	0	100
fixed	2	10	1	377767	4	1	1	1	0	897	1	4	0	40	109	0	0	100
fixed	2	10	2	379001	1	2	2	1	0	1037	1	4	0	48	110	0	0	100
fixed	2	10	3	380652	6	4	4	1	0	711	1	4	0	64	111	0	0	100
fixed	2	10	4	382104	2	1	1	1	0	850	1	4	0	40	112	0	0	100
fixed	2	10	5	383314	5	3	3	1	0	1078	1	4	0	56	113	0	0	100
fixed	2	10	6	384888	6	4	4	1	0	764	1	4	0	64	114	0	0	100
fixed	2	10	7	386143	3	1	1	1	0	919	1	4	0	40	115	0	0	100
fixed	2	10	8	387973	2	3	3	1	0	1049	1	4	0	56	116	0	0	100
fixed	2	10	9	389413	3	2	2	1	0	724	1	4	0	48	117	0	0	100
fixed	2	10	10	391080	1	4	4	1	0	638	1	4	0	64	118	0	0	100
fixed	2	10	11	392650	5	2	2	1	0	915	1	4	0	48	119	0	0	100
fixed	2	10	12	393845	4	3	3	1	0	880	1	4	0	56	120	0	0	100
fixed	3	1	1	395976	4	1	1	1	0	710	1	4	0	72	1	0	0	100
fixed	3	1	2	397372	1	2	2	1	0	963	1	4	0	80	2	0	0	100
fixed	3	1	3	399122	6	4	4	1	0	593	1	4	0	96	3	0	0	100
fixed	3	1	4	400253	2	1	1	1	0	1289	1	4	0	72	4	0	0	100
fixed	3	1	5	402297	5	3	3	1	0	1010	1	4	0	88	5	0	0	100
fixed	3	1	6	403698	6	4	4	1	0	1487	1	4	0	96	6	0	0	100
fixed	3	1	7	405701	3	1	1	1	0	946	1	4	0	72	7	0	0	100
fixed	3	1	8	407165	2	3	3	1	0	1252	1	4	0	88	8	0	0	100
fixed	3	1	9	408827	3	2	2	1	0	806	1	4	0	80	9	0	0	100
fixed	3	1	10	409945	1	4	4	1	0	654	1	4	0	96	10	0	0	100
fixed	3	1	11	411465	5	2	2	1	0	966	1	4	0	80	11	0	0	100
fixed	3	1	12	413172	4	3	3	1	0	782	1	4	0	88	12	0	0	100
fixed	3	2	1	414674	4	1	1	1	0	742	1	4	0	72	13	0	0	100
fixed	3	2	2	416391	1	2	2	1	0	966	1	4	0	80	14	0	0	100
fixed	3	2	3	418017	6	4	4	1	0	736	1	4	0	96	15	0	0	100
fixed	3	2	4	419791	2	1	1	1	0	1221	1	4	0	72	16	0	0	100
fixed	3	2	5	421322	5	3	3	1	0	1260	1	4	0	88	17	0	0	100
fixed	3	2	6	423519	6	4	4	1	0	720	1	4	0	96	18	0	0	100
fixed	3	2	7	425208	3	1	1	1	0	992	1	4	0	72	19	0	0	100
fixed	3	2	8	426491	2	3	3	1	0	1106	1	4	0	88	20	0	0	100
fixed	3	2	9	428161	3	2	2	1	0	971	1	4	0	80	21	0	0	100
fixed	3	2	10	429453	1	4	4	1	0	692	1	4	0	96	22	0	0	100
fixed	3	2	11	430924	5	2	2	1	0	750	1	4	0	80	23	0	0	100
fixed	3	2	12	432487	4	3	3	1	0	915	1	4	0	88	24	0	0	100
fixed	3	3	1	434573	4	1	1	1	0	795	1	4	0	72	25	0	0	100
fixed	3	3	2	436171	1	2	2	1	0	1024	1	4	0	80	26	0	0	100
fixed	3	3	3	437904	6	4	4	1	0	1190	1	4	0	96	27	0	0	100
fixed	3	3	4	439693	2	1	1	1	0	1099	1	4	0	72	28	0	0	100
fixed	3	3	5	441586	5	3	3	1	0	1043	1	4	0	88	29	0	0	100
fixed	3	3	6	443616	6	4	4	1	0	804	1	4	0	96	30	0	0	100
fixed	3	3	7	444987	3	1	1	1	0	1098	1	4	0	72	31	0	0	100
fixed	3	3	8	446998	2	3	3	1	0	917	1	4	0	88	32	0	0	100
fixed	3	3	9	448663	3	2	2	1	0	1607	1	4	0	80	33	0	0	100
fixed	3	3	10	451177	1	4	4	1	0	756	1	4	0	96	34	0	0	100
fixed	3	3	11	452728	5	2	2	1	0	1083	1	4	0	80	35	0	0	100
fixed	3	3	12	454092	4	3	3	1	0	873	1	4	0	88	36	0	0	100
fixed	3	4	1	456260	4	1	1	1	0	765	1	4	0	72	37	0	0	100
fixed	3	4	2	457529	1	2	2	1	0	935	1	4	0	80	38	0	0	100
fixed	3	4	3	459406	6	4	4	1	0	616	1	4	0	96	39	0	0	100
fixed	3	4	4	460358	2	1	1	1	0	2199	1	4	0	72	40	0	0	100
fixed	3	4	5	463394	5	3	3	1	0	846	1	4	0	88	41	0	0	100
fixed	3	4	6	464954	6	4	4	1	0	749	1	4	0	96	42	0	0	100
fixed	3	4	7	466555	3	1	1	1	0	849	1	4	0	72	43	0	0	100
fixed	3	4	8	468102	2	3	3	1	0	920	1	4	0	88	44	0	0	100
fixed	3	4	9	469689	3	2	2	1	0	1052	1	4	0	80	45	0	0	100
fixed	3	4	10	471435	1	4	4	1	0	522	1	4	0	96	46	0	0	100
fixed	3	4	11	472249	5	2	2	1	0	991	1	4	0	80	47	0	0	100
fixed	3	4	12	474147	4	3	3	1	0	863	1	4	0	88	48	0	0	100
fixed	3	5	1	475941	4	1	1	1	0	755	1	4	0	72	49	0	0	100
fixed	3	5	2	477674	1	2	2	1	0	1010	1	4	0	80	50	0	0	100
fixed	3	5	3	479030	6	4	4	1	0	720	1	4	0	96	51	0	0	100
fixed	3	5	4	480243	2	1	1	1	0	885	1	4	0	72	52	0	0	100
fixed	3	5	5	481590	5	3	3	1	0	852	1	4	0	88	53	0	0	100
fixed	3	5	6	483311	6	4	4	1	0	651	1	4	0	96	54	0	0	100
fixed	3	5	7	484859	3	1	1	1	0	1106	1	4	0	72	55	0	0	100
fixed	3	5	8	486795	2	3	3	1	0	816	1	4	0	88	56	0	0	100
fixed	3	5	9	488509	3	2	2	1	0	991	1	4	0	80	57	0	0	100
fixed	3	5	10	490370	1	4	4	1	0	624	1	4	0	96	58	0	0	100
fixed	3	5	11	491861	5	2	2	1	0	1009	1	4	0	80	59	0	0	100
fixed	3	5	12	493286	4	3	3	1	0	1004	1	4	0	88	60	0	0	100
fixed	3	6	1	495456	4	1	1	1	0	736	1	4	0	72	61	0	0	100
fixed	3	6	2	496496	1	2	2	1	0	1141	1	4	0	80	62	0	0	100
fixed	3	6	3	498432	6	4	4	1	0	715	1	4	0	96	63	0	0	100
fixed	3	6	4	499580	2	1	1	2	0	1954	2	4	0	72	64	0	0	100
fixed	3	6	5	502143	5	3	3	1	0	765	1	4	0	88	65	0	0	100
fixed	3	6	6	503521	6	4	4	1	0	683	1	4	0	96	66	0	0	100
fixed	3	6	7	504770	3	1	1	1	0	982	1	4	0	72	67	0	0	100
fixed	3	6	8	506381	2	3	3	1	0	826	1	4	0	88	68	0	0	100
fixed	3	6	9	507630	3	2	2	1	0	917	1	4	0	80	69	0	0	100
fixed	3	6	10	509453	1	4	4	1	0	576	1	4	0	96	70	0	0	100
fixed	3	6	11	510989	5	2	2	1	0	1087	1	4	0	80	71	0	0	100
fixed	3	6	12	512366	4	3	3	1	0	876	1	4	0	88	72	0	0	100
fixed	3	7	1	513968	4	1	1	1	0	888	1	4	0	72	73	0	0	100
fixed	3	7	2	515298	1	2	2	1	0	1073	1	4	0	80	74	0	0	100
fixed	3	7	3	516732	6	4	4	1	0	716	1	4	0	96	75	0	0	100
fixed	3	7	4	518361	2	1	1	1	0	1190	1	4	0	72	76	0	0	100
fixed	3	7	5	520568	5	3	3	1	0	929	1	4	0	88	77	0	0	100
fixed	3	7	6	522101	6	4	4	1	0	768	1	4	0	96	78	0	0	100
fixed	3	7	7	523486	3	1	1	1	0	926	1	4	0	72	79	0	0	100
fixed	3	7	8	524947	2	3	3	1	0	775	1	4	0	88	80	0	0	100
fixed	3	7	9	526094	3	2	2	1	0	999	1	4	0	80	81	0	0	100
fixed	3	7	10	527572	1	4	4	1	0	632	1	4	0	96	82	0	0	100
fixed	3	7	11	528636	5	2	2	1	0	843	1	4	0	80	83	0	0	100
fixed	3	7	12	529931	4	3	3	1	0	837	1	4	0	88	84	0	0	100
fixed	3	8	1	531828	4	1	1	1	0	852	1	4	0	72	85	0	0	100
fixed	3	8	2	533200	1	2	2	1	0	1154	1	4	0	80	86	0	0	100
fixed	3	8	3	534835	6	4	4	1	0	885	1	4	0	96	87	0	0	100
fixed	3	8	4	536491	2	1	1	1	0	958	1	4	0	72	88	0	0	100
fixed	3	8	5	537769	5	3	3	1	0	865	1	4	0	88	89	0	0	100
fixed	3	8	6	539425	6	4	4	1	0	731	1	4	0	96	90	0	0	100
fixed	3	8	7	540949	3	1	1	1	0	1034	1	4	0	72	91	0	0	100
fixed	3	8	8	542845	2	3	3	1	0	922	1	4	0	88	92	0	0	100
fixed	3	8	9	544563	3	2	2	1	0	993	1	4	0	80	93	0	0	100
fixed	3	8	10	546543	1	4	4	1	0	549	1	4	0	96	94	0	0	100
fixed	3	8	11	547810	5	2	2	1	0	823	1	4	0	80	95	0	0	100
fixed	3	8	12	549460	4	3	3	1	0	833	1	4	0	88	96	0	0	100
fixed	3	9	1	551243	4	1	1	1	0	766	1	4	0	72	97	0	0	100
fixed	3	9	2	552628	1	2	2	1	0	915	1	4	0	80	98	0	0	100
fixed	3	9	3	554203	6	4	4	1	0	664	1	4	0	96	99	0	0	100
fixed	3	9	4	555537	2	1	1	1	0	888	1	4	0	72	100	0	0	100
fixed	3	9	5	557206	5	3	3	1	0	729	1	4	0	88	101	0	0	100
fixed	3	9	6	558780	6	4	4	1	0	694	1	4	0	96	102	0	0	100
fixed	3	9	7	560486	3	1	1	1	0	686	1	4	0	72	103	0	0	100
fixed	3	9	8	562109	2	3	3	1	0	1322	1	4	0	88	104	0	0	100
fixed	3	9	9	564093	3	2	2	1	0	1021	1	4	0	80	105	0	0	100
fixed	3	9	10	565741	1	4	4	1	0	552	1	4	0	96	106	0	0	100
fixed	3	9	11	567254	5	2	2	1	0	832	1	4	0	80	107	0	0	100
fixed	3	9	12	569031	4	3	3	1	0	717	1	4	0	88	108	0	0	100
fixed	3	10	1	570440	4	1	1	1	0	713	1	4	0	72	109	0	0	100
fixed	3	10	2	571625	1	2	2	1	0	910	1	4	0	80	110	0	0	100
fixed	3	10	3	573347	6	4	4	1	0	717	1	4	0	96	111	0	0	100
fixed	3	10	4	574508	2	1	1	1	0	957	1	4	0	72	112	0	0	100
fixed	3	10	5	575803	5	3	3	1	0	1037	1	4	0	88	113	0	0	100
fixed	3	10	6	577792	6	4	4	1	0	929	1	4	0	96	114	0	0	100
fixed	3	10	7	579752	3	1	1	1	0	1134	1	4	0	72	115	0	0	100
fixed	3	10	8	581816	2	3	3	1	0	847	1	4	0	88	116	0	0	100
fixed	3	10	9	583387	3	2	2	1	0	924	1	4	0	80	117	0	0	100
fixed	3	10	10	585115	1	4	4	1	0	539	1	4	0	96	118	0	0	100
fixed	3	10	11	586455	5	2	2	2	0	1299	2	4	0	80	119	0	0	100
fixed	3	10	12	588724	4	3	3	1	0	818	1	4	0	88	120	0	0	100
fixed	4	1	1	821754	4	1	1	1	0	1308	1	4	0	104	1	0	0	100
fixed	4	1	2	823974	1	2	2	1	0	951	1	4	0	112	2	0	0	100
fixed	4	1	3	825236	6	4	4	1	0	729	1	4	0	128	3	0	0	100
fixed	4	1	4	826329	2	1	1	1	0	987	1	4	0	104	4	0	0	100
fixed	4	1	5	827878	5	3	3	1	0	793	1	4	0	120	5	0	0	100
fixed	4	1	6	828972	6	4	4	1	0	602	1	4	0	128	6	0	0	100
fixed	4	1	7	830294	3	1	1	1	0	827	1	4	0	104	7	0	0	100
fixed	4	1	8	831475	2	3	3	1	0	809	1	4	0	120	8	0	0	100
fixed	4	1	9	833117	3	2	2	1	0	731	1	4	0	112	9	0	0	100
fixed	4	1	10	834214	1	4	4	1	0	493	1	4	0	128	10	0	0	100
fixed	4	1	11	835583	5	2	2	1	0	915	1	4	0	112	11	0	0	100
fixed	4	1	12	837519	4	3	3	1	0	729	1	4	0	120	12	0	0	100
fixed	4	2	1	838948	4	1	1	1	0	892	1	4	0	104	13	0	0	100
fixed	4	2	2	840143	1	2	2	1	0	1114	1	4	0	112	14	0	0	100
fixed	4	2	3	842051	6	4	4	1	0	625	1	4	0	128	15	0	0	100
fixed	4	2	4	843168	2	1	1	1	0	922	1	4	0	104	16	0	0	100
fixed	4	2	5	844710	5	3	3	1	0	832	1	4	0	120	17	0	0	100
fixed	4	2	6	846443	6	4	4	1	0	679	1	4	0	128	18	0	0	100
fixed	4	2	7	847901	3	1	1	1	0	1001	1	4	0	104	19	0	0	100
fixed	4	2	8	849920	2	3	3	1	0	756	1	4	0	120	20	0	0	100
fixed	4	2	9	851264	3	2	2	1	0	674	1	4	0	112	21	0	0	100
fixed	4	2	10	852270	1	4	4	1	0	664	1	4	0	128	22	0	0	100
fixed	4	2	11	853781	5	2	2	1	0	1280	1	4	0	112	23	0	0	100
fixed	4	2	12	855809	4	3	3	1	0	714	1	4	0	120	24	0	0	100
fixed	4	3	1	857577	4	1	1	1	0	703	1	4	0	104	25	0	0	100
fixed	4	3	2	859119	1	2	2	1	0	966	1	4	0	112	26	0	0	100
fixed	4	3	3	860998	6	4	4	1	0	679	1	4	0	128	27	0	0	100
fixed	4	3	4	862061	2	1	1	1	0	945	1	4	0	104	28	0	0	100
fixed	4	3	5	863486	5	3	3	1	0	781	1	4	0	120	29	0	0	100
fixed	4	3	6	865083	6	4	4	1	0	649	1	4	0	128	30	0	0	100
fixed	4	3	7	866306	3	1	1	1	0	1030	1	4	0	104	31	0	0	100
fixed	4	3	8	867781	2	3	3	1	0	855	1	4	0	120	32	0	0	100
fixed	4	3	9	869554	3	2	2	1	0	708	1	4	0	112	33	0	0	100
fixed	4	3	10	871215	1	4	4	1	0	501	1	4	0	128	34	0	0	100
fixed	4	3	11	872655	5	2	2	1	0	945	1	4	0	112	35	0	0	100
fixed	4	3	12	874576	4	3	3	1	0	759	1	4	0	120	36	0	0	100
fixed	4	4	1	876056	4	1	1	1	0	824	1	4	0	104	37	0	0	100
fixed	4	4	2	877450	1	2	2	1	0	878	1	4	0	112	38	0	0	100
fixed	4	4	3	878863	6	4	4	1	0	737	1	4	0	128	39	0	0	100
fixed	4	4	4	880527	2	1	1	1	0	827	1	4	0	104	40	0	0	100
fixed	4	4	5	881900	5	3	3	1	0	657	1	4	0	120	41	0	0	100
fixed	4	4	6	883374	6	4	4	1	0	690	1	4	0	128	42	0	0	100
fixed	4	4	7	885028	3	1	1	1	0	860	1	4	0	104	43	0	0	100
fixed	4	4	8	886558	2	3	3	1	0	900	1	4	0	120	44	0	0	100
fixed	4	4	9	888052	3	2	2	1	0	604	1	4	0	112	45	0	0	100
fixed	4	4	10	889562	1	4	4	1	0	556	1	4	0	128	46	0	0	100
fixed	4	4	11	890531	5	2	2	1	0	1587	1	4	0	112	47	0	0	100
fixed	4	4	12	892943	4	3	3	1	0	774	1	4	0	120	48	0	0	100
fixed	4	5	1	894668	4	1	1	1	0	756	1	4	0	104	49	0	0	100
fixed	4	5	2	895762	1	2	2	1	0	1198	1	4	0	112	50	0	0	100
fixed	4	5	3	897606	6	4	4	1	0	647	1	4	0	128	51	0	0	100
fixed	4	5	4	899041	2	1	1	2	0	1195	2	4	0	104	52	0	0	100
fixed	4	5	5	900611	5	3	3	1	0	833	1	4	0	120	53	0	0	100
fixed	4	5	6	901815	6	4	4	1	0	702	1	4	0	128	54	0	0	100
fixed	4	5	7	903236	3	1	1	1	0	1154	1	4	0	104	55	0	0	100
fixed	4	5	8	905243	2	3	3	1	0	844	1	4	0	120	56	0	0	100
fixed	4	5	9	907106	3	2	2	1	0	909	1	4	0	112	57	0	0	100
fixed	4	5	10	908696	1	4	4	1	0	498	1	4	0	128	58	0	0	100
fixed	4	5	11	909893	5	2	2	1	0	991	1	4	0	112	59	0	0	100
fixed	4	5	12	911326	4	3	3	1	0	738	1	4	0	120	60	0	0	100
fixed	4	6	1	912679	4	1	1	1	0	945	1	4	0	104	61	0	0	100
fixed	4	6	2	914348	1	2	2	1	0	842	1	4	0	112	62	0	0	100
fixed	4	6	3	915857	6	4	4	1	0	731	1	4	0	128	63	0	0	100
fixed	4	6	4	917201	2	1	1	1	0	1162	1	4	0	104	64	0	0	100
fixed	4	6	5	919094	5	3	3	2	0	1345	2	4	0	120	65	0	0	100
fixed	4	6	6	920896	6	4	4	1	0	742	1	4	0	128	66	0	0	100
fixed	4	6	7	922044	3	1	1	1	0	973	1	4	0	104	67	0	0	100
fixed	4	6	8	923683	2	3	3	1	0	1063	1	4	0	120	68	0	0	100
fixed	4	6	9	925310	3	2	2	1	0	666	1	4	0	112	69	0	0	100
fixed	4	6	10	926847	1	4	4	1	0	649	1	4	0	128	70	0	0	100
fixed	4	6	11	928069	5	2	2	1	0	1389	1	4	0	112	71	0	0	100
fixed	4	6	12	929762	4	3	3	1	0	958	1	4	0	120	72	0	0	100
fixed	4	7	1	931943	4	1	1	1	0	897	1	4	0	104	73	0	0	100
fixed	4	7	2	933148	1	2	2	1	0	934	1	4	0	112	74	0	0	100
fixed	4	7	3	935035	6	4	4	1	0	590	1	4	0	128	75	0	0	100
fixed	4	7	4	936245	2	1	1	1	0	891	1	4	0	104	76	0	0	100
fixed	4	7	5	937923	5	3	3	1	0	844	1	4	0	120	77	0	0	100
fixed	4	7	6	939754	6	4	4	1	0	679	1	4	0	128	78	0	0	100
fixed	4	7	7	941448	3	1	1	1	0	911	1	4	0	104	79	0	0	100
fixed	4	7	8	942796	2	3	3	1	0	1374	1	4	0	120	80	0	0	100
fixed	4	7	9	944964	3	2	2	1	0	1010	1	4	0	112	81	0	0	100
fixed	4	7	10	946596	1	4	4	1	0	637	1	4	0	128	82	0	0	100
fixed	4	7	11	947567	5	2	2	1	0	900	1	4	0	112	83	0	0	100
fixed	4	7	12	949449	4	3	3	1	0	748	1	4	0	120	84	0	0	100
fixed	4	8	1	950773	4	1	1	1	0	908	1	4	0	104	85	0	0	100
fixed	4	8	2	952686	1	2	2	1	0	1243	1	4	0	112	86	0	0	100
fixed	4	8	3	954918	6	4	4	1	0	772	1	4	0	128	87	0	0	100
fixed	4	8	4	956456	2	1	1	1	0	899	1	4	0	104	88	0	0	100
fixed	4	8	5	957699	5	3	3	1	0	791	1	4	0	120	89	0	0	100
fixed	4	8	6	958964	6	4	4	1	0	681	1	4	0	128	90	0	0	100
fixed	4	8	7	960389	3	1	1	1	0	973	1	4	0	104	91	0	0	100
fixed	4	8	8	962007	2	3	3	1	0	832	1	4	0	120	92	0	0	100
fixed	4	8	9	963569	3	2	2	1	0	1086	1	4	0	112	93	0	0	100
fixed	4	8	10	965612	1	4	4	1	0	519	1	4	0	128	94	0	0	100
fixed	4	8	11	967113	5	2	2	1	0	976	1	4	0	112	95	0	0	100
fixed	4	8	12	968577	4	3	3	1	0	674	1	4	0	120	96	0	0	100
fixed	4	9	1	970154	4	1	1	1	0	815	1	4	0	104	97	0	0	100
fixed	4	9	2	971918	1	2	2	1	0	1004	1	4	0	112	98	0	0	100
fixed	4	9	3	973231	6	4	4	1	0	701	1	4	0	128	99	0	0	100
fixed	4	9	4	974674	2	1	1	1	0	936	1	4	0	104	100	0	0	100
fixed	4	9	5	976290	5	3	3	1	0	715	1	4	0	120	101	0	0	100
fixed	4	9	6	977568	6	4	4	1	0	749	1	4	0	128	102	0	0	100
fixed	4	9	7	978937	3	1	1	1	0	1011	1	4	0	104	103	0	0	100
fixed	4	9	8	980333	2	3	3	1	0	912	1	4	0	120	104	0	0	100
fixed	4	9	9	982129	3	2	2	1	0	740	1	4	0	112	105	0	0	100
fixed	4	9	10	983667	1	4	4	1	0	682	1	4	0	128	106	0	0	100
fixed	4	9	11	984735	5	2	2	1	0	878	1	4	0	112	107	0	0	100
fixed	4	9	12	986142	4	3	3	1	0	730	1	4	0	120	108	0	0	100
fixed	4	10	1	987947	4	1	1	1	0	933	1	4	0	104	109	0	0	100
fixed	4	10	2	989428	1	2	2	1	0	1039	1	4	0	112	110	0	0	100
fixed	4	10	3	991458	6	4	4	1	0	681	1	4	0	128	111	0	0	100
fixed	4	10	4	992634	2	1	1	1	0	1023	1	4	0	104	112	0	0	100
fixed	4	10	5	994029	5	3	3	1	0	820	1	4	0	120	113	0	0	100
fixed	4	10	6	995220	6	4	4	1	0	777	1	4	0	128	114	0	0	100
fixed	4	10	7	996971	3	1	1	1	0	1007	1	4	0	104	115	0	0	100
fixed	4	10	8	998467	2	3	3	1	0	1376	1	4	0	120	116	0	0	100
fixed	4	10	9	1000285	3	2	2	1	0	643	1	4	0	112	117	0	0	100
fixed	4	10	10	1001423	1	4	4	1	0	675	1	4	0	128	118	0	0	100
fixed	4	10	11	1002993	5	2	2	1	0	1032	1	4	0	112	119	0	0	100
fixed	4	10	12	1004936	4	3	3	1	0	1125	1	4	0	120	120	0	0	100
fixed	5	1	1	1007626	4	1	1	1	0	764	1	4	0	136	1	0	0	100
fixed	5	1	2	1008891	1	2	2	1	0	1094	1	4	0	144	2	0	0	100
fixed	5	1	3	1010963	6	4	4	1	0	767	1	4	0	160	3	0	0	100
fixed	5	1	4	1012107	2	1	1	2	0	1654	2	4	0	136	4	0	0	100
fixed	5	1	5	1014457	5	3	3	1	0	835	1	4	0	152	5	0	0	100
fixed	5	1	6	1015893	6	4	4	1	0	726	1	4	0	160	6	0	0	100
fixed	5	1	7	1017169	3	1	1	1	0	983	1	4	0	136	7	0	0	100
fixed	5	1	8	1018597	2	3	3	1	0	795	1	4	0	152	8	0	0	100
fixed	5	1	9	1020168	3	2	2	1	0	817	1	4	0	144	9	0	0	100
fixed	5	1	10	1021912	1	4	4	1	0	422	1	4	0	160	10	0	0	100
fixed	5	1	11	1022826	5	2	2	1	0	968	1	4	0	144	11	0	0	100
fixed	5	1	12	1024284	4	3	3	1	0	738	1	4	0	152	12	0	0	100
fixed	5	2	1	1026291	4	1	1	1	0	1029	1	4	0	136	13	0	0	100
fixed	5	2	2	1028143	1	2	2	1	0	863	1	4	0	144	14	0	0	100
fixed	5	2	3	1029975	6	4	4	1	0	705	1	4	0	160	15	0	0	100
fixed	5	2	4	1031007	2	1	1	1	0	982	1	4	0	136	16	0	0	100
fixed	5	2	5	1032410	5	3	3	1	0	1162	1	4	0	152	17	0	0	100
fixed	5	2	6	1034427	6	4	4	1	0	724	1	4	0	160	18	0	0	100
fixed	5	2	7	1035990	3	1	1	1	0	883	1	4	0	136	19	0	0	100
fixed	5	2	8	1037789	2	3	3	1	0	1438	1	4	0	152	20	0	0	100
fixed	5	2	9	1039753	3	2	2	1	0	723	1	4	0	144	21	0	0	100
fixed	5	2	10	1041484	1	4	4	1	0	514	1	4	0	160	22	0	0	100
fixed	5	2	11	1042409	5	2	2	1	0	947	1	4	0	144	23	0	0	100
fixed	5	2	12	1044219	4	3	3	1	0	958	1	4	0	152	24	0	0	100
fixed	5	3	1	1045806	4	1	1	1	0	883	1	4	0	136	25	0	0	100
fixed	5	3	2	1047643	1	2	2	1	0	941	1	4	0	144	26	0	0	100
fixed	5	3	3	1048968	6	4	4	1	0	781	1	4	0	160	27	0	0	100
fixed	5	3	4	1050333	2	1	1	1	0	1011	1	4	0	136	28	0	0	100
fixed	5	3	5	1052384	5	3	3	1	0	820	1	4	0	152	29	0	0	100
fixed	5	3	6	1053772	6	4	4	1	0	770	1	4	0	160	30	0	0	100
fixed	5	3	7	1055163	3	1	1	1	0	1102	1	4	0	136	31	0	0	100
fixed	5	3	8	1056946	2	3	3	1	0	963	1	4	0	152	32	0	0	100
fixed	5	3	9	1058194	3	2	2	1	0	702	1	4	0	144	33	0	0	100
fixed	5	3	10	1059813	1	4	4	1	0	714	1	4	0	160	34	0	0	100
fixed	5	3	11	1061497	5	2	2	1	0	898	1	4	0	144	35	0	0	100
fixed	5	3	12	1063217	4	3	3	1	0	953	1	4	0	152	36	0	0	100
fixed	5	4	1	1065203	4	1	1	1	0	789	1	4	0	136	37	0	0	100
fixed	5	4	2	1066543	1	2	2	1	0	1060	1	4	0	144	38	0	0	100
fixed	5	4	3	1068241	6	4	4	1	0	708	1	4	0	160	39	0	0	100
fixed	5	4	4	1069289	2	1	1	1	0	1168	1	4	0	136	40	0	0	100
fixed	5	4	5	1071320	5	3	3	1	0	922	1	4	0	152	41	0	0	100
fixed	5	4	6	1072754	6	4	4	1	0	741	1	4	0	160	42	0	0	100
fixed	5	4	7	1073848	3	1	1	1	0	1047	1	4	0	136	43	0	0	100
fixed	5	4	8	1075278	2	3	3	1	0	1090	1	4	0	152	44	0	0	100
fixed	5	4	9	1076965	3	2	2	1	0	747	1	4	0	144	45	0	0	100
fixed	5	4	10	1078125	1	4	4	1	0	690	1	4	0	160	46	0	0	100
fixed	5	4	11	1079814	5	2	2	1	0	1642	1	4	0	144	47	0	0	100
fixed	5	4	12	1082444	4	3	3	1	0	787	1	4	0	152	48	0	0	100
fixed	5	5	1	1084033	4	1	1	1	0	855	1	4	0	136	49	0	0	100
fixed	5	5	2	1085725	1	2	2	1	0	1112	1	4	0	144	50	0	0	100
fixed	5	5	3	1087248	6	4	4	1	0	704	1	4	0	160	51	0	0	100
fixed	5	5	4	1088667	2	1	1	1	0	1036	1	4	0	136	52	0	0	100
fixed	5	5	5	1090447	5	3	3	1	0	752	1	4	0	152	53	0	0	100
fixed	5	5	6	1092213	6	4	4	1	0	709	1	4	0	160	54	0	0	100
fixed	5	5	7	1093300	3	1	1	1	0	959	1	4	0	136	55	0	0	100
fixed	5	5	8	1094571	2	3	3	1	0	858	1	4	0	152	56	0	0	100
fixed	5	5	9	1095774	3	2	2	1	0	839	1	4	0	144	57	0	0	100
fixed	5	5	10	1097585	1	4	4	1	0	538	1	4	0	160	58	0	0	100
fixed	5	5	11	1098954	5	2	2	1	0	1312	1	4	0	144	59	0	0	100
fixed	5	5	12	1100628	4	3	3	1	0	785	1	4	0	152	60	0	0	100
fixed	5	6	1	1102027	4	1	1	1	0	869	1	4	0	136	61	0	0	100
fixed	5	6	2	1103781	1	2	2	1	0	963	1	4	0	144	62	0	0	100
fixed	5	6	3	1105662	6	4	4	1	0	708	1	4	0	160	63	0	0	100
fixed	5	6	4	1107184	2	1	1	1	0	1275	1	4	0	136	64	0	0	100
fixed	5	6	5	1108938	5	3	3	1	0	745	1	4	0	152	65	0	0	100
fixed	5	6	6	1110091	6	4	4	1	0	760	1	4	0	160	66	0	0	100
fixed	5	6	7	1111139	3	1	1	1	0	1540	1	4	0	136	67	0	0	100
fixed	5	6	8	1113354	2	3	3	1	0	886	1	4	0	152	68	0	0	100
fixed	5	6	9	1114996	3	2	2	1	0	768	1	4	0	144	69	0	0	100
fixed	5	6	10	1116334	1	4	4	1	0	672	1	4	0	160	70	0	0	100
fixed	5	6	11	1117502	5	2	2	1	0	846	1	4	0	144	71	0	0	100
fixed	5	6	12	1119090	4	3	3	1	0	987	1	4	0	152	72	0	0	100
fixed	5	7	1	1121090	4	1	1	1	0	766	1	4	0	136	73	0	0	100
fixed	5	7	2	1122315	1	2	2	1	0	1266	1	4	0	144	74	0	0	100
fixed	5	7	3	1124388	6	4	4	1	0	682	1	4	0	160	75	0	0	100
fixed	5	7	4	1125784	2	1	1	1	0	935	1	4	0	136	76	0	0	100
fixed	5	7	5	1127677	5	3	3	1	0	783	1	4	0	152	77	0	0	100
fixed	5	7	6	1128849	6	4	4	1	0	742	1	4	0	160	78	0	0	100
fixed	5	7	7	1130478	3	1	1	1	0	1056	1	4	0	136	79	0	0	100
fixed	5	7	8	1131860	2	3	3	1	0	830	1	4	0	152	80	0	0	100
fixed	5	7	9	1133087	3	2	2	1	0	818	1	4	0	144	81	0	0	100
fixed	5	7	10	1134584	1	4	4	1	0	731	1	4	0	160	82	0	0	100
fixed	5	7	11	1135675	5	2	2	1	0	940	1	4	0	144	83	0	0	100
fixed	5	7	12	1137170	4	3	3	1	0	821	1	4	0	152	84	0	0	100
fixed	5	8	1	1138583	4	1	1	1	0	1473	1	4	0	136	85	0	0	100
fixed	5	8	2	1140447	1	2	2	1	0	2363	1	4	0	144	86	0	0	100
fixed	5	8	3	1143616	6	4	4	1	0	604	1	4	0	160	87	0	0	100
fixed	5	8	4	1145014	2	1	1	1	0	1105	1	4	0	136	88	0	0	100
fixed	5	8	5	1147067	5	3	3	1	0	922	1	4	0	152	89	0	0	100
fixed	5	8	6	1148850	6	4	4	1	0	702	1	4	0	160	90	0	0	100
fixed	5	8	7	1150506	3	1	1	1	0	1008	1	4	0	136	91	0	0	100
fixed	5	8	8	1152442	2	3	3	1	0	1022	1	4	0	152	92	0	0	100
fixed	5	8	9	1153829	3	2	2	1	0	748	1	4	0	144	93	0	0	100
fixed	5	8	10	1155186	1	4	4	1	0	634	1	4	0	160	94	0	0	100
fixed	5	8	11	1156368	5	2	2	1	0	720	1	4	0	144	95	0	0	100
fixed	5	8	12	1157409	4	3	3	1	0	820	1	4	0	152	96	0	0	100
fixed	5	9	1	1158883	4	1	1	1	0	797	1	4	0	136	97	0	0	100
fixed	5	9	2	1160295	1	2	2	1	0	978	1	4	0	144	98	0	0	100
fixed	5	9	3	1162197	6	4	4	1	0	641	1	4	0	160	99	0	0	100
fixed	5	9	4	1163668	2	1	1	1	0	1051	1	4	0	136	100	0	0	100
fixed	5	9	5	1165569	5	3	3	1	0	810	1	4	0	152	101	0	0	100
fixed	5	9	6	1167028	6	4	4	1	0	797	1	4	0	160	102	0	0	100
fixed	5	9	7	1168108	3	1	1	1	0	1271	1	4	0	136	103	0	0	100
fixed	5	9	8	1169768	2	3	3	1	0	968	1	4	0	152	104	0	0	100
fixed	5	9	9	1171184	3	2	2	1	0	836	1	4	0	144	105	0	0	100
fixed	5	9	10	1173001	1	4	4	1	0	655	1	4	0	160	106	0	0	100
fixed	5	9	11	1174228	5	2	2	1	0	1092	1	4	0	144	107	0	0	100
fixed	5	9	12	1175745	4	3	3	1	0	827	1	4	0	152	108	0	0	100
fixed	5	10	1	1177512	4	1	1	1	0	896	1	4	0	136	109	0	0	100
fixed	5	10	2	1179046	1	2	2	1	0	1359	1	4	0	144	110	0	0	100
fixed	5	10	3	1181198	6	4	4	1	0	693	1	4	0	160	111	0	0	100
fixed	5	10	4	1182560	2	1	1	1	0	907	1	4	0	136	112	0	0	100
fixed	5	10	5	1184243	5	3	3	1	0	779	1	4	0	152	113	0	0	100
fixed	5	10	6	1185676	6	4	4	1	0	679	1	4	0	160	114	0	0	100
fixed	5	10	7	1186925	3	1	1	1	0	938	1	4	0	136	115	0	0	100
fixed	5	10	8	1188399	2	3	3	1	0	1171	1	4	0	152	116	0	0	100
fixed	5	10	9	1190384	3	2	2	2	0	1167	2	4	0	144	117	0	0	100
fixed	5	10	10	1192250	1	4	4	1	0	696	1	4	0	160	118	0	0	100
fixed	5	10	11	1193630	5	2	2	1	0	1006	1	4	0	144	119	0	0	100
fixed	5	10	12	1195039	4	3	3	1	0	834	1	4	0	152	120	0	0	100
random	6	1	1	1337786	6	1	1	1	0	1284	1	4	0	168	1	0	0	100
random	6	1	2	1339903	4	4	4	1	0	707	1	4	0	192	2	0	0	100
random	6	1	3	1341287	2	2	2	1	0	808	1	4	0	176	3	0	0	100
random	6	1	4	1342998	3	3	3	1	0	631	1	4	0	184	4	0	0	100
random	6	1	5	1344342	5	2	2	1	0	846	1	4	0	176	5	0	0	100
random	6	1	6	1346080	1	4	4	1	0	701	1	4	0	192	6	0	0	100
random	6	1	7	1347295	6	1	1	1	0	961	1	4	0	168	7	0	0	100
random	6	1	8	1348589	2	3	3	1	0	755	1	4	0	184	8	0	0	100
random	6	1	9	1350367	4	2	2	1	0	519	1	4	0	176	9	0	0	100
random	6	1	10	1351443	1	1	1	1	0	930	1	4	0	168	10	0	0	100
random	6	1	11	1353198	5	4	4	1	0	687	1	4	0	192	11	0	0	100
random	6	1	12	1354704	3	3	3	1	0	1064	1	4	0	184	12	0	0	100
random	6	1	13	1356568	5	2	2	1	0	824	1	4	0	176	13	0	0	100
random	6	1	14	1358167	1	4	4	1	0	621	1	4	0	192	14	0	0	100
random	6	1	15	1359394	3	1	1	1	0	945	1	4	0	168	15	0	0	100
random	6	1	16	1360746	4	3	3	1	0	815	1	4	0	184	16	0	0	100
random	6	1	17	1362380	6	4	4	1	0	610	1	4	0	192	17	0	0	100
random	6	1	18	1363913	2	1	1	1	0	1250	1	4	0	168	18	0	0	100
random	6	1	19	1365972	5	3	3	1	0	834	1	4	0	184	19	0	0	100
random	6	1	20	1367543	2	2	2	1	0	663	1	4	0	176	20	0	0	100
random	6	1	21	1368717	3	3	3	1	0	950	1	4	0	184	21	0	0	100
random	6	1	22	1370685	6	1	1	1	0	906	1	4	0	168	22	0	0	100
random	6	1	23	1372520	4	2	2	1	0	957	1	4	0	176	23	0	0	100
random	6	1	24	1373927	1	4	4	1	0	673	1	4	0	192	24	0	0	100
random	6	1	25	1375765	4	3	3	1	0	1371	1	4	0	184	25	0	0	100
random	6	1	26	1377492	2	1	1	1	0	970	1	4	0	168	26	0	0	100
random	6	1	27	1378788	5	2	2	1	0	1107	1	4	0	176	27	0	0	100
random	6	1	28	1380834	6	4	4	1	0	461	1	4	0	192	28	0	0	100
random	6	1	29	1381990	1	3	3	1	0	1164	1	4	0	184	29	0	0	100
random	6	1	30	1383951	5	2	2	1	0	857	1	4	0	176	30	0	0	100
random	6	1	31	1385113	2	1	1	1	0	880	1	4	0	168	31	0	0	100
random	6	1	32	1386709	3	3	3	1	0	916	1	4	0	184	32	0	0	100
random	6	1	33	1388412	6	4	4	1	0	508	1	4	0	192	33	0	0	100
random	6	1	34	1389324	4	2	2	1	0	877	1	4	0	176	34	0	0	100
random	6	1	35	1390953	3	4	4	1	0	704	1	4	0	192	35	0	0	100
random	6	1	36	1392445	1	1	1	1	0	913	1	4	0	168	36	0	0	100
random	6	1	37	1393993	3	4	4	1	0	847	1	4	0	192	37	0	0	100
random	6	1	38	1395213	5	3	3	1	0	1180	1	4	0	184	38	0	0	100
random	6	1	39	1397086	6	1	1	1	0	964	1	4	0	168	39	0	0	100
random	6	1	40	1398360	1	2	2	1	0	839	1	4	0	176	40	0	0	100
random	6	1	41	1400202	2	3	3	1	0	689	1	4	0	184	41	0	0	100
random	6	1	42	1401364	4	4	4	1	0	623	1	4	0	192	42	0	0	100
random	6	1	43	1402529	1	2	2	1	0	998	1	4	0	176	43	0	0	100
random	6	1	44	1403959	6	3	3	1	0	705	1	4	0	184	44	0	0	100
random	6	1	45	1405350	3	1	1	1	0	1071	1	4	0	168	45	0	0	100
random	6	1	46	1407412	4	4	4	1	0	519	1	4	0	192	46	0	0	100
random	6	1	47	1408357	2	2	2	1	0	1223	1	4	0	176	47	0	0	100
random	6	1	48	1409915	5	1	1	1	0	1109	1	4	0	168	48	0	0	100
random	6	1	49	1412171	2	3	3	1	0	797	1	4	0	184	49	0	0	100
random	6	1	50	1413711	3	1	0	0	2	0	3	4	0	168	49	0	1	98
random	6	1	51	1417175	1	4	4	1	0	762	1	4	0	192	50	0	1	98
random	6	1	52	1418758	5	3	3	1	0	798	1	4	0	184	51	0	1	98
random	6	1	53	1420542	3	2	2	1	0	763	1	4	0	176	52	0	1	98
random	6	1	54	1421859	6	4	4	1	0	603	1	4	0	192	53	0	1	98
random	6	1	55	1423293	4	2	2	1	0	1007	1	4	0	176	54	0	1	98
random	6	1	56	1425246	1	1	1	1	0	996	1	4	0	168	55	0	1	98
random	6	1	57	1426772	5	4	4	1	0	619	1	4	0	192	56	0	1	98
random	6	1	58	1427721	2	1	1	1	0	923	1	4	0	168	57	0	1	98
random	6	1	59	1429673	6	2	2	1	0	872	1	4	0	176	58	0	1	98
random	6	1	60	1430912	4	3	3	1	0	764	1	4	0	184	59	0	1	98
random	6	1	61	1432421	1	2	2	1	0	1244	1	4	0	176	60	0	1	98
random	6	1	62	1434512	6	4	4	1	0	651	1	4	0	192	61	0	1	98
random	6	1	63	1435818	4	1	1	1	0	948	1	4	0	168	62	0	1	98
random	6	1	64	1437727	2	2	2	1	0	1307	1	4	0	176	63	0	1	98
random	6	1	65	1439865	4	3	3	1	0	649	1	4	0	184	64	0	1	98
random	6	1	66	1441129	3	1	1	1	0	1043	1	4	0	168	65	0	1	98
random	6	1	67	1443128	1	3	3	1	0	1342	1	4	0	184	66	0	1	99
random	6	1	68	1444808	5	4	4	1	0	823	1	4	0	192	67	0	1	99
random	6	1	69	1446333	2	2	2	1	0	855	1	4	0	176	68	0	1	99
random	6	1	70	1447661	3	1	1	1	0	918	1	4	0	168	69	0	1	99
random	6	1	71	1448924	5	4	4	1	0	777	1	4	0	192	70	0	1	99
random	6	1	72	1450218	6	3	3	1	0	954	1	4	0	184	71	0	1	99
random	6	1	73	1452136	2	1	1	1	0	1137	1	4	0	168	72	0	1	99
random	6	1	74	1453640	5	3	3	1	0	673	1	4	0	184	73	0	1	99
random	6	1	75	1454763	1	4	4	1	0	698	1	4	0	192	74	0	1	99
random	6	1	76	1456291	6	2	2	1	0	833	1	4	0	176	75	0	1	99
random	6	1	77	1457563	2	1	1	1	0	1235	1	4	0	168	76	0	1	99
random	6	1	78	1459148	4	4	4	1	0	768	1	4	0	192	77	0	1	99
random	6	1	79	1460357	3	2	2	1	0	1052	1	4	0	176	78	0	1	99
random	6	1	80	1462340	4	3	3	1	0	985	1	4	0	184	79	0	1	99
random	6	1	81	1463696	1	4	4	1	0	735	1	4	0	192	80	0	1	99
random	6	1	82	1465431	5	1	1	1	0	966	1	4	0	168	81	0	1	99
random	6	1	83	1466867	3	2	2	1	0	1033	1	4	0	176	82	0	1	99
random	6	1	84	1468516	6	3	3	1	0	699	1	4	0	184	83	0	1	99
random	6	1	85	1470297	3	2	2	1	0	1351	1	4	0	176	84	0	1	99
random	6	1	86	1471943	1	3	3	1	0	866	1	4	0	184	85	0	1	99
random	6	1	87	1473623	4	4	4	1	0	683	1	4	0	192	86	0	1	99
random	6	1	88	1474840	2	1	1	1	0	831	1	4	0	168	87	0	1	99
random	6	1	89	1475977	6	4	4	1	0	1079	1	4	0	192	88	0	1	99
random	6	1	90	1477386	3	3	3	1	0	1307	1	4	0	184	89	0	1	99
random	6	1	91	1479116	5	4	4	1	0	802	1	4	0	192	90	0	1	99
random	6	1	92	1480604	1	2	2	1	0	939	1	4	0	176	91	0	1	99
random	6	1	93	1482191	5	1	1	1	0	1000	1	4	0	168	92	0	1	99
random	6	1	94	1484076	4	3	3	1	0	864	1	4	0	184	93	0	1	99
random	6	1	95	1485391	6	1	1	1	0	1088	1	4	0	168	94	0	1	99
random	6	1	96	1487465	2	2	2	1	0	945	1	4	0	176	95	0	1	99
random	6	1	97	1489694	4	3	3	1	0	938	1	4	0	184	96	0	1	99
random	6	1	98	1491322	3	2	2	1	0	1053	1	4	0	176	97	0	1	99
random	6	1	99	1493044	6	3	3	1	0	780	1	4	0	184	98	0	1	99
random	6	1	100	1494113	1	4	4	1	0	903	1	4	0	192	99	0	1	99
random	6	1	101	1495502	4	1	1	1	0	1324	1	4	0	168	100	0	1	99
random	6	1	102	1497293	5	2	2	2	0	1561	2	4	0	176	101	0	1	99
random	6	1	103	1499462	2	4	4	1	0	829	1	4	0	192	102	0	1	99
random	6	1	104	1501277	3	1	1	1	0	967	1	4	0	168	103	0	1	99
random	6	1	105	1502964	1	3	3	1	0	928	1	4	0	184	104	0	1	99
random	6	1	106	1504830	2	2	2	1	0	929	1	4	0	176	105	0	1	99
random	6	1	107	1506167	5	4	4	1	0	640	1	4	0	192	106	0	1	99
random	6	1	108	1507771	6	1	1	1	0	924	1	4	0	168	107	0	1	99
random	6	1	109	1509861	5	4	4	1	0	708	1	4	0	192	108	0	1	99
random	6	1	110	1511094	6	3	3	1	0	911	1	4	0	184	109	0	1	99
random	6	1	111	1512533	2	2	2	1	0	730	1	4	0	176	110	0	1	99
random	6	1	112	1513699	3	1	1	1	0	1058	1	4	0	168	111	0	1	99
random	6	1	113	1515312	1	2	2	1	0	1117	1	4	0	176	112	0	1	99
random	6	1	114	1517206	2	3	3	1	0	677	1	4	0	184	113	0	1	99
random	6	1	115	1518579	3	1	1	1	0	1978	1	4	0	168	114	0	1	99
random	6	1	116	1521538	4	4	4	1	0	789	1	4	0	192	115	0	1	99
random	6	1	117	1522971	6	1	1	1	0	1297	1	4	0	168	116	0	1	99
random	6	1	118	1524825	5	3	3	1	0	778	1	4	0	184	117	0	1	99
random	6	1	119	1526539	1	4	4	1	0	681	1	4	0	192	118	0	1	99
random	6	1	120	1527928	4	2	2	1	0	679	1	4	0	176	119	0	1	99
fixed	7	1	1	1530075	4	1	1	1	0	963	1	4	0	200	1	0	0	100
fixed	7	1	2	1531746	1	2	2	1	0	1093	1	4	0	208	2	0	0	100
fixed	7	1	3	1533818	6	4	4	1	0	725	1	4	0	224	3	0	0	100
fixed	7	1	4	1534860	2	1	1	2	0	2385	2	4	0	200	4	0	0	100
fixed	7	1	5	1538169	5	3	3	1	0	837	1	4	0	216	5	0	0	100
fixed	7	1	6	1539488	6	4	4	1	0	797	1	4	0	224	6	0	0	100
fixed	7	1	7	1540799	3	1	1	1	0	1038	1	4	0	200	7	0	0	100
fixed	7	1	8	1542626	2	3	3	1	0	896	1	4	0	216	8	0	0	100
fixed	7	1	9	1544543	3	2	2	1	0	847	1	4	0	208	9	0	0	100
fixed	7	1	10	1545884	1	4	4	1	0	630	1	4	0	224	10	0	0	100
fixed	7	1	11	1547447	5	2	2	1	0	1116	1	4	0	208	11	0	0	100
fixed	7	1	12	1549041	4	3	3	1	0	624	1	4	0	216	12	0	0	100
fixed	7	2	1	1550845	4	1	1	1	0	988	1	4	0	200	1	0	0	8
fixed	7	2	2	1552574	1	2	2	1	0	963	1	4	0	208	2	0	0	14
fixed	7	2	3	1554464	6	4	4	1	0	731	1	4	0	224	3	0	0	20
fixed	7	2	4	1556206	2	1	1	1	0	1017	1	4	0	200	4	0	0	25
fixed	7	2	5	1557870	5	3	3	1	0	867	1	4	0	216	5	0	0	29
fixed	7	2	6	1559043	6	4	4	1	0	785	1	4	0	224	6	0	0	33
fixed	7	2	7	1560677	3	1	1	1	0	940	1	4	0	200	7	0	0	37
fixed	7	2	8	1562396	2	3	3	1	0	891	1	4	0	216	8	0	0	40
fixed	7	2	9	1564288	3	2	2	1	0	851	1	4	0	208	9	0	0	43
fixed	7	2	10	1566118	1	4	4	1	0	901	1	4	0	224	10	0	0	45
fixed	7	2	11	1567947	5	2	2	1	0	832	1	4	0	208	11	0	0	48
fixed	7	2	12	1569495	4	3	3	1	0	790	1	4	0	216	12	0	0	50
fixed	7	3	1	1571161	4	1	1	1	0	1015	1	4	0	200	1	0	0	4
fixed	7	3	2	1573123	1	2	2	1	0	941	1	4	0	208	2	0	0	8
fixed	7	3	3	1574972	6	4	4	1	0	894	1	4	0	224	3	0	0	11
fixed	7	3	4	1576695	2	1	1	1	0	853	1	4	0	200	4	0	0	14
fixed	7	3	5	1578370	5	3	3	1	0	702	1	4	0	216	5	0	0	17
fixed	7	3	6	1579766	6	4	4	1	0	675	1	4	0	224	6	0	0	20
fixed	7	3	7	1581023	3	1	1	1	0	854	1	4	0	200	7	0	0	23
fixed	7	3	8	1582450	2	3	3	1	0	730	1	4	0	216	8	0	0	25
fixed	7	3	9	1584167	3	2	2	1	0	969	1	4	0	208	9	0	0	27
fixed	7	3	10	1585648	1	4	4	1	0	522	1	4	0	224	10	0	0	29
fixed	7	3	11	1586957	5	2	2	1	0	795	1	4	0	208	11	0	0	31
fixed	7	3	12	1588678	4	3	3	1	0	714	1	4	0	216	12	0	0	33
fixed	7	4	1	1589974	4	1	1	1	0	795	1	4	0	200	1	0	0	3
fixed	7	4	2	1591293	1	2	2	1	0	1123	1	4	0	208	2	0	0	5
fixed	7	4	3	1593070	6	4	4	1	0	672	1	4	0	224	3	0	0	8
fixed	7	4	4	1594752	2	1	1	1	0	856	1	4	0	200	4	0	0	10
fixed	7	4	5	1596213	5	3	3	1	0	627	1	4	0	216	5	0	0	12
fixed	7	4	6	1597399	6	4	4	1	0	672	1	4	0	224	6	0	0	14
fixed	7	4	7	1598894	3	1	1	1	0	1457	1	4	0	200	7	0	0	16
fixed	7	4	8	1600847	2	3	3	1	0	743	1	4	0	216	8	0	0	18
fixed	7	4	9	1602173	3	2	2	1	0	742	1	4	0	208	9	0	0	20
fixed	7	4	10	1603525	1	4	4	1	0	621	1	4	0	224	10	0	0	22
fixed	7	4	11	1604462	5	2	2	1	0	877	1	4	0	208	11	0	0	23
fixed	7	4	12	1606165	4	3	3	1	0	901	1	4	0	216	12	0	0	25
fixed	7	5	1	1607617	4	1	1	1	0	1167	1	4	0	200	1	0	0	2
fixed	7	5	2	1609447	1	2	2	1	0	1218	1	4	0	208	2	0	0	4
fixed	7	5	3	1611542	6	4	4	1	0	641	1	4	0	224	3	0	0	6
fixed	7	5	4	1612549	2	1	1	1	0	1126	1	4	0	200	4	0	0	8
fixed	7	5	5	1614106	5	3	3	1	0	813	1	4	0	216	5	0	0	9
fixed	7	5	6	1615691	6	4	4	1	0	721	1	4	0	224	6	0	0	11
fixed	7	5	7	1617228	3	1	1	1	0	1328	1	4	0	200	7	0	0	13
fixed	7	5	8	1619061	2	3	3	1	0	1010	1	4	0	216	8	0	0	14
fixed	7	5	9	1620933	3	2	2	1	0	811	1	4	0	208	9	0	0	16
fixed	7	5	10	1622688	1	4	4	1	0	793	1	4	0	224	10	0	0	17
fixed	7	5	11	1624173	5	2	2	1	0	722	1	4	0	208	11	0	0	19
fixed	7	5	12	1625412	4	3	0	2	2	0	3	4	0	216	11	0	1	18
fixed	7	6	1	1628669	4	1	1	1	0	1044	1	4	0	200	1	0	0	2
fixed	7	6	2	1630169	1	2	2	1	0	981	1	4	0	208	2	0	0	3
fixed	7	6	3	1631463	6	4	4	1	0	669	1	4	0	224	3	0	0	5
fixed	7	6	4	1632844	2	1	1	1	0	955	1	4	0	200	4	0	0	6
fixed	7	6	5	1634163	5	3	3	1	0	819	1	4	0	216	5	0	0	8
fixed	7	6	6	1635563	6	4	4	1	0	696	1	4	0	224	6	0	0	9
fixed	7	6	7	1637093	3	1	1	1	0	943	1	4	0	200	7	0	0	10
fixed	7	6	8	1638861	2	3	3	1	0	844	1	4	0	216	8	0	0	12
fixed	7	6	9	1640017	3	2	2	1	0	923	1	4	0	208	9	0	0	13
fixed	7	6	10	1641859	1	4	4	1	0	349	1	4	0	224	10	0	0	14
fixed	7	6	11	1643112	5	2	2	1	0	936	1	4	0	208	11	0	0	15
fixed	7	6	12	1644347	4	3	3	1	0	756	1	4	0	216	12	0	0	17
fixed	7	7	1	1645827	4	1	1	1	0	957	1	4	0	200	1	0	0	1
fixed	7	7	2	1647435	1	2	2	1	0	1193	1	4	0	208	2	0	0	3
fixed	7	7	3	1649522	6	4	4	1	0	672	1	4	0	224	3	0	0	4
fixed	7	7	4	1650698	2	1	1	1	0	1047	1	4	0	200	4	0	0	5
fixed	7	7	5	1652445	5	3	3	1	0	845	1	4	0	216	5	0	0	6
fixed	7	7	6	1653959	6	4	4	1	0	781	1	4	0	224	6	0	0	8
fixed	7	7	7	1655300	3	1	1	1	0	1028	1	4	0	200	7	0	0	9
fixed	7	7	8	1657325	2	3	3	1	0	902	1	4	0	216	8	0	0	10
fixed	7	7	9	1659066	3	2	2	1	0	836	1	4	0	208	9	0	0	11
fixed	7	7	10	1660647	1	4	4	1	0	761	1	4	0	224	10	0	0	12
fixed	7	7	11	1661778	5	2	2	1	0	986	1	4	0	208	11	0	0	13
fixed	7	7	12	1663070	4	3	3	1	0	827	1	4	0	216	12	0	0	14
fixed	7	8	1	1665108	4	1	1	1	0	908	1	4	0	200	1	0	0	1
fixed	7	8	2	1666753	1	2	2	1	0	1167	1	4	0	208	2	0	0	2
fixed	7	8	3	1668885	6	4	4	1	0	740	1	4	0	224	3	0	0	3
fixed	7	8	4	1669978	2	1	1	1	0	1406	1	4	0	200	4	0	0	5
fixed	7	8	5	1672295	5	3	3	1	0	908	1	4	0	216	5	0	0	6
fixed	7	8	6	1673557	6	4	4	1	0	935	1	4	0	224	6	0	0	7
fixed	7	8	7	1675127	3	1	1	1	0	1876	1	4	0	200	7	0	0	8
fixed	7	8	8	1677887	2	3	3	1	0	831	1	4	0	216	8	0	0	9
fixed	7	8	9	1679455	3	2	2	1	0	925	1	4	0	208	9	0	0	10
fixed	7	8	10	1681029	1	4	4	1	0	490	1	4	0	224	10	0	0	11
fixed	7	8	11	1682356	5	2	2	1	0	1186	1	4	0	208	11	0	0	12
fixed	7	8	12	1684542	4	3	3	1	0	877	1	4	0	216	12	0	0	13
fixed	7	9	1	1686427	4	1	1	1	0	933	1	4	0	200	1	0	0	1
fixed	7	9	2	1688351	1	2	2	1	0	892	1	4	0	208	2	0	0	2
fixed	7	9	3	1689892	6	4	4	1	0	627	1	4	0	224	3	0	0	3
fixed	7	9	4	1691142	2	1	1	1	0	918	1	4	0	200	4	0	0	4
fixed	7	9	5	1692537	5	3	3	1	0	651	1	4	0	216	5	0	0	5
fixed	7	9	6	1694058	6	4	4	1	0	699	1	4	0	224	6	0	0	6
fixed	7	9	7	1695224	3	1	1	1	0	1169	1	4	0	200	7	0	0	7
fixed	7	9	8	1696968	2	3	3	1	0	807	1	4	0	216	8	0	0	8
fixed	7	9	9	1698331	3	2	2	1	0	773	1	4	0	208	9	0	0	9
fixed	7	9	10	1699861	1	4	4	1	0	596	1	4	0	224	10	0	0	9
fixed	7	9	11	1701037	5	2	2	1	0	995	1	4	0	208	11	0	0	10
fixed	7	9	12	1702499	4	3	3	1	0	1116	1	4	0	216	12	0	0	11
fixed	7	10	1	1704522	4	1	1	1	0	799	1	4	0	200	1	0	0	1
fixed	7	10	2	1705825	1	2	2	1	0	1168	1	4	0	208	2	0	0	2
fixed	7	10	3	1707706	6	4	4	1	0	616	1	4	0	224	3	0	0	3
fixed	7	10	4	1709204	2	1	1	1	0	865	1	4	0	200	4	0	0	4
fixed	7	10	5	1710888	5	3	3	1	0	1153	1	4	0	216	5	0	0	4
fixed	7	10	6	1712347	6	4	4	1	0	868	1	4	0	224	6	0	0	5
fixed	7	10	7	1713546	3	1	1	1	0	1137	1	4	0	200	7	0	0	6
fixed	7	10	8	1715060	2	3	3	1	0	1065	1	4	0	216	8	0	0	7
fixed	7	10	9	1716413	3	2	2	1	0	1000	1	4	0	208	9	0	0	8
fixed	7	10	10	1717796	1	4	4	1	0	717	1	4	0	224	10	0	0	8
fixed	7	10	11	1718959	5	2	2	1	0	1003	1	4	0	208	11	0	0	9
fixed	7	10	12	1720901	4	3	3	1	0	849	1	4	0	216	12	0	0	10
