type	block	sequ.	trial	time	Pos.	Color	Button	NumRsp	Resp_1	RT_1	R_Code	Resp_2	RT_2	Trigg.	n_hit	n_inc	n_miss	score_%

random	1	1	1	4915	6	1	1	1	0	1242	1	4	0	8	1	0	0	100
random	1	1	2	6872	4	4	4	1	0	864	1	4	0	32	2	0	0	100
random	1	1	3	8164	2	2	2	1	0	1121	1	4	0	16	3	0	0	100
random	1	1	4	9753	3	3	3	1	0	1582	1	4	0	24	4	0	0	100
random	1	1	5	12026	5	2	2	1	0	1414	1	4	0	16	5	0	0	100
random	1	1	6	14230	1	4	4	1	0	776	1	4	0	32	6	0	0	100
random	1	1	7	15439	6	1	1	1	0	1077	1	4	0	8	7	0	0	100
random	1	1	8	17143	2	3	0	0	2	0	3	4	0	24	7	0	1	88
random	1	1	9	20028	4	2	2	1	0	1923	1	4	0	16	8	0	1	89
random	1	1	10	22253	1	1	0	1	2	0	3	4	0	8	8	0	2	80
random	1	1	11	25301	5	4	4	1	0	843	1	4	0	32	9	0	2	82
random	1	1	12	26518	3	3	3	1	0	2135	1	4	0	24	10	0	2	83
random	1	1	13	29828	5	2	2	1	0	1739	1	4	0	16	11	0	2	85
random	1	1	14	32174	1	4	4	1	0	984	1	4	0	32	12	0	2	86
random	1	1	15	33496	3	1	1	1	0	1008	1	4	0	8	13	0	2	87
random	1	1	16	34842	4	3	3	1	0	1623	1	4	0	24	14	0	2	88
random	1	1	17	36773	6	4	4	1	0	998	1	4	0	32	15	0	2	88
random	1	1	18	38437	2	1	1	1	0	839	1	4	0	8	16	0	2	89
random	1	1	19	40191	5	3	3	1	0	1388	1	4	0	24	17	0	2	89
random	1	1	20	42309	2	2	2	1	0	923	1	4	0	16	18	0	2	90
random	1	1	21	43904	3	3	0	1	2	0	3	4	0	24	18	0	3	86
random	1	1	22	46889	6	1	1	1	0	953	1	4	0	8	19	0	3	86
random	1	1	23	48773	4	2	2	1	0	1057	1	4	0	16	20	0	3	87
random	1	1	24	50814	1	4	4	1	0	890	1	4	0	32	21	0	3	88
random	1	1	25	52484	4	3	3	1	0	1492	1	4	0	24	22	0	3	88
random	1	1	26	54886	2	1	1	1	0	1078	1	4	0	8	23	0	3	88
random	1	1	27	56354	5	2	2	1	0	1512	1	4	0	16	24	0	3	89
random	1	1	28	58707	6	4	4	1	0	836	1	4	0	32	25	0	3	89
random	1	1	29	60221	1	3	3	1	0	1596	1	4	0	24	26	0	3	90
random	1	1	30	62111	5	2	2	1	0	1284	1	4	0	16	27	0	3	90
random	1	1	31	63732	2	1	1	1	0	1015	1	4	0	8	28	0	3	90
random	1	1	32	65062	3	3	3	1	0	1375	1	4	0	24	29	0	3	91
random	1	1	33	67317	6	4	4	1	0	784	1	4	0	32	30	0	3	91
random	1	1	34	68647	4	2	0	1	2	0	3	4	0	16	30	0	4	88
random	1	1	35	71614	3	4	4	1	0	785	1	4	0	32	31	0	4	89
random	1	1	36	73142	1	1	1	1	0	929	1	4	0	8	32	0	4	89
random	1	1	37	75357	3	4	4	1	0	971	1	4	0	32	33	0	4	89
random	1	1	38	76817	5	3	3	1	0	1405	1	4	0	24	34	0	4	89
random	1	1	39	78779	6	1	1	1	0	771	1	4	0	8	35	0	4	90
random	1	1	40	79991	1	2	2	1	0	991	1	4	0	16	36	0	4	90
random	1	1	41	81705	2	3	3	1	0	1342	1	4	0	24	37	0	4	90
random	1	1	42	83834	4	4	4	1	0	684	1	4	0	32	38	0	4	90
random	1	1	43	84987	1	2	2	1	0	1259	1	4	0	16	39	0	4	91
random	1	1	44	86757	6	3	3	1	0	1520	1	4	0	24	40	0	4	91
random	1	1	45	89166	3	1	1	1	0	922	1	4	0	8	41	0	4	91
random	1	1	46	91054	4	4	4	1	0	786	1	4	0	32	42	0	4	91
random	1	1	47	92197	2	2	2	1	0	1546	1	4	0	16	43	0	4	91
random	1	1	48	94561	5	1	1	1	0	958	1	4	0	8	44	0	4	92
random	1	1	49	96743	2	3	3	1	0	1377	1	4	0	24	45	0	4	92
random	1	1	50	99028	3	1	1	1	0	913	1	4	0	8	46	0	4	92
random	1	1	51	100494	1	4	4	1	0	787	1	4	0	32	47	0	4	92
random	1	1	52	101777	5	3	3	1	0	1068	1	4	0	24	48	0	4	92
random	1	1	53	103127	3	2	2	1	0	859	1	4	0	16	49	0	4	92
random	1	1	54	104372	6	4	4	1	0	854	1	4	0	32	50	0	4	93
random	1	1	55	106112	4	2	2	1	0	1165	1	4	0	16	51	0	4	93
random	1	1	56	107903	1	1	1	1	0	824	1	4	0	8	52	0	4	93
random	1	1	57	109253	5	4	4	1	0	800	1	4	0	32	53	0	4	93
random	1	1	58	110676	2	1	1	1	0	1091	1	4	0	8	54	0	4	93
random	1	1	59	112771	6	2	2	1	0	1162	1	4	0	16	55	0	4	93
random	1	1	60	114954	4	3	3	1	0	1166	1	4	0	24	56	0	4	93
random	1	1	61	116876	1	2	2	1	0	1044	1	4	0	16	57	0	4	93
random	1	1	62	118722	6	4	4	1	0	678	1	4	0	32	58	0	4	94
random	1	1	63	119926	4	1	1	1	0	884	1	4	0	8	59	0	4	94
random	1	1	64	121304	2	2	2	1	0	1057	1	4	0	16	60	0	4	94
random	1	1	65	123357	4	3	3	1	0	810	1	4	0	24	61	0	4	94
random	1	1	66	124959	3	1	1	1	0	967	1	4	0	8	62	0	4	94
random	1	1	67	126708	1	3	3	1	0	1276	1	4	0	24	63	0	4	94
random	1	1	68	128748	5	4	4	1	0	774	1	4	0	32	64	0	4	94
random	1	1	69	130238	2	2	2	1	0	887	1	4	0	16	65	0	4	94
random	1	1	70	131994	3	1	1	1	0	932	1	4	0	8	66	0	4	94
random	1	1	71	133697	5	4	4	1	0	796	1	4	0	32	67	0	4	94
random	1	1	72	135223	6	3	3	1	0	1251	1	4	0	24	68	0	4	94
random	1	1	73	137226	2	1	1	1	0	1526	1	4	0	8	69	0	4	95
random	1	1	74	139696	5	3	3	1	0	998	1	4	0	24	70	0	4	95
random	1	1	75	141617	1	4	4	1	0	724	1	4	0	32	71	0	4	95
random	1	1	76	142730	6	2	2	1	0	838	1	4	0	16	72	0	4	95
random	1	1	77	144142	2	1	1	1	0	769	1	4	0	8	73	0	4	95
random	1	1	78	145575	4	4	4	1	0	653	1	4	0	32	74	0	4	95
random	1	1	79	146843	3	2	2	1	0	1008	1	4	0	16	75	0	4	95
random	1	1	80	148554	4	3	3	1	0	1279	1	4	0	24	76	0	4	95
random	1	1	81	150395	1	4	4	1	0	713	1	4	0	32	77	0	4	95
random	1	1	82	151891	5	1	1	1	0	794	1	4	0	8	78	0	4	95
random	1	1	83	153650	3	2	2	1	0	943	1	4	0	16	79	0	4	95
random	1	1	84	154925	6	3	3	1	0	1025	1	4	0	24	80	0	4	95
random	1	1	85	157158	3	2	2	1	0	1186	1	4	0	16	81	0	4	95
random	1	1	86	159265	1	3	3	1	0	1385	1	4	0	24	82	0	4	95
random	1	1	87	161094	4	4	4	1	0	740	1	4	0	32	83	0	4	95
random	1	1	88	162865	2	1	1	1	0	665	1	4	0	8	84	0	4	95
random	1	1	89	164415	6	4	4	1	0	815	1	4	0	32	85	0	4	96
random	1	1	90	165648	3	3	3	1	0	1283	1	4	0	24	86	0	4	96
random	1	1	91	167402	5	4	4	1	0	960	1	4	0	32	87	0	4	96
random	1	1	92	169126	1	2	2	1	0	1031	1	4	0	16	88	0	4	96
random	1	1	93	170745	5	1	1	1	0	802	1	4	0	8	89	0	4	96
random	1	1	94	172283	4	3	0	1	2	0	3	4	0	24	89	0	5	95
random	1	1	95	175127	6	1	0	0	2	0	3	4	0	8	89	0	6	94
random	1	1	96	178035	2	2	2	1	0	1254	1	4	0	16	90	0	6	94
random	1	1	97	179880	4	3	3	1	0	1328	1	4	0	24	91	0	6	94
random	1	1	98	181644	3	2	2	1	0	1101	1	4	0	16	92	0	6	94
random	1	1	99	183624	6	3	3	1	0	1417	1	4	0	24	93	0	6	94
random	1	1	100	185684	1	4	4	1	0	706	1	4	0	32	94	0	6	94
random	1	1	101	186784	4	1	1	1	0	763	1	4	0	8	95	0	6	94
random	1	1	102	187876	5	2	2	1	0	1085	1	4	0	16	96	0	6	94
random	1	1	103	189839	2	4	4	1	0	866	1	4	0	32	97	0	6	94
random	1	1	104	191296	3	1	1	1	0	1140	1	4	0	8	98	0	6	94
random	1	1	105	192979	1	3	3	1	0	1453	1	4	0	24	99	0	6	94
random	1	1	106	194851	2	2	2	1	0	862	1	4	0	16	100	0	6	94
random	1	1	107	196504	5	4	4	1	0	768	1	4	0	32	101	0	6	94
random	1	1	108	198140	6	1	1	1	0	682	1	4	0	8	102	0	6	94
random	1	1	109	199462	5	4	4	1	0	1290	1	4	0	32	103	0	6	94
random	1	1	110	201677	6	3	3	1	0	1309	1	4	0	24	104	0	6	95
random	1	1	111	203738	2	2	2	1	0	741	1	4	0	16	105	0	6	95
random	1	1	112	204876	3	1	1	1	0	869	1	4	0	8	106	0	6	95
random	1	1	113	206792	1	2	2	1	0	980	1	4	0	16	107	0	6	95
random	1	1	114	208119	2	3	3	1	0	1124	1	4	0	24	108	0	6	95
random	1	1	115	209616	3	1	1	1	0	765	1	4	0	8	109	0	6	95
random	1	1	116	211357	4	4	4	1	0	675	1	4	0	32	110	0	6	95
random	1	1	117	212451	6	1	1	1	0	1189	1	4	0	8	111	0	6	95
random	1	1	118	214678	5	3	3	1	0	1510	1	4	0	24	112	0	6	95
random	1	1	119	217209	1	4	4	1	0	803	1	4	0	32	113	0	6	95
random	1	1	120	218844	4	2	2	1	0	1365	1	4	0	16	114	0	6	95
fixed	2	1	1	221514	4	1	1	1	0	740	1	4	0	40	1	0	0	100
fixed	2	1	2	222905	1	2	2	1	0	818	1	4	0	48	2	0	0	100
fixed	2	1	3	224136	6	4	4	1	0	789	1	4	0	64	3	0	0	100
fixed	2	1	4	225687	2	1	1	1	0	844	1	4	0	40	4	0	0	100
fixed	2	1	5	227180	5	3	3	1	0	828	1	4	0	56	5	0	0	100
fixed	2	1	6	228732	6	4	4	1	0	859	1	4	0	64	6	0	0	100
fixed	2	1	7	230044	3	1	1	1	0	859	1	4	0	40	7	0	0	100
fixed	2	1	8	231761	2	3	3	1	0	1250	1	4	0	56	8	0	0	100
fixed	2	1	9	233395	3	2	2	1	0	797	1	4	0	48	9	0	0	100
fixed	2	1	10	234668	1	4	4	1	0	727	1	4	0	64	10	0	0	100
fixed	2	1	11	235921	5	2	2	1	0	1122	1	4	0	48	11	0	0	100
fixed	2	1	12	237760	4	3	3	1	0	1284	1	4	0	56	12	0	0	100
fixed	2	2	1	240145	4	1	1	1	0	791	1	4	0	40	13	0	0	100
fixed	2	2	2	241800	1	2	2	1	0	1305	1	4	0	48	14	0	0	100
fixed	2	2	3	243633	6	4	4	1	0	684	1	4	0	64	15	0	0	100
fixed	2	2	4	244746	2	1	1	1	0	829	1	4	0	40	16	0	0	100
fixed	2	2	5	246568	5	3	3	1	0	1223	1	4	0	56	17	0	0	100
fixed	2	2	6	248199	6	4	4	1	0	762	1	4	0	64	18	0	0	100
fixed	2	2	7	249428	3	1	1	1	0	662	1	4	0	40	19	0	0	100
fixed	2	2	8	250635	2	3	3	1	0	1259	1	4	0	56	20	0	0	100
fixed	2	2	9	252789	3	2	2	1	0	1720	1	4	0	48	21	0	0	100
fixed	2	2	10	255503	1	4	4	1	0	765	1	4	0	64	22	0	0	100
fixed	2	2	11	256949	5	2	2	1	0	1072	1	4	0	48	23	0	0	100
fixed	2	2	12	259056	4	3	3	1	0	1070	1	4	0	56	24	0	0	100
fixed	2	3	1	261297	4	1	1	1	0	863	1	4	0	40	25	0	0	100
fixed	2	3	2	262643	1	2	2	1	0	967	1	4	0	48	26	0	0	100
fixed	2	3	3	264008	6	4	4	1	0	661	1	4	0	64	27	0	0	100
fixed	2	3	4	265623	2	1	1	1	0	720	1	4	0	40	28	0	0	100
fixed	2	3	5	266920	5	3	3	1	0	810	1	4	0	56	29	0	0	100
fixed	2	3	6	268237	6	4	4	1	0	770	1	4	0	64	30	0	0	100
fixed	2	3	7	269912	3	1	1	1	0	779	1	4	0	40	31	0	0	100
fixed	2	3	8	271135	2	3	3	1	0	1079	1	4	0	56	32	0	0	100
fixed	2	3	9	272946	3	2	2	1	0	898	1	4	0	48	33	0	0	100
fixed	2	3	10	274428	1	4	4	1	0	603	1	4	0	64	34	0	0	100
fixed	2	3	11	275331	5	2	2	1	0	997	1	4	0	48	35	0	0	100
fixed	2	3	12	277255	4	3	0	1	2	0	3	4	0	56	35	0	1	97
fixed	2	4	1	281012	4	1	1	1	0	948	1	4	0	40	36	0	1	97
fixed	2	4	2	282419	1	2	2	1	0	1241	1	4	0	48	37	0	1	97
fixed	2	4	3	283986	6	4	4	1	0	694	1	4	0	64	38	0	1	97
fixed	2	4	4	285331	2	1	1	1	0	686	1	4	0	40	39	0	1	98
fixed	2	4	5	287031	5	3	3	1	0	1318	1	4	0	56	40	0	1	98
fixed	2	4	6	289036	6	4	4	1	0	761	1	4	0	64	41	0	1	98
fixed	2	4	7	290311	3	1	1	1	0	691	1	4	0	40	42	0	1	98
fixed	2	4	8	292035	2	3	3	1	0	1370	1	4	0	56	43	0	1	98
fixed	2	4	9	293711	3	2	2	1	0	867	1	4	0	48	44	0	1	98
fixed	2	4	10	295383	1	4	4	1	0	612	1	4	0	64	45	0	1	98
fixed	2	4	11	296863	5	2	2	1	0	1037	1	4	0	48	46	0	1	98
fixed	2	4	12	298643	4	3	3	1	0	1234	1	4	0	56	47	0	1	98
fixed	2	5	1	300610	4	1	1	1	0	782	1	4	0	40	48	0	1	98
fixed	2	5	2	301858	1	2	2	1	0	1026	1	4	0	48	49	0	1	98
fixed	2	5	3	303669	6	4	4	1	0	749	1	4	0	64	50	0	1	98
fixed	2	5	4	305156	2	1	1	1	0	950	1	4	0	40	51	0	1	98
fixed	2	5	5	306889	5	3	3	1	0	901	1	4	0	56	52	0	1	98
fixed	2	5	6	308251	6	4	4	1	0	723	1	4	0	64	53	0	1	98
fixed	2	5	7	310002	3	1	1	1	0	865	1	4	0	40	54	0	1	98
fixed	2	5	8	311777	2	3	3	1	0	1246	1	4	0	56	55	0	1	98
fixed	2	5	9	313561	3	2	2	1	0	802	1	4	0	48	56	0	1	98
fixed	2	5	10	314934	1	4	4	1	0	776	1	4	0	64	57	0	1	98
fixed	2	5	11	316004	5	2	2	1	0	1154	1	4	0	48	58	0	1	98
fixed	2	5	12	317955	4	3	3	1	0	1304	1	4	0	56	59	0	1	98
fixed	2	6	1	320292	4	1	1	1	0	733	1	4	0	40	60	0	1	98
fixed	2	6	2	321493	1	2	2	1	0	906	1	4	0	48	61	0	1	98
fixed	2	6	3	323350	6	4	4	1	0	659	1	4	0	64	62	0	1	98
fixed	2	6	4	324432	2	1	1	1	0	829	1	4	0	40	63	0	1	98
fixed	2	6	5	325567	5	3	3	1	0	942	1	4	0	56	64	0	1	98
fixed	2	6	6	326886	6	4	4	1	0	750	1	4	0	64	65	0	1	98
fixed	2	6	7	328240	3	1	1	1	0	620	1	4	0	40	66	0	1	99
fixed	2	6	8	329725	2	3	3	1	0	1253	1	4	0	56	67	0	1	99
fixed	2	6	9	331911	3	2	2	1	0	897	1	4	0	48	68	0	1	99
fixed	2	6	10	333461	1	4	4	1	0	687	1	4	0	64	69	0	1	99
fixed	2	6	11	334710	5	2	2	1	0	1082	1	4	0	48	70	0	1	99
fixed	2	6	12	336423	4	3	3	1	0	914	1	4	0	56	71	0	1	99
fixed	2	7	1	338570	4	1	1	1	0	703	1	4	0	40	72	0	1	99
fixed	2	7	2	339708	1	2	2	1	0	934	1	4	0	48	73	0	1	99
fixed	2	7	3	341073	6	4	4	1	0	637	1	4	0	64	74	0	1	99
fixed	2	7	4	342282	2	1	1	1	0	737	1	4	0	40	75	0	1	99
fixed	2	7	5	343543	5	3	3	1	0	812	1	4	0	56	76	0	1	99
fixed	2	7	6	345335	6	4	4	1	0	744	1	4	0	64	77	0	1	99
fixed	2	7	7	347072	3	1	1	1	0	806	1	4	0	40	78	0	1	99
fixed	2	7	8	348899	2	3	3	1	0	1145	1	4	0	56	79	0	1	99
fixed	2	7	9	350915	3	2	2	1	0	723	1	4	0	48	80	0	1	99
fixed	2	7	10	352580	1	4	4	1	0	701	1	4	0	64	81	0	1	99
fixed	2	7	11	353942	5	2	2	1	0	899	1	4	0	48	82	0	1	99
fixed	2	7	12	355144	4	3	3	1	0	840	1	4	0	56	83	0	1	99
fixed	2	8	1	357065	4	1	1	1	0	799	1	4	0	40	84	0	1	99
fixed	2	8	2	358363	1	2	2	1	0	969	1	4	0	48	85	0	1	99
fixed	2	8	3	359984	6	4	4	1	0	620	1	4	0	64	86	0	1	99
fixed	2	8	4	360935	2	1	1	1	0	964	1	4	0	40	87	0	1	99
fixed	2	8	5	362674	5	3	3	1	0	906	1	4	0	56	88	0	1	99
fixed	2	8	6	364281	6	4	4	1	0	941	1	4	0	64	89	0	1	99
fixed	2	8	7	366001	3	1	1	1	0	692	1	4	0	40	90	0	1	99
fixed	2	8	8	367379	2	3	3	1	0	1298	1	4	0	56	91	0	1	99
fixed	2	8	9	369273	3	2	2	1	0	738	1	4	0	48	92	0	1	99
fixed	2	8	10	370495	1	4	4	1	0	719	1	4	0	64	93	0	1	99
fixed	2	8	11	372231	5	2	2	1	0	1037	1	4	0	48	94	0	1	99
fixed	2	8	12	373566	4	3	3	1	0	877	1	4	0	56	95	0	1	99
fixed	2	9	1	375711	4	1	1	1	0	745	1	4	0	40	96	0	1	99
fixed	2	9	2	377207	1	2	2	1	0	1402	1	4	0	48	97	0	1	99
fixed	2	9	3	379196	6	4	4	1	0	806	1	4	0	64	98	0	1	99
fixed	2	9	4	380595	2	1	1	1	0	971	1	4	0	40	99	0	1	99
fixed	2	9	5	381950	5	3	3	1	0	1137	1	4	0	56	100	0	1	99
fixed	2	9	6	383682	6	4	4	1	0	816	1	4	0	64	101	0	1	99
fixed	2	9	7	385389	3	1	1	1	0	776	1	4	0	40	102	0	1	99
fixed	2	9	8	386906	2	3	3	1	0	1287	1	4	0	56	103	0	1	99
fixed	2	9	9	388745	3	2	2	1	0	681	1	4	0	48	104	0	1	99
fixed	2	9	10	390016	1	4	4	1	0	788	1	4	0	64	105	0	1	99
fixed	2	9	11	391681	5	2	2	1	0	877	1	4	0	48	106	0	1	99
fixed	2	9	12	393351	4	3	3	1	0	1015	1	4	0	56	107	0	1	99
fixed	2	10	1	395459	4	1	1	1	0	701	1	4	0	40	108	0	1	99
fixed	2	10	2	396592	1	2	2	1	0	885	1	4	0	48	109	0	1	99
fixed	2	10	3	398156	6	4	4	1	0	643	1	4	0	64	110	0	1	99
fixed	2	10	4	399152	2	1	1	1	0	784	1	4	0	40	111	0	1	99
fixed	2	10	5	400433	5	3	3	1	0	947	1	4	0	56	112	0	1	99
fixed	2	10	6	402116	6	4	4	1	0	675	1	4	0	64	113	0	1	99
fixed	2	10	7	403430	3	1	1	1	0	531	1	4	0	40	114	0	1	99
fixed	2	10	8	404435	2	3	3	1	0	1257	1	4	0	56	115	0	1	99
fixed	2	10	9	406673	3	2	2	1	0	1146	1	4	0	48	116	0	1	99
fixed	2	10	10	408763	1	4	4	1	0	738	1	4	0	64	117	0	1	99
fixed	2	10	11	410027	5	2	2	1	0	1084	1	4	0	48	118	0	1	99
fixed	2	10	12	411882	4	3	3	2	0	1397	2	4	0	56	119	0	1	99
fixed	3	1	1	414387	4	1	1	1	0	667	1	4	0	72	1	0	0	100
fixed	3	1	2	416046	1	2	2	1	0	1173	1	4	0	80	2	0	0	100
fixed	3	1	3	417743	6	4	4	1	0	766	1	4	0	96	3	0	0	100
fixed	3	1	4	419077	2	1	1	1	0	909	1	4	0	72	4	0	0	100
fixed	3	1	5	420728	5	3	3	1	0	1319	1	4	0	88	5	0	0	100
fixed	3	1	6	422854	6	4	4	1	0	645	1	4	0	96	6	0	0	100
fixed	3	1	7	424005	3	1	1	1	0	772	1	4	0	72	7	0	0	100
fixed	3	1	8	425087	2	3	3	1	0	1358	1	4	0	88	8	0	0	100
fixed	3	1	9	426829	3	2	2	1	0	773	1	4	0	80	9	0	0	100
fixed	3	1	10	428234	1	4	4	1	0	633	1	4	0	96	10	0	0	100
fixed	3	1	11	429800	5	2	2	1	0	1039	1	4	0	80	11	0	0	100
fixed	3	1	12	431328	4	3	3	1	0	902	1	4	0	88	12	0	0	100
fixed	3	2	1	432901	4	1	1	1	0	715	1	4	0	72	13	0	0	100
fixed	3	2	2	433997	1	2	2	1	0	933	1	4	0	80	14	0	0	100
fixed	3	2	3	435297	6	4	4	1	0	686	1	4	0	96	15	0	0	100
fixed	3	2	4	436659	2	1	1	1	0	916	1	4	0	72	16	0	0	100
fixed	3	2	5	438322	5	3	3	1	0	1054	1	4	0	88	17	0	0	100
fixed	3	2	6	439968	6	4	4	1	0	672	1	4	0	96	18	0	0	100
fixed	3	2	7	441553	3	1	1	1	0	732	1	4	0	72	19	0	0	100
fixed	3	2	8	442796	2	3	0	1	2	0	3	4	0	88	19	0	1	95
fixed	3	2	9	445935	3	2	2	1	0	1115	1	4	0	80	20	0	1	95
fixed	3	2	10	447623	1	4	4	1	0	764	1	4	0	96	21	0	1	95
fixed	3	2	11	449169	5	2	2	1	0	1107	1	4	0	80	22	0	1	96
fixed	3	2	12	451077	4	3	3	1	0	961	1	4	0	88	23	0	1	96
fixed	3	3	1	452850	4	1	1	1	0	742	1	4	0	72	24	0	1	96
fixed	3	3	2	454591	1	2	2	1	0	941	1	4	0	80	25	0	1	96
fixed	3	3	3	455983	6	4	4	1	0	658	1	4	0	96	26	0	1	96
fixed	3	3	4	457658	2	1	1	1	0	691	1	4	0	72	27	0	1	96
fixed	3	3	5	459358	5	3	3	1	0	1139	1	4	0	88	28	0	1	97
fixed	3	3	6	461238	6	4	4	1	0	723	1	4	0	96	29	0	1	97
fixed	3	3	7	462612	3	1	1	1	0	689	1	4	0	72	30	0	1	97
fixed	3	3	8	464087	2	3	3	1	0	1195	1	4	0	88	31	0	1	97
fixed	3	3	9	465668	3	2	2	1	0	751	1	4	0	80	32	0	1	97
fixed	3	3	10	467316	1	4	4	1	0	681	1	4	0	96	33	0	1	97
fixed	3	3	11	468674	5	2	2	1	0	1184	1	4	0	80	34	0	1	97
fixed	3	3	12	470164	4	3	3	1	0	833	1	4	0	88	35	0	1	97
fixed	3	4	1	471796	4	1	1	1	0	812	1	4	0	72	36	0	1	97
fixed	3	4	2	472957	1	2	2	1	0	979	1	4	0	80	37	0	1	97
fixed	3	4	3	474779	6	4	4	1	0	590	1	4	0	96	38	0	1	97
fixed	3	4	4	476143	2	1	1	1	0	924	1	4	0	72	39	0	1	98
fixed	3	4	5	477488	5	3	3	1	0	883	1	4	0	88	40	0	1	98
fixed	3	4	6	479388	6	4	4	1	0	802	1	4	0	96	41	0	1	98
fixed	3	4	7	481223	3	1	1	1	0	901	1	4	0	72	42	0	1	98
fixed	3	4	8	483101	2	3	3	1	0	1181	1	4	0	88	43	0	1	98
fixed	3	4	9	484596	3	2	2	1	0	782	1	4	0	80	44	0	1	98
fixed	3	4	10	485886	1	4	4	1	0	751	1	4	0	96	45	0	1	98
fixed	3	4	11	487630	5	2	2	1	0	1078	1	4	0	80	46	0	1	98
fixed	3	4	12	489049	4	3	3	1	0	849	1	4	0	88	47	0	1	98
fixed	3	5	1	490877	4	1	1	1	0	924	1	4	0	72	48	0	1	98
fixed	3	5	2	492462	1	2	2	1	0	872	1	4	0	80	49	0	1	98
fixed	3	5	3	494203	6	4	4	1	0	679	1	4	0	96	50	0	1	98
fixed	3	5	4	495530	2	1	1	1	0	703	1	4	0	72	51	0	1	98
fixed	3	5	5	496700	5	3	3	1	0	1397	1	4	0	88	52	0	1	98
fixed	3	5	6	498671	6	4	4	1	0	674	1	4	0	96	53	0	1	98
fixed	3	5	7	500355	3	1	1	1	0	818	1	4	0	72	54	0	1	98
fixed	3	5	8	502172	2	3	3	1	0	1221	1	4	0	88	55	0	1	98
fixed	3	5	9	504124	3	2	2	1	0	658	1	4	0	80	56	0	1	98
fixed	3	5	10	505828	1	4	4	1	0	754	1	4	0	96	57	0	1	98
fixed	3	5	11	507554	5	2	2	1	0	1625	1	4	0	80	58	0	1	98
fixed	3	5	12	509840	4	3	3	1	0	1016	1	4	0	88	59	0	1	98
fixed	3	6	1	511795	4	1	1	1	0	822	1	4	0	72	60	0	1	98
fixed	3	6	2	513390	1	2	2	1	0	978	1	4	0	80	61	0	1	98
fixed	3	6	3	514917	6	4	4	1	0	817	1	4	0	96	62	0	1	98
fixed	3	6	4	516379	2	1	1	1	0	868	1	4	0	72	63	0	1	98
fixed	3	6	5	517942	5	3	3	1	0	1153	1	4	0	88	64	0	1	98
fixed	3	6	6	519619	6	4	4	1	0	746	1	4	0	96	65	0	1	98
fixed	3	6	7	520920	3	1	1	1	0	675	1	4	0	72	66	0	1	99
fixed	3	6	8	522565	2	3	3	1	0	1222	1	4	0	88	67	0	1	99
fixed	3	6	9	524646	3	2	2	1	0	821	1	4	0	80	68	0	1	99
fixed	3	6	10	526210	1	4	4	1	0	683	1	4	0	96	69	0	1	99
fixed	3	6	11	527381	5	2	2	1	0	1081	1	4	0	80	70	0	1	99
fixed	3	6	12	528868	4	3	3	1	0	850	1	4	0	88	71	0	1	99
fixed	3	7	1	530658	4	1	1	1	0	687	1	4	0	72	72	0	1	99
fixed	3	7	2	531884	1	2	2	1	0	1027	1	4	0	80	73	0	1	99
fixed	3	7	3	533360	6	4	4	1	0	677	1	4	0	96	74	0	1	99
fixed	3	7	4	535066	2	1	1	1	0	812	1	4	0	72	75	0	1	99
fixed	3	7	5	536885	5	3	3	1	0	1175	1	4	0	88	76	0	1	99
fixed	3	7	6	538653	6	4	4	1	0	716	1	4	0	96	77	0	1	99
fixed	3	7	7	539762	3	1	1	1	0	701	1	4	0	72	78	0	1	99
fixed	3	7	8	540981	2	3	3	1	0	1369	1	4	0	88	79	0	1	99
fixed	3	7	9	543172	3	2	2	1	0	789	1	4	0	80	80	0	1	99
fixed	3	7	10	544867	1	4	4	1	0	749	1	4	0	96	81	0	1	99
fixed	3	7	11	546303	5	2	2	1	0	1016	1	4	0	80	82	0	1	99
fixed	3	7	12	547875	4	3	3	1	0	1206	1	4	0	88	83	0	1	99
fixed	3	8	1	550206	4	1	1	1	0	691	1	4	0	72	84	0	1	99
fixed	3	8	2	551552	1	2	2	1	0	986	1	4	0	80	85	0	1	99
fixed	3	8	3	552863	6	4	4	1	0	810	1	4	0	96	86	0	1	99
fixed	3	8	4	554282	2	1	1	1	0	878	1	4	0	72	87	0	1	99
fixed	3	8	5	555685	5	3	3	1	0	851	1	4	0	88	88	0	1	99
fixed	3	8	6	557015	6	4	4	1	0	763	1	4	0	96	89	0	1	99
fixed	3	8	7	558633	3	1	1	1	0	758	1	4	0	72	90	0	1	99
fixed	3	8	8	559904	2	3	3	1	0	1272	1	4	0	88	91	0	1	99
fixed	3	8	9	562208	3	2	2	1	0	815	1	4	0	80	92	0	1	99
fixed	3	8	10	563657	1	4	4	1	0	657	1	4	0	96	93	0	1	99
fixed	3	8	11	565097	5	2	2	1	0	1068	1	4	0	80	94	0	1	99
fixed	3	8	12	566454	4	3	3	1	0	835	1	4	0	88	95	0	1	99
fixed	3	9	1	568534	4	1	1	1	0	778	1	4	0	72	96	0	1	99
fixed	3	9	2	570319	1	2	2	1	0	991	1	4	0	80	97	0	1	99
fixed	3	9	3	571935	6	4	4	1	0	739	1	4	0	96	98	0	1	99
fixed	3	9	4	573377	2	1	1	1	0	637	1	4	0	72	99	0	1	99
fixed	3	9	5	574798	5	3	3	1	0	905	1	4	0	88	100	0	1	99
fixed	3	9	6	576221	6	4	4	1	0	693	1	4	0	96	101	0	1	99
fixed	3	9	7	577898	3	1	1	1	0	710	1	4	0	72	102	0	1	99
fixed	3	9	8	579300	2	3	3	1	0	1075	1	4	0	88	103	0	1	99
fixed	3	9	9	581410	3	2	2	1	0	793	1	4	0	80	104	0	1	99
fixed	3	9	10	582720	1	4	4	1	0	706	1	4	0	96	105	0	1	99
fixed	3	9	11	584436	5	2	2	1	0	1049	1	4	0	80	106	0	1	99
fixed	3	9	12	586324	4	3	3	1	0	1137	1	4	0	88	107	0	1	99
fixed	3	10	1	588015	4	1	1	1	0	649	1	4	0	72	108	0	1	99
fixed	3	10	2	589071	1	2	2	1	0	901	1	4	0	80	109	0	1	99
fixed	3	10	3	590633	6	4	4	1	0	651	1	4	0	96	110	0	1	99
fixed	3	10	4	591788	2	1	1	1	0	825	1	4	0	72	111	0	1	99
fixed	3	10	5	593053	5	3	3	1	0	772	1	4	0	88	112	0	1	99
fixed	3	10	6	594374	6	4	4	1	0	756	1	4	0	96	113	0	1	99
fixed	3	10	7	595960	3	1	1	1	0	1033	1	4	0	72	114	0	1	99
fixed	3	10	8	597761	2	3	3	1	0	1021	1	4	0	88	115	0	1	99
fixed	3	10	9	599192	3	2	2	1	0	888	1	4	0	80	116	0	1	99
fixed	3	10	10	600997	1	4	4	1	0	683	1	4	0	96	117	0	1	99
fixed	3	10	11	602224	5	2	2	1	0	1040	1	4	0	80	118	0	1	99
fixed	3	10	12	603713	4	3	3	1	0	887	1	4	0	88	119	0	1	99
fixed	4	1	1	761154	4	1	1	2	0	988	2	4	0	104	1	0	0	100
fixed	4	1	2	762640	1	2	2	1	0	870	1	4	0	112	2	0	0	100
fixed	4	1	3	764017	6	4	4	1	0	643	1	4	0	128	3	0	0	100
fixed	4	1	4	765421	2	1	1	1	0	767	1	4	0	104	4	0	0	100
fixed	4	1	5	766564	5	3	3	1	0	799	1	4	0	120	5	0	0	100
fixed	4	1	6	768321	6	4	4	1	0	636	1	4	0	128	6	0	0	100
fixed	4	1	7	769700	3	1	1	1	0	698	1	4	0	104	7	0	0	100
fixed	4	1	8	770965	2	3	3	1	0	996	1	4	0	120	8	0	0	100
fixed	4	1	9	772413	3	2	2	1	0	688	1	4	0	112	9	0	0	100
fixed	4	1	10	774029	1	4	4	1	0	715	1	4	0	128	10	0	0	100
fixed	4	1	11	775255	5	2	2	2	0	1319	2	4	0	112	11	0	0	100
fixed	4	1	12	777321	4	3	3	1	0	1288	1	4	0	120	12	0	0	100
fixed	4	2	1	779819	4	1	1	1	0	845	1	4	0	104	13	0	0	100
fixed	4	2	2	781676	1	2	2	1	0	1063	1	4	0	112	14	0	0	100
fixed	4	2	3	783595	6	4	4	1	0	733	1	4	0	128	15	0	0	100
fixed	4	2	4	784818	2	1	1	1	0	866	1	4	0	104	16	0	0	100
fixed	4	2	5	786368	5	3	3	1	0	1504	1	4	0	120	17	0	0	100
fixed	4	2	6	788704	6	4	4	1	0	734	1	4	0	128	18	0	0	100
fixed	4	2	7	790178	3	1	1	1	0	703	1	4	0	104	19	0	0	100
fixed	4	2	8	791471	2	3	3	1	0	1144	1	4	0	120	20	0	0	100
fixed	4	2	9	793187	3	2	2	1	0	743	1	4	0	112	21	0	0	100
fixed	4	2	10	794580	1	4	4	1	0	749	1	4	0	128	22	0	0	100
fixed	4	2	11	795988	5	2	2	1	0	1737	1	4	0	112	23	0	0	100
fixed	4	2	12	798175	4	3	3	1	0	1260	1	4	0	120	24	0	0	100
fixed	4	3	1	800503	4	1	1	1	0	889	1	4	0	104	25	0	0	100
fixed	4	3	2	802158	1	2	2	1	0	915	1	4	0	112	26	0	0	100
fixed	4	3	3	803435	6	4	4	1	0	637	1	4	0	128	27	0	0	100
fixed	4	3	4	804598	2	1	1	1	0	740	1	4	0	104	28	0	0	100
fixed	4	3	5	806205	5	3	3	1	0	920	1	4	0	120	29	0	0	100
fixed	4	3	6	807729	6	4	4	1	0	696	1	4	0	128	30	0	0	100
fixed	4	3	7	808803	3	1	1	1	0	826	1	4	0	104	31	0	0	100
fixed	4	3	8	809967	2	3	3	1	0	1409	1	4	0	120	32	0	0	100
fixed	4	3	9	812169	3	2	2	1	0	875	1	4	0	112	33	0	0	100
fixed	4	3	10	813862	1	4	4	1	0	604	1	4	0	128	34	0	0	100
fixed	4	3	11	815067	5	2	2	1	0	985	1	4	0	112	35	0	0	100
fixed	4	3	12	816775	4	3	3	1	0	1184	1	4	0	120	36	0	0	100
fixed	4	4	1	818664	4	1	1	1	0	720	1	4	0	104	37	0	0	100
fixed	4	4	2	820297	1	2	2	1	0	899	1	4	0	112	38	0	0	100
fixed	4	4	3	821879	6	4	4	1	0	592	1	4	0	128	39	0	0	100
fixed	4	4	4	822849	2	1	1	1	0	871	1	4	0	104	40	0	0	100
fixed	4	4	5	824560	5	3	3	1	0	1254	1	4	0	120	41	0	0	100
fixed	4	4	6	826283	6	4	4	1	0	765	1	4	0	128	42	0	0	100
fixed	4	4	7	827383	3	1	1	1	0	823	1	4	0	104	43	0	0	100
fixed	4	4	8	829141	2	3	3	1	0	1708	1	4	0	120	44	0	0	100
fixed	4	4	9	831480	3	2	2	1	0	969	1	4	0	112	45	0	0	100
fixed	4	4	10	833490	1	4	4	1	0	564	1	4	0	128	46	0	0	100
fixed	4	4	11	834936	5	2	2	1	0	871	1	4	0	112	47	0	0	100
fixed	4	4	12	836503	4	3	3	1	0	829	1	4	0	120	48	0	0	100
fixed	4	5	1	837995	4	1	1	1	0	693	1	4	0	104	49	0	0	100
fixed	4	5	2	839248	1	2	2	1	0	904	1	4	0	112	50	0	0	100
fixed	4	5	3	840679	6	4	4	1	0	748	1	4	0	128	51	0	0	100
fixed	4	5	4	842418	2	1	1	1	0	667	1	4	0	104	52	0	0	100
fixed	4	5	5	843813	5	3	3	1	0	815	1	4	0	120	53	0	0	100
fixed	4	5	6	845155	6	4	4	1	0	694	1	4	0	128	54	0	0	100
fixed	4	5	7	846611	3	1	1	1	0	881	1	4	0	104	55	0	0	100
fixed	4	5	8	847809	2	3	3	1	0	1870	1	4	0	120	56	0	0	100
fixed	4	5	9	850556	3	2	2	1	0	642	1	4	0	112	57	0	0	100
fixed	4	5	10	851540	1	4	4	1	0	728	1	4	0	128	58	0	0	100
fixed	4	5	11	852739	5	2	2	1	0	789	1	4	0	112	59	0	0	100
fixed	4	5	12	854061	4	3	3	1	0	1133	1	4	0	120	60	0	0	100
fixed	4	6	1	856039	4	1	1	1	0	865	1	4	0	104	61	0	0	100
fixed	4	6	2	857755	1	2	2	1	0	937	1	4	0	112	62	0	0	100
fixed	4	6	3	859392	6	4	4	1	0	628	1	4	0	128	63	0	0	100
fixed	4	6	4	860706	2	1	1	1	0	724	1	4	0	104	64	0	0	100
fixed	4	6	5	862444	5	3	3	1	0	1106	1	4	0	120	65	0	0	100
fixed	4	6	6	863985	6	4	4	1	0	737	1	4	0	128	66	0	0	100
fixed	4	6	7	865058	3	1	1	1	0	859	1	4	0	104	67	0	0	100
fixed	4	6	8	866421	2	3	3	1	0	1226	1	4	0	120	68	0	0	100
fixed	4	6	9	868349	3	2	2	1	0	696	1	4	0	112	69	0	0	100
fixed	4	6	10	870001	1	4	4	1	0	698	1	4	0	128	70	0	0	100
fixed	4	6	11	871516	5	2	2	1	0	1378	1	4	0	112	71	0	0	100
fixed	4	6	12	873471	4	3	3	1	0	863	1	4	0	120	72	0	0	100
fixed	4	7	1	874886	4	1	1	1	0	643	1	4	0	104	73	0	0	100
fixed	4	7	2	875955	1	2	2	1	0	878	1	4	0	112	74	0	0	100
fixed	4	7	3	877734	6	4	4	1	0	651	1	4	0	128	75	0	0	100
fixed	4	7	4	879051	2	1	1	1	0	787	1	4	0	104	76	0	0	100
fixed	4	7	5	880374	5	3	3	1	0	739	1	4	0	120	77	0	0	100
fixed	4	7	6	881746	6	4	4	1	0	713	1	4	0	128	78	0	0	100
fixed	4	7	7	882785	3	1	1	1	0	765	1	4	0	104	79	0	0	100
fixed	4	7	8	884164	2	3	3	1	0	1730	1	4	0	120	80	0	0	100
fixed	4	7	9	886239	3	2	2	1	0	642	1	4	0	112	81	0	0	100
fixed	4	7	10	887289	1	4	4	1	0	590	1	4	0	128	82	0	0	100
fixed	4	7	11	888459	5	2	2	1	0	1348	1	4	0	112	83	0	0	100
fixed	4	7	12	890543	4	3	3	1	0	828	1	4	0	120	84	0	0	100
fixed	4	8	1	892027	4	1	1	1	0	709	1	4	0	104	85	0	0	100
fixed	4	8	2	893468	1	2	2	1	0	960	1	4	0	112	86	0	0	100
fixed	4	8	3	895387	6	4	4	1	0	551	1	4	0	128	87	0	0	100
fixed	4	8	4	896966	2	1	1	1	0	940	1	4	0	104	88	0	0	100
fixed	4	8	5	898711	5	3	3	1	0	898	1	4	0	120	89	0	0	100
fixed	4	8	6	900147	6	4	4	1	0	693	1	4	0	128	90	0	0	100
fixed	4	8	7	901782	3	1	1	1	0	736	1	4	0	104	91	0	0	100
fixed	4	8	8	903204	2	3	3	1	0	1315	1	4	0	120	92	0	0	100
fixed	4	8	9	905178	3	2	2	1	0	608	1	4	0	112	93	0	0	100
fixed	4	8	10	906688	1	4	4	1	0	752	1	4	0	128	94	0	0	100
fixed	4	8	11	907849	5	2	2	1	0	919	1	4	0	112	95	0	0	100
fixed	4	8	12	909245	4	3	3	2	0	2140	2	4	0	120	96	0	0	100
fixed	4	9	1	912060	4	1	1	1	0	844	1	4	0	104	97	0	0	100
fixed	4	9	2	913770	1	2	2	1	0	1404	1	4	0	112	98	0	0	100
fixed	4	9	3	915964	6	4	4	1	0	623	1	4	0	128	99	0	0	100
fixed	4	9	4	917483	2	1	1	1	0	743	1	4	0	104	100	0	0	100
fixed	4	9	5	918611	5	3	3	1	0	1063	1	4	0	120	101	0	0	100
fixed	4	9	6	920501	6	4	4	1	0	943	1	4	0	128	102	0	0	100
fixed	4	9	7	922290	3	1	1	1	0	795	1	4	0	104	103	0	0	100
fixed	4	9	8	923863	2	3	3	1	0	1665	1	4	0	120	104	0	0	100
fixed	4	9	9	926222	3	2	2	1	0	757	1	4	0	112	105	0	0	100
fixed	4	9	10	927768	1	4	4	1	0	619	1	4	0	128	106	0	0	100
fixed	4	9	11	928981	5	2	2	1	0	1008	1	4	0	112	107	0	0	100
fixed	4	9	12	930918	4	3	3	1	0	1222	1	4	0	120	108	0	0	100
fixed	4	10	1	932894	4	1	1	1	0	722	1	4	0	104	109	0	0	100
fixed	4	10	2	934007	1	2	2	1	0	891	1	4	0	112	110	0	0	100
fixed	4	10	3	935518	6	4	4	1	0	579	1	4	0	128	111	0	0	100
fixed	4	10	4	936706	2	1	1	1	0	777	1	4	0	104	112	0	0	100
fixed	4	10	5	937958	5	3	3	1	0	1099	1	4	0	120	113	0	0	100
fixed	4	10	6	939771	6	4	4	1	0	663	1	4	0	128	114	0	0	100
fixed	4	10	7	940864	3	1	1	1	0	792	1	4	0	104	115	0	0	100
fixed	4	10	8	942392	2	3	3	1	0	1536	1	4	0	120	116	0	0	100
fixed	4	10	9	944403	3	2	2	1	0	667	1	4	0	112	117	0	0	100
fixed	4	10	10	945598	1	4	4	1	0	648	1	4	0	128	118	0	0	100
fixed	4	10	11	946612	5	2	2	1	0	1157	1	4	0	112	119	0	0	100
fixed	4	10	12	948094	4	3	3	1	0	1031	1	4	0	120	120	0	0	100
fixed	5	1	1	950034	4	1	1	1	0	860	1	4	0	136	1	0	0	100
fixed	5	1	2	951883	1	2	2	1	0	934	1	4	0	144	2	0	0	100
fixed	5	1	3	953314	6	4	4	1	0	713	1	4	0	160	3	0	0	100
fixed	5	1	4	954648	2	1	1	1	0	776	1	4	0	136	4	0	0	100
fixed	5	1	5	955795	5	3	3	1	0	856	1	4	0	152	5	0	0	100
fixed	5	1	6	957449	6	4	4	1	0	682	1	4	0	160	6	0	0	100
fixed	5	1	7	958723	3	1	1	1	0	812	1	4	0	136	7	0	0	100
fixed	5	1	8	960517	2	3	3	1	0	1192	1	4	0	152	8	0	0	100
fixed	5	1	9	962357	3	2	2	1	0	810	1	4	0	144	9	0	0	100
fixed	5	1	10	964150	1	4	4	1	0	759	1	4	0	160	10	0	0	100
fixed	5	1	11	965250	5	2	2	1	0	792	1	4	0	144	11	0	0	100
fixed	5	1	12	966788	4	3	3	1	0	775	1	4	0	152	12	0	0	100
fixed	5	2	1	968348	4	1	1	1	0	844	1	4	0	136	13	0	0	100
fixed	5	2	2	970107	1	2	2	1	0	1402	1	4	0	144	14	0	0	100
fixed	5	2	3	972492	6	4	4	1	0	645	1	4	0	160	15	0	0	100
fixed	5	2	4	974025	2	1	1	1	0	1068	1	4	0	136	16	0	0	100
fixed	5	2	5	976008	5	3	3	1	0	1280	1	4	0	152	17	0	0	100
fixed	5	2	6	977811	6	4	4	1	0	1012	1	4	0	160	18	0	0	100
fixed	5	2	7	979116	3	1	1	1	0	724	1	4	0	136	19	0	0	100
fixed	5	2	8	980195	2	3	3	1	0	967	1	4	0	152	20	0	0	100
fixed	5	2	9	981506	3	2	2	1	0	727	1	4	0	144	21	0	0	100
fixed	5	2	10	982730	1	4	4	1	0	636	1	4	0	160	22	0	0	100
fixed	5	2	11	984072	5	2	2	1	0	906	1	4	0	144	23	0	0	100
fixed	5	2	12	985657	4	3	3	1	0	767	1	4	0	152	24	0	0	100
fixed	5	3	1	987378	4	1	1	1	0	750	1	4	0	136	25	0	0	100
fixed	5	3	2	988896	1	2	2	1	0	1630	1	4	0	144	26	0	0	100
fixed	5	3	3	991067	6	4	4	1	0	763	1	4	0	160	27	0	0	100
fixed	5	3	4	992220	2	1	1	1	0	673	1	4	0	136	28	0	0	100
fixed	5	3	5	993332	5	3	3	1	0	746	1	4	0	152	29	0	0	100
fixed	5	3	6	994439	6	4	4	1	0	628	1	4	0	160	30	0	0	100
fixed	5	3	7	995574	3	1	1	1	0	595	1	4	0	136	31	0	0	100
fixed	5	3	8	997154	2	3	3	1	0	1160	1	4	0	152	32	0	0	100
fixed	5	3	9	999297	3	2	2	1	0	718	1	4	0	144	33	0	0	100
fixed	5	3	10	1000841	1	4	4	1	0	525	1	4	0	160	34	0	0	100
fixed	5	3	11	1002109	5	2	2	1	0	775	1	4	0	144	35	0	0	100
fixed	5	3	12	1003317	4	3	3	1	0	851	1	4	0	152	36	0	0	100
fixed	5	4	1	1004938	4	1	1	1	0	774	1	4	0	136	37	0	0	100
fixed	5	4	2	1006220	1	2	2	1	0	1089	1	4	0	144	38	0	0	100
fixed	5	4	3	1008212	6	4	4	1	0	620	1	4	0	160	39	0	0	100
fixed	5	4	4	1009522	2	1	1	1	0	805	1	4	0	136	40	0	0	100
fixed	5	4	5	1010959	5	3	3	1	0	1352	1	4	0	152	41	0	0	100
fixed	5	4	6	1013193	6	4	4	1	0	681	1	4	0	160	42	0	0	100
fixed	5	4	7	1014493	3	1	1	1	0	554	1	4	0	136	43	0	0	100
fixed	5	4	8	1015444	2	3	3	1	0	1210	1	4	0	152	44	0	0	100
fixed	5	4	9	1016952	3	2	2	1	0	690	1	4	0	144	45	0	0	100
fixed	5	4	10	1018387	1	4	4	1	0	629	1	4	0	160	46	0	0	100
fixed	5	4	11	1019397	5	2	2	1	0	930	1	4	0	144	47	0	0	100
fixed	5	4	12	1020711	4	3	3	1	0	866	1	4	0	152	48	0	0	100
fixed	5	5	1	1022197	4	1	1	1	0	691	1	4	0	136	49	0	0	100
fixed	5	5	2	1023508	1	2	2	1	0	876	1	4	0	144	50	0	0	100
fixed	5	5	3	1024882	6	4	4	1	0	826	1	4	0	160	51	0	0	100
fixed	5	5	4	1026618	2	1	1	1	0	713	1	4	0	136	52	0	0	100
fixed	5	5	5	1028228	5	3	3	1	0	900	1	4	0	152	53	0	0	100
fixed	5	5	6	1029971	6	4	4	1	0	658	1	4	0	160	54	0	0	100
fixed	5	5	7	1030957	3	1	1	1	0	753	1	4	0	136	55	0	0	100
fixed	5	5	8	1032421	2	3	3	1	0	1314	1	4	0	152	56	0	0	100
fixed	5	5	9	1034642	3	2	2	1	0	828	1	4	0	144	57	0	0	100
fixed	5	5	10	1036293	1	4	4	1	0	991	1	4	0	160	58	0	0	100
fixed	5	5	11	1037592	5	2	2	1	0	976	1	4	0	144	59	0	0	100
fixed	5	5	12	1038957	4	3	3	1	0	798	1	4	0	152	60	0	0	100
fixed	5	6	1	1040391	4	1	1	1	0	697	1	4	0	136	61	0	0	100
fixed	5	6	2	1041548	1	2	2	1	0	856	1	4	0	144	62	0	0	100
fixed	5	6	3	1043392	6	4	4	1	0	706	1	4	0	160	63	0	0	100
fixed	5	6	4	1044820	2	1	1	1	0	813	1	4	0	136	64	0	0	100
fixed	5	6	5	1046049	5	3	3	1	0	874	1	4	0	152	65	0	0	100
fixed	5	6	6	1047527	6	4	4	1	0	627	1	4	0	160	66	0	0	100
fixed	5	6	7	1048529	3	1	1	1	0	848	1	4	0	136	67	0	0	100
fixed	5	6	8	1049667	2	3	3	1	0	1592	1	4	0	152	68	0	0	100
fixed	5	6	9	1051671	3	2	2	1	0	707	1	4	0	144	69	0	0	100
fixed	5	6	10	1052862	1	4	4	1	0	561	1	4	0	160	70	0	0	100
fixed	5	6	11	1053851	5	2	2	1	0	959	1	4	0	144	71	0	0	100
fixed	5	6	12	1055757	4	3	3	1	0	1334	1	4	0	152	72	0	0	100
fixed	5	7	1	1058068	4	1	1	1	0	844	1	4	0	136	73	0	0	100
fixed	5	7	2	1059402	1	2	2	1	0	892	1	4	0	144	74	0	0	100
fixed	5	7	3	1060635	6	4	4	1	0	632	1	4	0	160	75	0	0	100
fixed	5	7	4	1061824	2	1	1	1	0	621	1	4	0	136	76	0	0	100
fixed	5	7	5	1062794	5	3	3	1	0	1300	1	4	0	152	77	0	0	100
fixed	5	7	6	1064981	6	4	4	1	0	664	1	4	0	160	78	0	0	100
fixed	5	7	7	1066281	3	1	1	1	0	905	1	4	0	136	79	0	0	100
fixed	5	7	8	1067679	2	3	3	1	0	1149	1	4	0	152	80	0	0	100
fixed	5	7	9	1069356	3	2	2	1	0	694	1	4	0	144	81	0	0	100
fixed	5	7	10	1070416	1	4	4	1	0	665	1	4	0	160	82	0	0	100
fixed	5	7	11	1072004	5	2	2	1	0	942	1	4	0	144	83	0	0	100
fixed	5	7	12	1073762	4	3	3	1	0	1124	1	4	0	152	84	0	0	100
fixed	5	8	1	1075895	4	1	1	1	0	769	1	4	0	136	85	0	0	100
fixed	5	8	2	1077177	1	2	2	1	0	867	1	4	0	144	86	0	0	100
fixed	5	8	3	1079003	6	4	4	1	0	645	1	4	0	160	87	0	0	100
fixed	5	8	4	1080445	2	1	1	1	0	705	1	4	0	136	88	0	0	100
fixed	5	8	5	1081657	5	3	3	1	0	717	1	4	0	152	89	0	0	100
fixed	5	8	6	1082867	6	4	4	1	0	562	1	4	0	160	90	0	0	100
fixed	5	8	7	1083899	3	1	1	1	0	718	1	4	0	136	91	0	0	100
fixed	5	8	8	1085468	2	3	3	1	0	924	1	4	0	152	92	0	0	100
fixed	5	8	9	1087335	3	2	2	1	0	757	1	4	0	144	93	0	0	100
fixed	5	8	10	1088968	1	4	4	1	0	520	1	4	0	160	94	0	0	100
fixed	5	8	11	1089782	5	2	2	1	0	965	1	4	0	144	95	0	0	100
fixed	5	8	12	1091623	4	3	3	1	0	1207	1	4	0	152	96	0	0	100
fixed	5	9	1	1093873	4	1	1	1	0	768	1	4	0	136	97	0	0	100
fixed	5	9	2	1095270	1	2	2	1	0	917	1	4	0	144	98	0	0	100
fixed	5	9	3	1096921	6	4	4	1	0	687	1	4	0	160	99	0	0	100
fixed	5	9	4	1098399	2	1	1	1	0	752	1	4	0	136	100	0	0	100
fixed	5	9	5	1099630	5	3	3	1	0	1316	1	4	0	152	101	0	0	100
fixed	5	9	6	1101874	6	4	4	1	0	685	1	4	0	160	102	0	0	100
fixed	5	9	7	1103049	3	1	1	1	0	843	1	4	0	136	103	0	0	100
fixed	5	9	8	1104397	2	3	3	1	0	1466	1	4	0	152	104	0	0	100
fixed	5	9	9	1106749	3	2	2	1	0	703	1	4	0	144	105	0	0	100
fixed	5	9	10	1108289	1	4	4	1	0	629	1	4	0	160	106	0	0	100
fixed	5	9	11	1109635	5	2	2	1	0	1004	1	4	0	144	107	0	0	100
fixed	5	9	12	1110936	4	3	3	1	0	797	1	4	0	152	108	0	0	100
fixed	5	10	1	1112335	4	1	1	1	0	626	1	4	0	136	109	0	0	100
fixed	5	10	2	1113301	1	2	2	1	0	897	1	4	0	144	110	0	0	100
fixed	5	10	3	1114880	6	4	4	1	0	574	1	4	0	160	111	0	0	100
fixed	5	10	4	1115929	2	1	1	1	0	1346	1	4	0	136	112	0	0	100
fixed	5	10	5	1118238	5	3	3	1	0	1136	1	4	0	152	113	0	0	100
fixed	5	10	6	1120238	6	4	4	1	0	603	1	4	0	160	114	0	0	100
fixed	5	10	7	1121486	3	1	1	1	0	543	1	4	0	136	115	0	0	100
fixed	5	10	8	1122927	2	3	3	1	0	1121	1	4	0	152	116	0	0	100
fixed	5	10	9	1124831	3	2	2	1	0	712	1	4	0	144	117	0	0	100
fixed	5	10	10	1126243	1	4	4	1	0	677	1	4	0	160	118	0	0	100
fixed	5	10	11	1127693	5	2	2	1	0	879	1	4	0	144	119	0	0	100
fixed	5	10	12	1129515	4	3	3	1	0	802	1	4	0	152	120	0	0	100
random	6	1	1	1274597	6	1	1	1	0	913	1	4	0	168	1	0	0	100
random	6	1	2	1276031	4	4	4	1	0	645	1	4	0	192	2	0	0	100
random	6	1	3	1277616	2	2	2	1	0	650	1	4	0	176	3	0	0	100
random	6	1	4	1279080	3	3	3	1	0	635	1	4	0	184	4	0	0	100
random	6	1	5	1280383	5	2	2	1	0	1276	1	4	0	176	5	0	0	100
random	6	1	6	1282087	1	4	4	1	0	620	1	4	0	192	6	0	0	100
random	6	1	7	1283516	6	1	1	1	0	552	1	4	0	168	7	0	0	100
random	6	1	8	1284680	2	3	3	1	0	910	1	4	0	184	8	0	0	100
random	6	1	9	1286287	4	2	2	1	0	866	1	4	0	176	9	0	0	100
random	6	1	10	1287440	1	1	1	2	0	1522	2	4	0	168	10	0	0	100
random	6	1	11	1289525	5	4	4	1	0	697	1	4	0	192	11	0	0	100
random	6	1	12	1290663	3	3	3	1	0	1145	1	4	0	184	12	0	0	100
random	6	1	13	1292877	5	2	2	1	0	891	1	4	0	176	13	0	0	100
random	6	1	14	1294661	1	4	4	1	0	816	1	4	0	192	14	0	0	100
random	6	1	15	1295777	3	1	1	1	0	744	1	4	0	168	15	0	0	100
random	6	1	16	1297434	4	3	3	1	0	946	1	4	0	184	16	0	0	100
random	6	1	17	1299402	6	4	4	1	0	1031	1	4	0	192	17	0	0	100
random	6	1	18	1301174	2	1	1	1	0	572	1	4	0	168	18	0	0	100
random	6	1	19	1302625	5	3	3	1	0	1054	1	4	0	184	19	0	0	100
random	6	1	20	1304210	2	2	2	1	0	795	1	4	0	176	20	0	0	100
random	6	1	21	1305293	3	3	3	1	0	1037	1	4	0	184	21	0	0	100
random	6	1	22	1306681	6	1	1	1	0	810	1	4	0	168	22	0	0	100
random	6	1	23	1308434	4	2	2	1	0	880	1	4	0	176	23	0	0	100
random	6	1	24	1310053	1	4	4	1	0	699	1	4	0	192	24	0	0	100
random	6	1	25	1311540	4	3	3	1	0	1156	1	4	0	184	25	0	0	100
random	6	1	26	1313183	2	1	1	1	0	799	1	4	0	168	26	0	0	100
random	6	1	27	1314609	5	2	2	1	0	1051	1	4	0	176	27	0	0	100
random	6	1	28	1316097	6	4	4	1	0	636	1	4	0	192	28	0	0	100
random	6	1	29	1317636	1	3	3	1	0	1306	1	4	0	184	29	0	0	100
random	6	1	30	1319876	5	2	2	1	0	835	1	4	0	176	30	0	0	100
random	6	1	31	1321315	2	1	1	1	0	766	1	4	0	168	31	0	0	100
random	6	1	32	1323079	3	3	3	1	0	1124	1	4	0	184	32	0	0	100
random	6	1	33	1324559	6	4	4	1	0	597	1	4	0	192	33	0	0	100
random	6	1	34	1325793	4	2	2	1	0	985	1	4	0	176	34	0	0	100
random	6	1	35	1327136	3	4	4	1	0	976	1	4	0	192	35	0	0	100
random	6	1	36	1329145	1	1	1	1	0	643	1	4	0	168	36	0	0	100
random	6	1	37	1330804	3	4	4	1	0	917	1	4	0	192	37	0	0	100
random	6	1	38	1332693	5	3	3	1	0	909	1	4	0	184	38	0	0	100
random	6	1	39	1334284	6	1	1	1	0	761	1	4	0	168	39	0	0	100
random	6	1	40	1335719	1	2	2	1	0	684	1	4	0	176	40	0	0	100
random	6	1	41	1336717	2	3	3	1	0	858	1	4	0	184	41	0	0	100
random	6	1	42	1338192	4	4	4	1	0	668	1	4	0	192	42	0	0	100
random	6	1	43	1339310	1	2	2	1	0	796	1	4	0	176	43	0	0	100
random	6	1	44	1340946	6	3	3	1	0	791	1	4	0	184	44	0	0	100
random	6	1	45	1342731	3	1	1	1	0	1019	1	4	0	168	45	0	0	100
random	6	1	46	1344687	4	4	4	1	0	592	1	4	0	192	46	0	0	100
random	6	1	47	1346126	2	2	2	1	0	820	1	4	0	176	47	0	0	100
random	6	1	48	1347543	5	1	1	1	0	879	1	4	0	168	48	0	0	100
random	6	1	49	1349483	2	3	3	1	0	1005	1	4	0	184	49	0	0	100
random	6	1	50	1350862	3	1	1	1	0	827	1	4	0	168	50	0	0	100
random	6	1	51	1352000	1	4	4	1	0	691	1	4	0	192	51	0	0	100
random	6	1	52	1353598	5	3	3	1	0	1023	1	4	0	184	52	0	0	100
random	6	1	53	1355130	3	2	2	1	0	686	1	4	0	176	53	0	0	100
random	6	1	54	1356792	6	4	4	1	0	744	1	4	0	192	54	0	0	100
random	6	1	55	1357863	4	2	2	1	0	795	1	4	0	176	55	0	0	100
random	6	1	56	1359436	1	1	1	1	0	856	1	4	0	168	56	0	0	100
random	6	1	57	1360601	5	4	4	1	0	687	1	4	0	192	57	0	0	100
random	6	1	58	1361987	2	1	1	1	0	1236	1	4	0	168	58	0	0	100
random	6	1	59	1363834	6	2	2	1	0	861	1	4	0	176	59	0	0	100
random	6	1	60	1365538	4	3	3	1	0	813	1	4	0	184	60	0	0	100
random	6	1	61	1367494	1	2	2	1	0	939	1	4	0	176	61	0	0	100
random	6	1	62	1368788	6	4	4	1	0	748	1	4	0	192	62	0	0	100
random	6	1	63	1370016	4	1	1	1	0	760	1	4	0	168	63	0	0	100
random	6	1	64	1371614	2	2	2	1	0	828	1	4	0	176	64	0	0	100
random	6	1	65	1373059	4	3	3	1	0	895	1	4	0	184	65	0	0	100
random	6	1	66	1374935	3	1	1	1	0	920	1	4	0	168	66	0	0	100
random	6	1	67	1376595	1	3	3	1	0	1314	1	4	0	184	67	0	0	100
random	6	1	68	1378831	5	4	4	1	0	739	1	4	0	192	68	0	0	100
random	6	1	69	1380501	2	2	2	1	0	876	1	4	0	176	69	0	0	100
random	6	1	70	1382125	3	1	1	1	0	871	1	4	0	168	70	0	0	100
random	6	1	71	1383831	5	4	4	1	0	799	1	4	0	192	71	0	0	100
random	6	1	72	1385327	6	3	3	1	0	1095	1	4	0	184	72	0	0	100
random	6	1	73	1387627	2	1	1	1	0	982	1	4	0	168	73	0	0	100
random	6	1	74	1389492	5	3	3	1	0	1519	1	4	0	184	74	0	0	100
random	6	1	75	1391605	1	4	4	1	0	733	1	4	0	192	75	0	0	100
random	6	1	76	1392964	6	2	0	1	2	0	3	4	0	176	75	0	1	99
random	6	1	77	1396138	2	1	1	1	0	1030	1	4	0	168	76	0	1	99
random	6	1	78	1397753	4	4	4	1	0	1697	1	4	0	192	77	0	1	99
random	6	1	79	1400254	3	2	2	1	0	912	1	4	0	176	78	0	1	99
random	6	1	80	1401919	4	3	3	1	0	953	1	4	0	184	79	0	1	99
random	6	1	81	1403781	1	4	4	1	0	889	1	4	0	192	80	0	1	99
random	6	1	82	1405661	5	1	1	1	0	810	1	4	0	168	81	0	1	99
random	6	1	83	1406947	3	2	2	1	0	1196	1	4	0	176	82	0	1	99
random	6	1	84	1409051	6	3	3	1	0	707	1	4	0	184	83	0	1	99
random	6	1	85	1411034	3	2	2	1	0	870	1	4	0	176	84	0	1	99
random	6	1	86	1412911	1	3	3	1	0	911	1	4	0	184	85	0	1	99
random	6	1	87	1414812	4	4	4	1	0	1166	1	4	0	192	86	0	1	99
random	6	1	88	1416472	2	1	1	1	0	696	1	4	0	168	87	0	1	99
random	6	1	89	1418057	6	4	4	1	0	893	1	4	0	192	88	0	1	99
random	6	1	90	1419985	3	3	3	1	0	972	1	4	0	184	89	0	1	99
random	6	1	91	1421382	5	4	4	1	0	824	1	4	0	192	90	0	1	99
random	6	1	92	1422878	1	2	2	1	0	713	1	4	0	176	91	0	1	99
random	6	1	93	1424631	5	1	1	1	0	710	1	4	0	168	92	0	1	99
random	6	1	94	1425770	4	3	3	1	0	1158	1	4	0	184	93	0	1	99
random	6	1	95	1427861	6	1	1	1	0	806	1	4	0	168	94	0	1	99
random	6	1	96	1429532	2	2	2	1	0	799	1	4	0	176	95	0	1	99
random	6	1	97	1431133	4	3	3	1	0	995	1	4	0	184	96	0	1	99
random	6	1	98	1433060	3	2	2	1	0	834	1	4	0	176	97	0	1	99
random	6	1	99	1434754	6	3	3	1	0	1114	1	4	0	184	98	0	1	99
random	6	1	100	1436719	1	4	4	1	0	727	1	4	0	192	99	0	1	99
random	6	1	101	1438144	4	1	1	1	0	627	1	4	0	168	100	0	1	99
random	6	1	102	1439650	5	2	2	1	0	923	1	4	0	176	101	0	1	99
random	6	1	103	1441590	2	4	4	1	0	840	1	4	0	192	102	0	1	99
random	6	1	104	1442854	3	1	1	1	0	699	1	4	0	168	103	0	1	99
random	6	1	105	1444384	1	3	3	1	0	1026	1	4	0	184	104	0	1	99
random	6	1	106	1446248	2	2	2	1	0	723	1	4	0	176	105	0	1	99
random	6	1	107	1447374	5	4	4	1	0	643	1	4	0	192	106	0	1	99
random	6	1	108	1448401	6	1	1	1	0	640	1	4	0	168	107	0	1	99
random	6	1	109	1450113	5	4	4	1	0	703	1	4	0	192	108	0	1	99
random	6	1	110	1451593	6	3	3	2	0	1473	2	4	0	184	109	0	1	99
random	6	1	111	1453873	2	2	2	1	0	807	1	4	0	176	110	0	1	99
random	6	1	112	1455037	3	1	1	1	0	799	1	4	0	168	111	0	1	99
random	6	1	113	1456704	1	2	2	1	0	1016	1	4	0	176	112	0	1	99
random	6	1	114	1458114	2	3	3	1	0	812	1	4	0	184	113	0	1	99
random	6	1	115	1459946	3	1	1	1	0	983	1	4	0	168	114	0	1	99
random	6	1	116	1461674	4	4	4	1	0	717	1	4	0	192	115	0	1	99
random	6	1	117	1463061	6	1	1	1	0	771	1	4	0	168	116	0	1	99
random	6	1	118	1464596	5	3	3	1	0	1138	1	4	0	184	117	0	1	99
random	6	1	119	1466680	1	4	4	1	0	682	1	4	0	192	118	0	1	99
random	6	1	120	1467667	4	2	2	1	0	1632	1	4	0	176	119	0	1	99
fixed	7	1	1	1470828	4	1	1	1	0	794	1	4	0	200	1	0	0	100
fixed	7	1	2	1472607	1	2	2	1	0	927	1	4	0	208	2	0	0	100
fixed	7	1	3	1474056	6	4	4	1	0	745	1	4	0	224	3	0	0	100
fixed	7	1	4	1475438	2	1	1	1	0	719	1	4	0	200	4	0	0	100
fixed	7	1	5	1477113	5	3	3	1	0	984	1	4	0	216	5	0	0	100
fixed	7	1	6	1479131	6	4	4	1	0	723	1	4	0	224	6	0	0	100
fixed	7	1	7	1480742	3	1	1	1	0	646	1	4	0	200	7	0	0	100
fixed	7	1	8	1482320	2	3	3	1	0	948	1	4	0	216	8	0	0	100
fixed	7	1	9	1483716	3	2	2	1	0	1168	1	4	0	208	9	0	0	100
fixed	7	1	10	1485235	1	4	4	1	0	864	1	4	0	224	10	0	0	100
fixed	7	1	11	1486752	5	2	2	1	0	1039	1	4	0	208	11	0	0	100
fixed	7	1	12	1488270	4	3	3	1	0	1008	1	4	0	216	12	0	0	100
fixed	7	2	1	1490161	4	1	1	1	0	671	1	4	0	200	1	0	0	8
fixed	7	2	2	1491546	1	2	2	1	0	924	1	4	0	208	2	0	0	14
fixed	7	2	3	1493071	6	4	4	1	0	740	1	4	0	224	3	0	0	20
fixed	7	2	4	1494595	2	1	1	1	0	931	1	4	0	200	4	0	0	25
fixed	7	2	5	1496221	5	3	3	1	0	991	1	4	0	216	5	0	0	29
fixed	7	2	6	1498206	6	4	4	1	0	891	1	4	0	224	6	0	0	33
fixed	7	2	7	1499453	3	1	1	1	0	821	1	4	0	200	7	0	0	37
fixed	7	2	8	1500695	2	3	3	1	0	1201	1	4	0	216	8	0	0	40
fixed	7	2	9	1502808	3	2	2	1	0	815	1	4	0	208	9	0	0	43
fixed	7	2	10	1504190	1	4	4	1	0	589	1	4	0	224	10	0	0	45
fixed	7	2	11	1505359	5	2	2	1	0	1132	1	4	0	208	11	0	0	48
fixed	7	2	12	1506810	4	3	3	1	0	830	1	4	0	216	12	0	0	50
fixed	7	3	1	1508807	4	1	1	1	0	897	1	4	0	200	1	0	0	4
fixed	7	3	2	1510328	1	2	2	1	0	817	1	4	0	208	2	0	0	8
fixed	7	3	3	1512051	6	4	4	1	0	632	1	4	0	224	3	0	0	11
fixed	7	3	4	1513423	2	1	1	1	0	662	1	4	0	200	4	0	0	14
fixed	7	3	5	1514862	5	3	3	1	0	481	1	4	0	216	5	0	0	17
fixed	7	3	6	1515658	6	4	4	1	0	687	1	4	0	224	6	0	0	20
fixed	7	3	7	1516791	3	1	1	1	0	687	1	4	0	200	7	0	0	23
fixed	7	3	8	1518058	2	3	3	1	0	1874	1	4	0	216	8	0	0	25
fixed	7	3	9	1520562	3	2	2	1	0	680	1	4	0	208	9	0	0	27
fixed	7	3	10	1521714	1	4	4	1	0	799	1	4	0	224	10	0	0	29
fixed	7	3	11	1523465	5	2	2	1	0	1205	1	4	0	208	11	0	0	31
fixed	7	3	12	1525434	4	3	3	1	0	1169	1	4	0	216	12	0	0	33
fixed	7	4	1	1527520	4	1	1	1	0	1921	1	4	0	200	1	0	0	3
fixed	7	4	2	1530067	1	2	2	1	0	1205	1	4	0	208	2	0	0	5
fixed	7	4	3	1531717	6	4	4	1	0	935	1	4	0	224	3	0	0	8
fixed	7	4	4	1533665	2	1	1	1	0	804	1	4	0	200	4	0	0	10
fixed	7	4	5	1535150	5	3	3	1	0	1070	1	4	0	216	5	0	0	12
fixed	7	4	6	1536579	6	4	4	1	0	825	1	4	0	224	6	0	0	14
fixed	7	4	7	1537935	3	1	1	1	0	664	1	4	0	200	7	0	0	16
fixed	7	4	8	1539584	2	3	3	1	0	1498	1	4	0	216	8	0	0	18
fixed	7	4	9	1541954	3	2	2	1	0	773	1	4	0	208	9	0	0	20
fixed	7	4	10	1543720	1	4	4	1	0	827	1	4	0	224	10	0	0	22
fixed	7	4	11	1545415	5	2	2	1	0	899	1	4	0	208	11	0	0	23
fixed	7	4	12	1546999	4	3	3	1	0	959	1	4	0	216	12	0	0	25
fixed	7	5	1	1548872	4	1	1	1	0	808	1	4	0	200	1	0	0	2
fixed	7	5	2	1550332	1	2	2	1	0	939	1	4	0	208	2	0	0	4
fixed	7	5	3	1551708	6	4	4	1	0	737	1	4	0	224	3	0	0	6
fixed	7	5	4	1553018	2	1	1	1	0	1177	1	4	0	200	4	0	0	8
fixed	7	5	5	1554689	5	3	3	1	0	1530	1	4	0	216	5	0	0	9
fixed	7	5	6	1556961	6	4	4	1	0	690	1	4	0	224	6	0	0	11
fixed	7	5	7	1558527	3	1	1	1	0	623	1	4	0	200	7	0	0	13
fixed	7	5	8	1559920	2	3	3	1	0	1572	1	4	0	216	8	0	0	14
fixed	7	5	9	1562200	3	2	2	1	0	652	1	4	0	208	9	0	0	16
fixed	7	5	10	1563325	1	4	4	1	0	676	1	4	0	224	10	0	0	17
fixed	7	5	11	1564308	5	2	2	1	0	930	1	4	0	208	11	0	0	19
fixed	7	5	12	1565990	4	3	3	1	0	916	1	4	0	216	12	0	0	20
fixed	7	6	1	1567551	4	1	1	1	0	785	1	4	0	200	1	0	0	2
fixed	7	6	2	1568926	1	2	2	1	0	863	1	4	0	208	2	0	0	3
fixed	7	6	3	1570259	6	4	4	1	0	662	1	4	0	224	3	0	0	5
fixed	7	6	4	1571764	2	1	1	1	0	559	1	4	0	200	4	0	0	6
fixed	7	6	5	1572662	5	3	3	1	0	985	1	4	0	216	5	0	0	8
fixed	7	6	6	1574180	6	4	4	1	0	689	1	4	0	224	6	0	0	9
fixed	7	6	7	1575850	3	1	1	1	0	714	1	4	0	200	7	0	0	10
fixed	7	6	8	1577566	2	3	3	1	0	993	1	4	0	216	8	0	0	12
fixed	7	6	9	1579337	3	2	2	1	0	558	1	4	0	208	9	0	0	13
fixed	7	6	10	1580501	1	4	4	1	0	637	1	4	0	224	10	0	0	14
fixed	7	6	11	1581992	5	2	2	1	0	822	1	4	0	208	11	0	0	15
fixed	7	6	12	1583845	4	3	3	1	0	999	1	4	0	216	12	0	0	17
fixed	7	7	1	1585913	4	1	1	1	0	639	1	4	0	200	1	0	0	1
fixed	7	7	2	1587457	1	2	2	1	0	870	1	4	0	208	2	0	0	3
fixed	7	7	3	1588857	6	4	4	1	0	635	1	4	0	224	3	0	0	4
fixed	7	7	4	1590422	2	1	1	1	0	664	1	4	0	200	4	0	0	5
fixed	7	7	5	1591559	5	3	3	1	0	824	1	4	0	216	5	0	0	6
fixed	7	7	6	1593359	6	4	4	1	0	724	1	4	0	224	6	0	0	8
fixed	7	7	7	1594698	3	1	1	1	0	668	1	4	0	200	7	0	0	9
fixed	7	7	8	1596363	2	3	3	1	0	1021	1	4	0	216	8	0	0	10
fixed	7	7	9	1597981	3	2	2	1	0	704	1	4	0	208	9	0	0	11
fixed	7	7	10	1599035	1	4	4	1	0	716	1	4	0	224	10	0	0	12
fixed	7	7	11	1600242	5	2	2	1	0	945	1	4	0	208	11	0	0	13
fixed	7	7	12	1602078	4	3	3	1	0	987	1	4	0	216	12	0	0	14
fixed	7	8	1	1604208	4	1	1	1	0	784	1	4	0	200	1	0	0	1
fixed	7	8	2	1605777	1	2	2	1	0	838	1	4	0	208	2	0	0	2
fixed	7	8	3	1607085	6	4	4	1	0	623	1	4	0	224	3	0	0	3
fixed	7	8	4	1608580	2	1	1	1	0	1024	1	4	0	200	4	0	0	5
fixed	7	8	5	1610068	5	3	3	1	0	785	1	4	0	216	5	0	0	6
fixed	7	8	6	1611795	6	4	4	1	0	823	1	4	0	224	6	0	0	7
fixed	7	8	7	1613248	3	1	1	1	0	810	1	4	0	200	7	0	0	8
fixed	7	8	8	1614515	2	3	3	1	0	1116	1	4	0	216	8	0	0	9
fixed	7	8	9	1616234	3	2	2	1	0	636	1	4	0	208	9	0	0	10
fixed	7	8	10	1617398	1	4	4	1	0	586	1	4	0	224	10	0	0	11
fixed	7	8	11	1618479	5	2	2	1	0	988	1	4	0	208	11	0	0	12
fixed	7	8	12	1620166	4	3	3	1	0	1205	1	4	0	216	12	0	0	13
fixed	7	9	1	1622302	4	1	1	1	0	658	1	4	0	200	1	0	0	1
fixed	7	9	2	1623609	1	2	2	1	0	771	1	4	0	208	2	0	0	2
fixed	7	9	3	1624733	6	4	4	1	0	643	1	4	0	224	3	0	0	3
fixed	7	9	4	1626324	2	1	1	1	0	760	1	4	0	200	4	0	0	4
fixed	7	9	5	1627874	5	3	3	1	0	886	1	4	0	216	5	0	0	5
fixed	7	9	6	1629407	6	4	4	1	0	661	1	4	0	224	6	0	0	6
fixed	7	9	7	1630551	3	1	1	1	0	613	1	4	0	200	7	0	0	7
fixed	7	9	8	1631935	2	3	3	1	0	1034	1	4	0	216	8	0	0	8
fixed	7	9	9	1633544	3	2	2	1	0	694	1	4	0	208	9	0	0	9
fixed	7	9	10	1634859	1	4	4	1	0	727	1	4	0	224	10	0	0	9
fixed	7	9	11	1636394	5	2	2	1	0	886	1	4	0	208	11	0	0	10
fixed	7	9	12	1637902	4	3	3	1	0	1006	1	4	0	216	12	0	0	11
fixed	7	10	1	1639578	4	1	1	1	0	638	1	4	0	200	1	0	0	1
fixed	7	10	2	1640572	1	2	2	1	0	1029	1	4	0	208	2	0	0	2
fixed	7	10	3	1642256	6	4	4	1	0	645	1	4	0	224	3	0	0	3
fixed	7	10	4	1643268	2	1	1	1	0	762	1	4	0	200	4	0	0	4
fixed	7	10	5	1644593	5	3	3	1	0	786	1	4	0	216	5	0	0	4
fixed	7	10	6	1646321	6	4	4	1	0	641	1	4	0	224	6	0	0	5
fixed	7	10	7	1647890	3	1	1	1	0	599	1	4	0	200	7	0	0	6
fixed	7	10	8	1649234	2	3	3	1	0	869	1	4	0	216	8	0	0	7
fixed	7	10	9	1651093	3	2	2	1	0	623	1	4	0	208	9	0	0	8
fixed	7	10	10	1652294	1	4	4	1	0	612	1	4	0	224	10	0	0	8
fixed	7	10	11	1653377	5	2	2	1	0	774	1	4	0	208	11	0	0	9
fixed	7	10	12	1654972	4	3	3	1	0	1011	1	4	0	216	12	0	0	10
