type	block	sequ.	trial	time	Pos.	Color	Button	NumRsp	Resp_1	RT_1	R_Code	Resp_2	RT_2	Trigg.	n_hit	n_inc	n_miss	score_%

random	1	1	1	3464	6	1	1	1	0	919	1	4	0	8	1	0	0	100
random	1	1	2	4734	4	4	4	1	0	761	1	4	0	32	2	0	0	100
random	1	1	3	5974	2	2	2	1	0	693	1	4	0	16	3	0	0	100
random	1	1	4	7680	3	3	3	1	0	484	1	4	0	24	4	0	0	100
random	1	1	5	8538	5	2	2	1	0	976	1	4	0	16	5	0	0	100
random	1	1	6	10309	1	4	4	1	0	629	1	4	0	32	6	0	0	100
random	1	1	7	11609	6	1	1	1	0	686	1	4	0	8	7	0	0	100
random	1	1	8	12752	2	3	3	1	0	1214	1	4	0	24	8	0	0	100
random	1	1	9	14954	4	2	2	1	0	641	1	4	0	16	9	0	0	100
random	1	1	10	16613	1	1	1	1	0	714	1	4	0	8	10	0	0	100
random	1	1	11	18262	5	4	4	1	0	564	1	4	0	32	11	0	0	100
random	1	1	12	19712	3	3	3	1	0	943	1	4	0	24	12	0	0	100
random	1	1	13	21325	5	2	2	1	0	882	1	4	0	16	13	0	0	100
random	1	1	14	22588	1	4	4	1	0	789	1	4	0	32	14	0	0	100
random	1	1	15	23785	3	1	1	1	0	650	1	4	0	8	15	0	0	100
random	1	1	16	24962	4	3	3	1	0	977	1	4	0	24	16	0	0	100
random	1	1	17	26861	6	4	4	1	0	936	1	4	0	32	17	0	0	100
random	1	1	18	28448	2	1	1	1	0	605	1	4	0	8	18	0	0	100
random	1	1	19	30068	5	3	3	1	0	1184	1	4	0	24	19	0	0	100
random	1	1	20	31722	2	2	2	1	0	618	1	4	0	16	20	0	0	100
random	1	1	21	33051	3	3	3	1	0	834	1	4	0	24	21	0	0	100
random	1	1	22	34820	6	1	1	1	0	783	1	4	0	8	22	0	0	100
random	1	1	23	36556	4	2	2	1	0	846	1	4	0	16	23	0	0	100
random	1	1	24	38158	1	4	4	1	0	602	1	4	0	32	24	0	0	100
random	1	1	25	39554	4	3	3	1	0	1070	1	4	0	24	25	0	0	100
random	1	1	26	41433	2	1	1	1	0	695	1	4	0	8	26	0	0	100
random	1	1	27	42509	5	2	2	1	0	874	1	4	0	16	27	0	0	100
random	1	1	28	44019	6	4	4	1	0	681	1	4	0	32	28	0	0	100
random	1	1	29	45189	1	3	3	1	0	1480	1	4	0	24	29	0	0	100
random	1	1	30	47659	5	2	2	1	0	775	1	4	0	16	30	0	0	100
random	1	1	31	49435	2	1	1	1	0	684	1	4	0	8	31	0	0	100
random	1	1	32	50768	3	3	3	1	0	883	1	4	0	24	32	0	0	100
random	1	1	33	52636	6	4	4	1	0	636	1	4	0	32	33	0	0	100
random	1	1	34	54208	4	2	2	1	0	946	1	4	0	16	34	0	0	100
random	1	1	35	55582	3	4	4	1	0	808	1	4	0	32	35	0	0	100
random	1	1	36	57422	1	1	1	1	0	890	1	4	0	8	36	0	0	100
random	1	1	37	58986	3	4	4	1	0	823	1	4	0	32	37	0	0	100
random	1	1	38	60205	5	3	3	1	0	1140	1	4	0	24	38	0	0	100
random	1	1	39	61967	6	1	1	1	0	801	1	4	0	8	39	0	0	100
random	1	1	40	63711	1	2	2	1	0	888	1	4	0	16	40	0	0	100
random	1	1	41	64975	2	3	3	1	0	826	1	4	0	24	41	0	0	100
random	1	1	42	66618	4	4	4	1	0	596	1	4	0	32	42	0	0	100
random	1	1	43	68102	1	2	2	1	0	1062	1	4	0	16	43	0	0	100
random	1	1	44	69477	6	3	3	1	0	1147	1	4	0	24	44	0	0	100
random	1	1	45	70951	3	1	1	1	0	725	1	4	0	8	45	0	0	100
random	1	1	46	72605	4	4	4	1	0	686	1	4	0	32	46	0	0	100
random	1	1	47	74020	2	2	2	1	0	986	1	4	0	16	47	0	0	100
random	1	1	48	76010	5	1	1	1	0	702	1	4	0	8	48	0	0	100
random	1	1	49	77698	2	3	3	1	0	871	1	4	0	24	49	0	0	100
random	1	1	50	79593	3	1	1	1	0	815	1	4	0	8	50	0	0	100
random	1	1	51	80982	1	4	4	1	0	668	1	4	0	32	51	0	0	100
random	1	1	52	82336	5	3	3	1	0	971	1	4	0	24	52	0	0	100
random	1	1	53	83795	3	2	2	1	0	780	1	4	0	16	53	0	0	100
random	1	1	54	84913	6	4	4	1	0	1101	1	4	0	32	54	0	0	100
random	1	1	55	86496	4	2	2	1	0	866	1	4	0	16	55	0	0	100
random	1	1	56	88285	1	1	1	1	0	823	1	4	0	8	56	0	0	100
random	1	1	57	90112	5	4	4	1	0	833	1	4	0	32	57	0	0	100
random	1	1	58	91454	2	1	1	1	0	912	1	4	0	8	58	0	0	100
random	1	1	59	93058	6	2	2	1	0	932	1	4	0	16	59	0	0	100
random	1	1	60	94334	4	3	3	1	0	903	1	4	0	24	60	0	0	100
random	1	1	61	96194	1	2	2	1	0	991	1	4	0	16	61	0	0	100
random	1	1	62	98040	6	4	4	1	0	809	1	4	0	32	62	0	0	100
random	1	1	63	99375	4	1	1	1	0	713	1	4	0	8	63	0	0	100
random	1	1	64	100952	2	2	2	1	0	934	1	4	0	16	64	0	0	100
random	1	1	65	102893	4	3	3	1	0	811	1	4	0	24	65	0	0	100
random	1	1	66	104487	3	1	1	1	0	800	1	4	0	8	66	0	0	100
random	1	1	67	105888	1	3	3	1	0	1133	1	4	0	24	67	0	0	100
random	1	1	68	107567	5	4	4	1	0	790	1	4	0	32	68	0	0	100
random	1	1	69	108999	2	2	2	1	0	777	1	4	0	16	69	0	0	100
random	1	1	70	110415	3	1	1	1	0	733	1	4	0	8	70	0	0	100
random	1	1	71	111535	5	4	4	1	0	710	1	4	0	32	71	0	0	100
random	1	1	72	112844	6	3	3	1	0	1110	1	4	0	24	72	0	0	100
random	1	1	73	114706	2	1	1	1	0	759	1	4	0	8	73	0	0	100
random	1	1	74	115845	5	3	3	1	0	1191	1	4	0	24	74	0	0	100
random	1	1	75	117355	1	4	4	1	0	687	1	4	0	32	75	0	0	100
random	1	1	76	118843	6	2	2	1	0	784	1	4	0	16	76	0	0	100
random	1	1	77	119967	2	1	1	1	0	712	1	4	0	8	77	0	0	100
random	1	1	78	121576	4	4	4	1	0	644	1	4	0	32	78	0	0	100
random	1	1	79	122956	3	2	2	1	0	1266	1	4	0	16	79	0	0	100
random	1	1	80	124694	4	3	3	1	0	1144	1	4	0	24	80	0	0	100
random	1	1	81	126336	1	4	4	1	0	739	1	4	0	32	81	0	0	100
random	1	1	82	127673	5	1	1	1	0	866	1	4	0	8	82	0	0	100
random	1	1	83	128881	3	2	2	1	0	951	1	4	0	16	83	0	0	100
random	1	1	84	130439	6	3	3	1	0	933	1	4	0	24	84	0	0	100
random	1	1	85	132633	3	2	2	1	0	1008	1	4	0	16	85	0	0	100
random	1	1	86	134143	1	3	3	1	0	1200	1	4	0	24	86	0	0	100
random	1	1	87	135877	4	4	4	1	0	951	1	4	0	32	87	0	0	100
random	1	1	88	137564	2	1	1	1	0	567	1	4	0	8	88	0	0	100
random	1	1	89	138631	6	4	4	1	0	730	1	4	0	32	89	0	0	100
random	1	1	90	140312	3	3	3	1	0	1035	1	4	0	24	90	0	0	100
random	1	1	91	142034	5	4	4	1	0	954	1	4	0	32	91	0	0	100
random	1	1	92	143710	1	2	2	1	0	1035	1	4	0	16	92	0	0	100
random	1	1	93	145653	5	1	1	1	0	585	1	4	0	8	93	0	0	100
random	1	1	94	147203	4	3	3	1	0	1119	1	4	0	24	94	0	0	100
random	1	1	95	149203	6	1	1	1	0	843	1	4	0	8	95	0	0	100
random	1	1	96	150788	2	2	2	1	0	895	1	4	0	16	96	0	0	100
random	1	1	97	152699	4	3	3	1	0	966	1	4	0	24	97	0	0	100
random	1	1	98	154584	3	2	2	1	0	758	1	4	0	16	98	0	0	100
random	1	1	99	156180	6	3	3	1	0	931	1	4	0	24	99	0	0	100
random	1	1	100	157956	1	4	4	1	0	600	1	4	0	32	100	0	0	100
random	1	1	101	158915	4	1	1	1	0	831	1	4	0	8	101	0	0	100
random	1	1	102	160234	5	2	2	1	0	943	1	4	0	16	102	0	0	100
random	1	1	103	161664	2	4	4	1	0	779	1	4	0	32	103	0	0	100
random	1	1	104	162968	3	1	1	1	0	939	1	4	0	8	104	0	0	100
random	1	1	105	164263	1	3	3	1	0	900	1	4	0	24	105	0	0	100
random	1	1	106	166187	2	2	2	1	0	915	1	4	0	16	106	0	0	100
random	1	1	107	167952	5	4	4	1	0	640	1	4	0	32	107	0	0	100
random	1	1	108	168998	6	1	1	1	0	716	1	4	0	8	108	0	0	100
random	1	1	109	170610	5	4	4	1	0	975	1	4	0	32	109	0	0	100
random	1	1	110	172448	6	3	3	1	0	1002	1	4	0	24	110	0	0	100
random	1	1	111	174131	2	2	2	1	0	747	1	4	0	16	111	0	0	100
random	1	1	112	175814	3	1	1	1	0	787	1	4	0	8	112	0	0	100
random	1	1	113	177330	1	2	2	1	0	835	1	4	0	16	113	0	0	100
random	1	1	114	178746	2	3	3	1	0	855	1	4	0	24	114	0	0	100
random	1	1	115	179947	3	1	1	1	0	812	1	4	0	8	115	0	0	100
random	1	1	116	181549	4	4	4	1	0	665	1	4	0	32	116	0	0	100
random	1	1	117	182797	6	1	1	1	0	891	1	4	0	8	117	0	0	100
random	1	1	118	184358	5	3	3	1	0	793	1	4	0	24	118	0	0	100
random	1	1	119	185923	1	4	4	1	0	743	1	4	0	32	119	0	0	100
random	1	1	120	187230	4	2	2	1	0	888	1	4	0	16	120	0	0	100
fixed	2	1	1	188969	4	1	1	1	0	734	1	4	0	40	1	0	0	100
fixed	2	1	2	190567	1	2	2	1	0	818	1	4	0	48	2	0	0	100
fixed	2	1	3	191861	6	4	4	1	0	795	1	4	0	64	3	0	0	100
fixed	2	1	4	193620	2	1	1	1	0	801	1	4	0	40	4	0	0	100
fixed	2	1	5	194708	5	3	3	1	0	803	1	4	0	56	5	0	0	100
fixed	2	1	6	196202	6	4	4	1	0	820	1	4	0	64	6	0	0	100
fixed	2	1	7	197728	3	1	1	1	0	635	1	4	0	40	7	0	0	100
fixed	2	1	8	198847	2	3	3	1	0	963	1	4	0	56	8	0	0	100
fixed	2	1	9	200190	3	2	2	1	0	707	1	4	0	48	9	0	0	100
fixed	2	1	10	201419	1	4	4	1	0	710	1	4	0	64	10	0	0	100
fixed	2	1	11	202616	5	2	2	1	0	900	1	4	0	48	11	0	0	100
fixed	2	1	12	204144	4	3	3	1	0	1075	1	4	0	56	12	0	0	100
fixed	2	2	1	206381	4	1	1	1	0	1060	1	4	0	40	13	0	0	100
fixed	2	2	2	208355	1	2	2	1	0	1209	1	4	0	48	14	0	0	100
fixed	2	2	3	210218	6	4	4	1	0	634	1	4	0	64	15	0	0	100
fixed	2	2	4	211778	2	1	1	1	0	744	1	4	0	40	16	0	0	100
fixed	2	2	5	213483	5	3	3	1	0	800	1	4	0	56	17	0	0	100
fixed	2	2	6	214886	6	4	4	1	0	676	1	4	0	64	18	0	0	100
fixed	2	2	7	216484	3	1	1	1	0	713	1	4	0	40	19	0	0	100
fixed	2	2	8	217715	2	3	3	1	0	1020	1	4	0	56	20	0	0	100
fixed	2	2	9	219059	3	2	2	1	0	691	1	4	0	48	21	0	0	100
fixed	2	2	10	220288	1	4	4	1	0	632	1	4	0	64	22	0	0	100
fixed	2	2	11	221729	5	2	2	1	0	1003	1	4	0	48	23	0	0	100
fixed	2	2	12	223447	4	3	3	1	0	1114	1	4	0	56	24	0	0	100
fixed	2	3	1	225845	4	1	1	1	0	708	1	4	0	40	25	0	0	100
fixed	2	3	2	227283	1	2	2	1	0	791	1	4	0	48	26	0	0	100
fixed	2	3	3	228599	6	4	4	1	0	671	1	4	0	64	27	0	0	100
fixed	2	3	4	229576	2	1	1	1	0	870	1	4	0	40	28	0	0	100
fixed	2	3	5	231260	5	3	3	1	0	791	1	4	0	56	29	0	0	100
fixed	2	3	6	232724	6	4	4	1	0	721	1	4	0	64	30	0	0	100
fixed	2	3	7	234046	3	1	1	1	0	920	1	4	0	40	31	0	0	100
fixed	2	3	8	235305	2	3	3	1	0	1459	1	4	0	56	32	0	0	100
fixed	2	3	9	237604	3	2	2	1	0	690	1	4	0	48	33	0	0	100
fixed	2	3	10	239109	1	4	4	1	0	698	1	4	0	64	34	0	0	100
fixed	2	3	11	240358	5	2	2	1	0	1110	1	4	0	48	35	0	0	100
fixed	2	3	12	242179	4	3	3	1	0	840	1	4	0	56	36	0	0	100
fixed	2	4	1	244123	4	1	1	1	0	854	1	4	0	40	37	0	0	100
fixed	2	4	2	245314	1	2	2	1	0	947	1	4	0	48	38	0	0	100
fixed	2	4	3	246911	6	4	4	1	0	600	1	4	0	64	39	0	0	100
fixed	2	4	4	248260	2	1	1	1	0	695	1	4	0	40	40	0	0	100
fixed	2	4	5	249519	5	3	3	1	0	953	1	4	0	56	41	0	0	100
fixed	2	4	6	251306	6	4	4	1	0	637	1	4	0	64	42	0	0	100
fixed	2	4	7	252590	3	1	1	1	0	704	1	4	0	40	43	0	0	100
fixed	2	4	8	254193	2	3	3	1	0	1412	1	4	0	56	44	0	0	100
fixed	2	4	9	256474	3	2	2	1	0	907	1	4	0	48	45	0	0	100
fixed	2	4	10	257997	1	4	4	1	0	818	1	4	0	64	46	0	0	100
fixed	2	4	11	259591	5	2	2	1	0	1543	1	4	0	48	47	0	0	100
fixed	2	4	12	261562	4	3	3	1	0	852	1	4	0	56	48	0	0	100
fixed	2	5	1	263654	4	1	1	1	0	818	1	4	0	40	49	0	0	100
fixed	2	5	2	264891	1	2	2	1	0	846	1	4	0	48	50	0	0	100
fixed	2	5	3	266484	6	4	4	1	0	595	1	4	0	64	51	0	0	100
fixed	2	5	4	267993	2	1	1	1	0	723	1	4	0	40	52	0	0	100
fixed	2	5	5	269518	5	3	3	1	0	962	1	4	0	56	53	0	0	100
fixed	2	5	6	270886	6	4	4	1	0	728	1	4	0	64	54	0	0	100
fixed	2	5	7	272263	3	1	1	1	0	1054	1	4	0	40	55	0	0	100
fixed	2	5	8	273714	2	3	3	1	0	1408	1	4	0	56	56	0	0	100
fixed	2	5	9	275971	3	2	2	1	0	769	1	4	0	48	57	0	0	100
fixed	2	5	10	277212	1	4	4	1	0	677	1	4	0	64	58	0	0	100
fixed	2	5	11	278253	5	2	2	1	0	913	1	4	0	48	59	0	0	100
fixed	2	5	12	279658	4	3	3	1	0	957	1	4	0	56	60	0	0	100
fixed	2	6	1	281231	4	1	1	1	0	674	1	4	0	40	61	0	0	100
fixed	2	6	2	282793	1	2	2	1	0	976	1	4	0	48	62	0	0	100
fixed	2	6	3	284194	6	4	4	1	0	725	1	4	0	64	63	0	0	100
fixed	2	6	4	285383	2	1	1	1	0	771	1	4	0	40	64	0	0	100
fixed	2	6	5	286515	5	3	3	1	0	1226	1	4	0	56	65	0	0	100
fixed	2	6	6	288206	6	4	4	1	0	659	1	4	0	64	66	0	0	100
fixed	2	6	7	289356	3	1	1	1	0	738	1	4	0	40	67	0	0	100
fixed	2	6	8	290926	2	3	3	1	0	944	1	4	0	56	68	0	0	100
fixed	2	6	9	292247	3	2	2	1	0	688	1	4	0	48	69	0	0	100
fixed	2	6	10	293337	1	4	4	1	0	578	1	4	0	64	70	0	0	100
fixed	2	6	11	294843	5	2	2	1	0	882	1	4	0	48	71	0	0	100
fixed	2	6	12	296740	4	3	3	1	0	1337	1	4	0	56	72	0	0	100
fixed	2	7	1	298924	4	1	1	1	0	637	1	4	0	40	73	0	0	100
fixed	2	7	2	300256	1	2	2	1	0	1301	1	4	0	48	74	0	0	100
fixed	2	7	3	302404	6	4	4	1	0	633	1	4	0	64	75	0	0	100
fixed	2	7	4	303338	2	1	1	1	0	858	1	4	0	40	76	0	0	100
fixed	2	7	5	304865	5	3	3	1	0	841	1	4	0	56	77	0	0	100
fixed	2	7	6	306712	6	4	4	1	0	627	1	4	0	64	78	0	0	100
fixed	2	7	7	307764	3	1	1	1	0	742	1	4	0	40	79	0	0	100
fixed	2	7	8	309183	2	3	3	1	0	1066	1	4	0	56	80	0	0	100
fixed	2	7	9	311162	3	2	2	1	0	751	1	4	0	48	81	0	0	100
fixed	2	7	10	312666	1	4	4	1	0	727	1	4	0	64	82	0	0	100
fixed	2	7	11	314179	5	2	2	1	0	903	1	4	0	48	83	0	0	100
fixed	2	7	12	316040	4	3	3	1	0	920	1	4	0	56	84	0	0	100
fixed	2	8	1	317938	4	1	1	1	0	679	1	4	0	40	85	0	0	100
fixed	2	8	2	319592	1	2	2	1	0	857	1	4	0	48	86	0	0	100
fixed	2	8	3	320983	6	4	4	1	0	543	1	4	0	64	87	0	0	100
fixed	2	8	4	321910	2	1	1	1	0	672	1	4	0	40	88	0	0	100
fixed	2	8	5	323408	5	3	3	1	0	840	1	4	0	56	89	0	0	100
fixed	2	8	6	324947	6	4	4	1	0	663	1	4	0	64	90	0	0	100
fixed	2	8	7	326508	3	1	1	1	0	692	1	4	0	40	91	0	0	100
fixed	2	8	8	327992	2	3	3	1	0	1054	1	4	0	56	92	0	0	100
fixed	2	8	9	329820	3	2	2	1	0	576	1	4	0	48	93	0	0	100
fixed	2	8	10	331339	1	4	4	1	0	624	1	4	0	64	94	0	0	100
fixed	2	8	11	332895	5	2	2	1	0	814	1	4	0	48	95	0	0	100
fixed	2	8	12	334538	4	3	3	1	0	809	1	4	0	56	96	0	0	100
fixed	2	9	1	336283	4	1	1	1	0	822	1	4	0	40	97	0	0	100
fixed	2	9	2	337719	1	2	2	1	0	954	1	4	0	48	98	0	0	100
fixed	2	9	3	339099	6	4	4	1	0	663	1	4	0	64	99	0	0	100
fixed	2	9	4	340303	2	1	1	1	0	692	1	4	0	40	100	0	0	100
fixed	2	9	5	341827	5	3	3	1	0	875	1	4	0	56	101	0	0	100
fixed	2	9	6	343721	6	4	4	1	0	587	1	4	0	64	102	0	0	100
fixed	2	9	7	345128	3	1	1	1	0	672	1	4	0	40	103	0	0	100
fixed	2	9	8	346761	2	3	3	1	0	835	1	4	0	56	104	0	0	100
fixed	2	9	9	347878	3	2	2	1	0	755	1	4	0	48	105	0	0	100
fixed	2	9	10	349217	1	4	4	1	0	595	1	4	0	64	106	0	0	100
fixed	2	9	11	350133	5	2	2	1	0	884	1	4	0	48	107	0	0	100
fixed	2	9	12	351770	4	3	3	1	0	1046	1	4	0	56	108	0	0	100
fixed	2	10	1	353709	4	1	1	1	0	620	1	4	0	40	109	0	0	100
fixed	2	10	2	354902	1	2	2	1	0	826	1	4	0	48	110	0	0	100
fixed	2	10	3	356178	6	4	4	1	0	611	1	4	0	64	111	0	0	100
fixed	2	10	4	357189	2	1	1	1	0	649	1	4	0	40	112	0	0	100
fixed	2	10	5	358706	5	3	3	1	0	809	1	4	0	56	113	0	0	100
fixed	2	10	6	359878	6	4	4	1	0	1135	1	4	0	64	114	0	0	100
fixed	2	10	7	361649	3	1	1	1	0	620	1	4	0	40	115	0	0	100
fixed	2	10	8	363116	2	3	3	1	0	982	1	4	0	56	116	0	0	100
fixed	2	10	9	364748	3	2	2	1	0	649	1	4	0	48	117	0	0	100
fixed	2	10	10	366409	1	4	4	1	0	642	1	4	0	64	118	0	0	100
fixed	2	10	11	367555	5	2	2	1	0	954	1	4	0	48	119	0	0	100
fixed	2	10	12	368819	4	3	3	1	0	741	1	4	0	56	120	0	0	100
fixed	3	1	1	370614	4	1	1	1	0	680	1	4	0	72	1	0	0	100
fixed	3	1	2	372103	1	2	2	1	0	841	1	4	0	80	2	0	0	100
fixed	3	1	3	373471	6	4	4	1	0	623	1	4	0	96	3	0	0	100
fixed	3	1	4	374794	2	1	1	1	0	727	1	4	0	72	4	0	0	100
fixed	3	1	5	375951	5	3	3	1	0	782	1	4	0	88	5	0	0	100
fixed	3	1	6	377724	6	4	4	1	0	939	1	4	0	96	6	0	0	100
fixed	3	1	7	378955	3	1	1	1	0	615	1	4	0	72	7	0	0	100
fixed	3	1	8	379905	2	3	3	1	0	1047	1	4	0	88	8	0	0	100
fixed	3	1	9	381788	3	2	2	1	0	751	1	4	0	80	9	0	0	100
fixed	3	1	10	383362	1	4	4	1	0	628	1	4	0	96	10	0	0	100
fixed	3	1	11	384457	5	2	2	1	0	998	1	4	0	80	11	0	0	100
fixed	3	1	12	385861	4	3	3	1	0	1003	1	4	0	88	12	0	0	100
fixed	3	2	1	388060	4	1	1	1	0	773	1	4	0	72	13	0	0	100
fixed	3	2	2	389599	1	2	2	1	0	852	1	4	0	80	14	0	0	100
fixed	3	2	3	391475	6	4	4	1	0	637	1	4	0	96	15	0	0	100
fixed	3	2	4	392632	2	1	1	1	0	692	1	4	0	72	16	0	0	100
fixed	3	2	5	393859	5	3	3	1	0	792	1	4	0	88	17	0	0	100
fixed	3	2	6	395050	6	4	4	1	0	645	1	4	0	96	18	0	0	100
fixed	3	2	7	395990	3	1	1	1	0	662	1	4	0	72	19	0	0	100
fixed	3	2	8	397094	2	3	3	1	0	959	1	4	0	88	20	0	0	100
fixed	3	2	9	399033	3	2	2	1	0	957	1	4	0	80	21	0	0	100
fixed	3	2	10	400393	1	4	4	1	0	659	1	4	0	96	22	0	0	100
fixed	3	2	11	401937	5	2	2	1	0	802	1	4	0	80	23	0	0	100
fixed	3	2	12	403226	4	3	3	1	0	1035	1	4	0	88	24	0	0	100
fixed	3	3	1	405352	4	1	1	1	0	625	1	4	0	72	25	0	0	100
fixed	3	3	2	406544	1	2	2	1	0	911	1	4	0	80	26	0	0	100
fixed	3	3	3	407925	6	4	4	1	0	804	1	4	0	96	27	0	0	100
fixed	3	3	4	409741	2	1	1	1	0	647	1	4	0	72	28	0	0	100
fixed	3	3	5	410971	5	3	3	1	0	779	1	4	0	88	29	0	0	100
fixed	3	3	6	412651	6	4	4	1	0	780	1	4	0	96	30	0	0	100
fixed	3	3	7	414200	3	1	1	1	0	715	1	4	0	72	31	0	0	100
fixed	3	3	8	415804	2	3	3	1	0	999	1	4	0	88	32	0	0	100
fixed	3	3	9	417772	3	2	2	1	0	595	1	4	0	80	33	0	0	100
fixed	3	3	10	419102	1	4	4	1	0	643	1	4	0	96	34	0	0	100
fixed	3	3	11	420176	5	2	2	1	0	933	1	4	0	80	35	0	0	100
fixed	3	3	12	421493	4	3	3	1	0	797	1	4	0	88	36	0	0	100
fixed	3	4	1	423547	4	1	1	1	0	654	1	4	0	72	37	0	0	100
fixed	3	4	2	425073	1	2	2	1	0	894	1	4	0	80	38	0	0	100
fixed	3	4	3	426830	6	4	4	1	0	700	1	4	0	96	39	0	0	100
fixed	3	4	4	428165	2	1	1	1	0	731	1	4	0	72	40	0	0	100
fixed	3	4	5	429514	5	3	3	1	0	818	1	4	0	88	41	0	0	100
fixed	3	4	6	431307	6	4	4	1	0	630	1	4	0	96	42	0	0	100
fixed	3	4	7	432666	3	1	1	1	0	709	1	4	0	72	43	0	0	100
fixed	3	4	8	434188	2	3	3	1	0	1364	1	4	0	88	44	0	0	100
fixed	3	4	9	436556	3	2	2	1	0	616	1	4	0	80	45	0	0	100
fixed	3	4	10	438042	1	4	4	1	0	641	1	4	0	96	46	0	0	100
fixed	3	4	11	439389	5	2	2	1	0	863	1	4	0	80	47	0	0	100
fixed	3	4	12	440787	4	3	3	1	0	1324	1	4	0	88	48	0	0	100
fixed	3	5	1	442944	4	1	1	1	0	681	1	4	0	72	49	0	0	100
fixed	3	5	2	444025	1	2	2	1	0	883	1	4	0	80	50	0	0	100
fixed	3	5	3	445454	6	4	4	1	0	607	1	4	0	96	51	0	0	100
fixed	3	5	4	446359	2	1	1	1	0	784	1	4	0	72	52	0	0	100
fixed	3	5	5	447501	5	3	3	1	0	888	1	4	0	88	53	0	0	100
fixed	3	5	6	449285	6	4	4	1	0	613	1	4	0	96	54	0	0	100
fixed	3	5	7	450379	3	1	1	1	0	678	1	4	0	72	55	0	0	100
fixed	3	5	8	451554	2	3	3	1	0	1980	1	4	0	88	56	0	0	100
fixed	3	5	9	454464	3	2	2	1	0	761	1	4	0	80	57	0	0	100
fixed	3	5	10	455877	1	4	4	1	0	613	1	4	0	96	58	0	0	100
fixed	3	5	11	457337	5	2	2	1	0	775	1	4	0	80	59	0	0	100
fixed	3	5	12	458757	4	3	3	1	0	923	1	4	0	88	60	0	0	100
fixed	3	6	1	460972	4	1	1	1	0	669	1	4	0	72	61	0	0	100
fixed	3	6	2	462425	1	2	2	1	0	824	1	4	0	80	62	0	0	100
fixed	3	6	3	464273	6	4	4	1	0	642	1	4	0	96	63	0	0	100
fixed	3	6	4	465676	2	1	1	1	0	886	1	4	0	72	64	0	0	100
fixed	3	6	5	467424	5	3	3	1	0	1220	1	4	0	88	65	0	0	100
fixed	3	6	6	468994	6	4	4	1	0	770	1	4	0	96	66	0	0	100
fixed	3	6	7	470475	3	1	1	1	0	643	1	4	0	72	67	0	0	100
fixed	3	6	8	471948	2	3	3	1	0	924	1	4	0	88	68	0	0	100
fixed	3	6	9	473766	3	2	2	1	0	744	1	4	0	80	69	0	0	100
fixed	3	6	10	475068	1	4	4	1	0	649	1	4	0	96	70	0	0	100
fixed	3	6	11	476567	5	2	2	1	0	777	1	4	0	80	71	0	0	100
fixed	3	6	12	478228	4	3	3	1	0	818	1	4	0	88	72	0	0	100
fixed	3	7	1	479985	4	1	1	1	0	672	1	4	0	72	73	0	0	100
fixed	3	7	2	481074	1	2	2	1	0	1386	1	4	0	80	74	0	0	100
fixed	3	7	3	483418	6	4	4	1	0	647	1	4	0	96	75	0	0	100
fixed	3	7	4	485054	2	1	1	1	0	729	1	4	0	72	76	0	0	100
fixed	3	7	5	486472	5	3	3	1	0	821	1	4	0	88	77	0	0	100
fixed	3	7	6	488226	6	4	4	1	0	555	1	4	0	96	78	0	0	100
fixed	3	7	7	489405	3	1	1	1	0	721	1	4	0	72	79	0	0	100
fixed	3	7	8	490470	2	3	3	1	0	1156	1	4	0	88	80	0	0	100
fixed	3	7	9	492570	3	2	2	1	0	747	1	4	0	80	81	0	0	100
fixed	3	7	10	494131	1	4	4	1	0	665	1	4	0	96	82	0	0	100
fixed	3	7	11	495099	5	2	2	1	0	864	1	4	0	80	83	0	0	100
fixed	3	7	12	496245	4	3	3	1	0	1095	1	4	0	88	84	0	0	100
fixed	3	8	1	498397	4	1	1	1	0	852	1	4	0	72	85	0	0	100
fixed	3	8	2	500182	1	2	2	1	0	824	1	4	0	80	86	0	0	100
fixed	3	8	3	501846	6	4	4	1	0	650	1	4	0	96	87	0	0	100
fixed	3	8	4	503207	2	1	1	1	0	720	1	4	0	72	88	0	0	100
fixed	3	8	5	504737	5	3	3	1	0	872	1	4	0	88	89	0	0	100
fixed	3	8	6	506367	6	4	4	1	0	674	1	4	0	96	90	0	0	100
fixed	3	8	7	507699	3	1	1	1	0	747	1	4	0	72	91	0	0	100
fixed	3	8	8	508995	2	3	3	1	0	1203	1	4	0	88	92	0	0	100
fixed	3	8	9	510837	3	2	2	1	0	694	1	4	0	80	93	0	0	100
fixed	3	8	10	512223	1	4	4	1	0	627	1	4	0	96	94	0	0	100
fixed	3	8	11	513515	5	2	2	1	0	924	1	4	0	80	95	0	0	100
fixed	3	8	12	514815	4	3	3	1	0	821	1	4	0	88	96	0	0	100
fixed	3	9	1	516291	4	1	1	1	0	678	1	4	0	72	97	0	0	100
fixed	3	9	2	518000	1	2	2	1	0	830	1	4	0	80	98	0	0	100
fixed	3	9	3	519547	6	4	4	1	0	724	1	4	0	96	99	0	0	100
fixed	3	9	4	520889	2	1	1	1	0	1028	1	4	0	72	100	0	0	100
fixed	3	9	5	522833	5	3	3	1	0	841	1	4	0	88	101	0	0	100
fixed	3	9	6	524696	6	4	4	1	0	634	1	4	0	96	102	0	0	100
fixed	3	9	7	525859	3	1	1	1	0	889	1	4	0	72	103	0	0	100
fixed	3	9	8	527273	2	3	3	1	0	973	1	4	0	88	104	0	0	100
fixed	3	9	9	528963	3	2	2	1	0	678	1	4	0	80	105	0	0	100
fixed	3	9	10	530419	1	4	4	1	0	552	1	4	0	96	106	0	0	100
fixed	3	9	11	531326	5	2	2	1	0	873	1	4	0	80	107	0	0	100
fixed	3	9	12	532946	4	3	3	1	0	1149	1	4	0	88	108	0	0	100
fixed	3	10	1	535221	4	1	1	1	0	636	1	4	0	72	109	0	0	100
fixed	3	10	2	536741	1	2	2	1	0	1172	1	4	0	80	110	0	0	100
fixed	3	10	3	538531	6	4	4	1	0	648	1	4	0	96	111	0	0	100
fixed	3	10	4	539586	2	1	1	1	0	908	1	4	0	72	112	0	0	100
fixed	3	10	5	540874	5	3	3	1	0	1093	1	4	0	88	113	0	0	100
fixed	3	10	6	542374	6	4	4	1	0	726	1	4	0	96	114	0	0	100
fixed	3	10	7	544037	3	1	1	1	0	807	1	4	0	72	115	0	0	100
fixed	3	10	8	545308	2	3	3	1	0	954	1	4	0	88	116	0	0	100
fixed	3	10	9	546889	3	2	2	1	0	662	1	4	0	80	117	0	0	100
fixed	3	10	10	548580	1	4	4	1	0	615	1	4	0	96	118	0	0	100
fixed	3	10	11	549891	5	2	2	1	0	807	1	4	0	80	119	0	0	100
fixed	3	10	12	551264	4	3	3	1	0	813	1	4	0	88	120	0	0	100
fixed	4	1	1	681059	4	1	1	1	0	1419	1	4	0	104	1	0	0	100
fixed	4	1	2	682885	1	2	2	1	0	870	1	4	0	112	2	0	0	100
fixed	4	1	3	684740	6	4	4	1	0	608	1	4	0	128	3	0	0	100
fixed	4	1	4	685812	2	1	1	1	0	786	1	4	0	104	4	0	0	100
fixed	4	1	5	687510	5	3	3	1	0	962	1	4	0	120	5	0	0	100
fixed	4	1	6	689421	6	4	4	1	0	921	1	4	0	128	6	0	0	100
fixed	4	1	7	691139	3	1	1	1	0	585	1	4	0	104	7	0	0	100
fixed	4	1	8	692132	2	3	3	1	0	999	1	4	0	120	8	0	0	100
fixed	4	1	9	693510	3	2	2	1	0	644	1	4	0	112	9	0	0	100
fixed	4	1	10	694691	1	4	4	1	0	563	1	4	0	128	10	0	0	100
fixed	4	1	11	695856	5	2	2	1	0	809	1	4	0	112	11	0	0	100
fixed	4	1	12	697395	4	3	3	1	0	760	1	4	0	120	12	0	0	100
fixed	4	2	1	698722	4	1	1	1	0	631	1	4	0	104	13	0	0	100
fixed	4	2	2	699844	1	2	2	1	0	880	1	4	0	112	14	0	0	100
fixed	4	2	3	701682	6	4	4	1	0	650	1	4	0	128	15	0	0	100
fixed	4	2	4	702940	2	1	1	1	0	749	1	4	0	104	16	0	0	100
fixed	4	2	5	704429	5	3	3	1	0	846	1	4	0	120	17	0	0	100
fixed	4	2	6	705620	6	4	4	1	0	747	1	4	0	128	18	0	0	100
fixed	4	2	7	707278	3	1	1	1	0	749	1	4	0	104	19	0	0	100
fixed	4	2	8	708337	2	3	3	1	0	1016	1	4	0	120	20	0	0	100
fixed	4	2	9	709916	3	2	2	1	0	517	1	4	0	112	21	0	0	100
fixed	4	2	10	711137	1	4	4	1	0	538	1	4	0	128	22	0	0	100
fixed	4	2	11	712473	5	2	2	1	0	753	1	4	0	112	23	0	0	100
fixed	4	2	12	713779	4	3	3	1	0	850	1	4	0	120	24	0	0	100
fixed	4	3	1	715396	4	1	1	1	0	669	1	4	0	104	25	0	0	100
fixed	4	3	2	716523	1	2	2	1	0	1062	1	4	0	112	26	0	0	100
fixed	4	3	3	718197	6	4	4	1	0	479	1	4	0	128	27	0	0	100
fixed	4	3	4	719207	2	1	1	1	0	676	1	4	0	104	28	0	0	100
fixed	4	3	5	720630	5	3	3	1	0	736	1	4	0	120	29	0	0	100
fixed	4	3	6	722322	6	4	4	1	0	680	1	4	0	128	30	0	0	100
fixed	4	3	7	723906	3	1	1	1	0	933	1	4	0	104	31	0	0	100
fixed	4	3	8	725195	2	3	3	1	0	1382	1	4	0	120	32	0	0	100
fixed	4	3	9	727379	3	2	2	1	0	650	1	4	0	112	33	0	0	100
fixed	4	3	10	728964	1	4	4	1	0	502	1	4	0	128	34	0	0	100
fixed	4	3	11	730179	5	2	2	1	0	803	1	4	0	112	35	0	0	100
fixed	4	3	12	731438	4	3	3	1	0	790	1	4	0	120	36	0	0	100
fixed	4	4	1	733290	4	1	1	1	0	559	1	4	0	104	37	0	0	100
fixed	4	4	2	734772	1	2	2	1	0	937	1	4	0	112	38	0	0	100
fixed	4	4	3	736637	6	4	4	1	0	754	1	4	0	128	39	0	0	100
fixed	4	4	4	738172	2	1	1	1	0	689	1	4	0	104	40	0	0	100
fixed	4	4	5	739284	5	3	3	1	0	914	1	4	0	120	41	0	0	100
fixed	4	4	6	741176	6	4	4	1	0	753	1	4	0	128	42	0	0	100
fixed	4	4	7	742559	3	1	1	1	0	655	1	4	0	104	43	0	0	100
fixed	4	4	8	743898	2	3	3	1	0	862	1	4	0	120	44	0	0	100
fixed	4	4	9	745793	3	2	2	1	0	654	1	4	0	112	45	0	0	100
fixed	4	4	10	747256	1	4	4	1	0	640	1	4	0	128	46	0	0	100
fixed	4	4	11	748321	5	2	2	1	0	875	1	4	0	112	47	0	0	100
fixed	4	4	12	749932	4	3	3	1	0	710	1	4	0	120	48	0	0	100
fixed	4	5	1	751702	4	1	1	1	0	715	1	4	0	104	49	0	0	100
fixed	4	5	2	752782	1	2	2	1	0	958	1	4	0	112	50	0	0	100
fixed	4	5	3	754234	6	4	4	1	0	617	1	4	0	128	51	0	0	100
fixed	4	5	4	755764	2	1	1	1	0	687	1	4	0	104	52	0	0	100
fixed	4	5	5	757125	5	3	3	1	0	654	1	4	0	120	53	0	0	100
fixed	4	5	6	758651	6	4	4	1	0	637	1	4	0	128	54	0	0	100
fixed	4	5	7	759790	3	1	1	1	0	709	1	4	0	104	55	0	0	100
fixed	4	5	8	761350	2	3	3	1	0	875	1	4	0	120	56	0	0	100
fixed	4	5	9	762918	3	2	2	1	0	593	1	4	0	112	57	0	0	100
fixed	4	5	10	764010	1	4	4	1	0	643	1	4	0	128	58	0	0	100
fixed	4	5	11	765227	5	2	2	1	0	807	1	4	0	112	59	0	0	100
fixed	4	5	12	766928	4	3	3	1	0	1159	1	4	0	120	60	0	0	100
fixed	4	6	1	769027	4	1	1	1	0	558	1	4	0	104	61	0	0	100
fixed	4	6	2	770297	1	2	2	1	0	856	1	4	0	112	62	0	0	100
fixed	4	6	3	771753	6	4	4	1	0	642	1	4	0	128	63	0	0	100
fixed	4	6	4	772735	2	1	1	1	0	856	1	4	0	104	64	0	0	100
fixed	4	6	5	774467	5	3	3	1	0	704	1	4	0	120	65	0	0	100
fixed	4	6	6	775688	6	4	4	1	0	708	1	4	0	128	66	0	0	100
fixed	4	6	7	777264	3	1	1	1	0	817	1	4	0	104	67	0	0	100
fixed	4	6	8	778812	2	3	3	1	0	720	1	4	0	120	68	0	0	100
fixed	4	6	9	780098	3	2	2	1	0	641	1	4	0	112	69	0	0	100
fixed	4	6	10	781420	1	4	4	1	0	609	1	4	0	128	70	0	0	100
fixed	4	6	11	782336	5	2	2	1	0	858	1	4	0	112	71	0	0	100
fixed	4	6	12	783832	4	3	3	2	0	723	2	4	0	120	72	0	0	100
fixed	4	7	1	785384	4	1	1	1	0	961	1	4	0	104	73	0	0	100
fixed	4	7	2	786985	1	2	2	1	0	1045	1	4	0	112	74	0	0	100
fixed	4	7	3	788377	6	4	4	1	0	666	1	4	0	128	75	0	0	100
fixed	4	7	4	789632	2	1	1	1	0	757	1	4	0	104	76	0	0	100
fixed	4	7	5	791293	5	3	3	1	0	991	1	4	0	120	77	0	0	100
fixed	4	7	6	793247	6	4	4	1	0	700	1	4	0	128	78	0	0	100
fixed	4	7	7	794490	3	1	1	1	0	711	1	4	0	104	79	0	0	100
fixed	4	7	8	796032	2	3	3	1	0	894	1	4	0	120	80	0	0	100
fixed	4	7	9	797787	3	2	2	1	0	892	1	4	0	112	81	0	0	100
fixed	4	7	10	799015	1	4	4	1	0	1375	1	4	0	128	82	0	0	100
fixed	4	7	11	801427	5	2	2	1	0	1081	1	4	0	112	83	0	0	100
fixed	4	7	12	803102	4	3	3	1	0	795	1	4	0	120	84	0	0	100
fixed	4	8	1	804865	4	1	1	1	0	704	1	4	0	104	85	0	0	100
fixed	4	8	2	806572	1	2	2	1	0	839	1	4	0	112	86	0	0	100
fixed	4	8	3	808042	6	4	4	1	0	649	1	4	0	128	87	0	0	100
fixed	4	8	4	809266	2	1	1	1	0	678	1	4	0	104	88	0	0	100
fixed	4	8	5	810343	5	3	3	1	0	920	1	4	0	120	89	0	0	100
fixed	4	8	6	811621	6	4	4	1	0	730	1	4	0	128	90	0	0	100
fixed	4	8	7	812967	3	1	1	1	0	744	1	4	0	104	91	0	0	100
fixed	4	8	8	814646	2	3	3	1	0	938	1	4	0	120	92	0	0	100
fixed	4	8	9	816570	3	2	2	1	0	648	1	4	0	112	93	0	0	100
fixed	4	8	10	817575	1	4	4	1	0	734	1	4	0	128	94	0	0	100
fixed	4	8	11	819005	5	2	2	1	0	753	1	4	0	112	95	0	0	100
fixed	4	8	12	820738	4	3	3	1	0	863	1	4	0	120	96	0	0	100
fixed	4	9	1	822458	4	1	1	1	0	622	1	4	0	104	97	0	0	100
fixed	4	9	2	823951	1	2	2	1	0	895	1	4	0	112	98	0	0	100
fixed	4	9	3	825209	6	4	4	1	0	674	1	4	0	128	99	0	0	100
fixed	4	9	4	826777	2	1	1	1	0	760	1	4	0	104	100	0	0	100
fixed	4	9	5	827959	5	3	3	1	0	822	1	4	0	120	101	0	0	100
fixed	4	9	6	829239	6	4	4	1	0	679	1	4	0	128	102	0	0	100
fixed	4	9	7	830224	3	1	1	1	0	766	1	4	0	104	103	0	0	100
fixed	4	9	8	831480	2	3	3	1	0	960	1	4	0	120	104	0	0	100
fixed	4	9	9	833323	3	2	2	1	0	739	1	4	0	112	105	0	0	100
fixed	4	9	10	834945	1	4	4	1	0	750	1	4	0	128	106	0	0	100
fixed	4	9	11	836591	5	2	2	1	0	1192	1	4	0	112	107	0	0	100
fixed	4	9	12	838613	4	3	3	1	0	946	1	4	0	120	108	0	0	100
fixed	4	10	1	840536	4	1	1	1	0	809	1	4	0	104	109	0	0	100
fixed	4	10	2	842318	1	2	2	1	0	806	1	4	0	112	110	0	0	100
fixed	4	10	3	843987	6	4	4	1	0	639	1	4	0	128	111	0	0	100
fixed	4	10	4	845007	2	1	1	1	0	740	1	4	0	104	112	0	0	100
fixed	4	10	5	846591	5	3	3	1	0	825	1	4	0	120	113	0	0	100
fixed	4	10	6	848258	6	4	4	1	0	690	1	4	0	128	114	0	0	100
fixed	4	10	7	849440	3	1	1	1	0	576	1	4	0	104	115	0	0	100
fixed	4	10	8	850672	2	3	3	1	0	892	1	4	0	120	116	0	0	100
fixed	4	10	9	852148	3	2	2	1	0	629	1	4	0	112	117	0	0	100
fixed	4	10	10	853511	1	4	4	1	0	660	1	4	0	128	118	0	0	100
fixed	4	10	11	854821	5	2	2	1	0	684	1	4	0	112	119	0	0	100
fixed	4	10	12	856186	4	3	3	1	0	738	1	4	0	120	120	0	0	100
fixed	5	1	1	858444	4	1	1	1	0	690	1	4	0	136	1	0	0	100
fixed	5	1	2	860133	1	2	2	1	0	843	1	4	0	144	2	0	0	100
fixed	5	1	3	861400	6	4	4	1	0	630	1	4	0	160	3	0	0	100
fixed	5	1	4	862581	2	1	1	1	0	827	1	4	0	136	4	0	0	100
fixed	5	1	5	863961	5	3	3	1	0	777	1	4	0	152	5	0	0	100
fixed	5	1	6	865524	6	4	4	1	0	1031	1	4	0	160	6	0	0	100
fixed	5	1	7	867410	3	1	1	1	0	831	1	4	0	136	7	0	0	100
fixed	5	1	8	869239	2	3	3	1	0	1137	1	4	0	152	8	0	0	100
fixed	5	1	9	871305	3	2	2	1	0	634	1	4	0	144	9	0	0	100
fixed	5	1	10	872912	1	4	4	1	0	590	1	4	0	160	10	0	0	100
fixed	5	1	11	874106	5	2	2	1	0	731	1	4	0	144	11	0	0	100
fixed	5	1	12	875672	4	3	3	1	0	969	1	4	0	152	12	0	0	100
fixed	5	2	1	877477	4	1	1	1	0	572	1	4	0	136	13	0	0	100
fixed	5	2	2	878500	1	2	2	1	0	865	1	4	0	144	14	0	0	100
fixed	5	2	3	880168	6	4	4	1	0	642	1	4	0	160	15	0	0	100
fixed	5	2	4	881336	2	1	1	1	0	705	1	4	0	136	16	0	0	100
fixed	5	2	5	882844	5	3	3	1	0	1033	1	4	0	152	17	0	0	100
fixed	5	2	6	884616	6	4	4	1	0	662	1	4	0	160	18	0	0	100
fixed	5	2	7	886143	3	1	1	1	0	790	1	4	0	136	19	0	0	100
fixed	5	2	8	887676	2	3	3	1	0	949	1	4	0	152	20	0	0	100
fixed	5	2	9	889028	3	2	2	1	0	635	1	4	0	144	21	0	0	100
fixed	5	2	10	890414	1	4	4	1	0	664	1	4	0	160	22	0	0	100
fixed	5	2	11	891453	5	2	2	1	0	813	1	4	0	144	23	0	0	100
fixed	5	2	12	892806	4	3	3	1	0	771	1	4	0	152	24	0	0	100
fixed	5	3	1	894468	4	1	1	1	0	773	1	4	0	136	25	0	0	100
fixed	5	3	2	895612	1	2	2	1	0	1092	1	4	0	144	26	0	0	100
fixed	5	3	3	897661	6	4	4	1	0	597	1	4	0	160	27	0	0	100
fixed	5	3	4	899024	2	1	1	1	0	788	1	4	0	136	28	0	0	100
fixed	5	3	5	900469	5	3	3	1	0	782	1	4	0	152	29	0	0	100
fixed	5	3	6	902108	6	4	4	1	0	625	1	4	0	160	30	0	0	100
fixed	5	3	7	903067	3	1	1	1	0	777	1	4	0	136	31	0	0	100
fixed	5	3	8	904230	2	3	3	1	0	871	1	4	0	152	32	0	0	100
fixed	5	3	9	905628	3	2	2	1	0	620	1	4	0	144	33	0	0	100
fixed	5	3	10	906923	1	4	4	1	0	597	1	4	0	160	34	0	0	100
fixed	5	3	11	908183	5	2	2	1	0	1000	1	4	0	144	35	0	0	100
fixed	5	3	12	909860	4	3	3	1	0	761	1	4	0	152	36	0	0	100
fixed	5	4	1	911911	4	1	1	1	0	634	1	4	0	136	37	0	0	100
fixed	5	4	2	913438	1	2	2	1	0	969	1	4	0	144	38	0	0	100
fixed	5	4	3	915008	6	4	4	1	0	663	1	4	0	160	39	0	0	100
fixed	5	4	4	916325	2	1	1	1	0	623	1	4	0	136	40	0	0	100
fixed	5	4	5	917259	5	3	3	1	0	863	1	4	0	152	41	0	0	100
fixed	5	4	6	918575	6	4	4	1	0	695	1	4	0	160	42	0	0	100
fixed	5	4	7	919894	3	1	1	1	0	584	1	4	0	136	43	0	0	100
fixed	5	4	8	921458	2	3	3	1	0	1014	1	4	0	152	44	0	0	100
fixed	5	4	9	923459	3	2	2	1	0	681	1	4	0	144	45	0	0	100
fixed	5	4	10	924425	1	4	4	1	0	672	1	4	0	160	46	0	0	100
fixed	5	4	11	925480	5	2	2	1	0	859	1	4	0	144	47	0	0	100
fixed	5	4	12	927305	4	3	3	1	0	766	1	4	0	152	48	0	0	100
fixed	5	5	1	928719	4	1	1	1	0	538	1	4	0	136	49	0	0	100
fixed	5	5	2	929918	1	2	2	1	0	832	1	4	0	144	50	0	0	100
fixed	5	5	3	931469	6	4	4	1	0	534	1	4	0	160	51	0	0	100
fixed	5	5	4	932762	2	1	1	1	0	879	1	4	0	136	52	0	0	100
fixed	5	5	5	933958	5	3	3	1	0	796	1	4	0	152	53	0	0	100
fixed	5	5	6	935575	6	4	4	1	0	680	1	4	0	160	54	0	0	100
fixed	5	5	7	937072	3	1	1	1	0	624	1	4	0	136	55	0	0	100
fixed	5	5	8	938127	2	3	3	1	0	867	1	4	0	152	56	0	0	100
fixed	5	5	9	939960	3	2	2	1	0	750	1	4	0	144	57	0	0	100
fixed	5	5	10	941326	1	4	4	1	0	572	1	4	0	160	58	0	0	100
fixed	5	5	11	942872	5	2	2	1	0	810	1	4	0	144	59	0	0	100
fixed	5	5	12	944211	4	3	3	1	0	1002	1	4	0	152	60	0	0	100
fixed	5	6	1	946011	4	1	1	1	0	637	1	4	0	136	61	0	0	100
fixed	5	6	2	947622	1	2	2	1	0	841	1	4	0	144	62	0	0	100
fixed	5	6	3	948983	6	4	4	1	0	583	1	4	0	160	63	0	0	100
fixed	5	6	4	950556	2	1	1	1	0	773	1	4	0	136	64	0	0	100
fixed	5	6	5	951920	5	3	3	1	0	940	1	4	0	152	65	0	0	100
fixed	5	6	6	953215	6	4	4	1	0	700	1	4	0	160	66	0	0	100
fixed	5	6	7	954342	3	1	1	1	0	709	1	4	0	136	67	0	0	100
fixed	5	6	8	956082	2	3	3	1	0	939	1	4	0	152	68	0	0	100
fixed	5	6	9	957471	3	2	2	1	0	816	1	4	0	144	69	0	0	100
fixed	5	6	10	958917	1	4	4	1	0	627	1	4	0	160	70	0	0	100
fixed	5	6	11	960090	5	2	2	1	0	786	1	4	0	144	71	0	0	100
fixed	5	6	12	961892	4	3	3	1	0	869	1	4	0	152	72	0	0	100
fixed	5	7	1	964022	4	1	1	1	0	835	1	4	0	136	73	0	0	100
fixed	5	7	2	965490	1	2	2	1	0	916	1	4	0	144	74	0	0	100
fixed	5	7	3	967437	6	4	4	1	0	690	1	4	0	160	75	0	0	100
fixed	5	7	4	968814	2	1	1	1	0	743	1	4	0	136	76	0	0	100
fixed	5	7	5	970247	5	3	3	1	0	779	1	4	0	152	77	0	0	100
fixed	5	7	6	971332	6	4	4	1	0	797	1	4	0	160	78	0	0	100
fixed	5	7	7	972446	3	1	1	1	0	838	1	4	0	136	79	0	0	100
fixed	5	7	8	974073	2	3	3	1	0	961	1	4	0	152	80	0	0	100
fixed	5	7	9	975605	3	2	2	1	0	504	1	4	0	144	81	0	0	100
fixed	5	7	10	976689	1	4	4	1	0	554	1	4	0	160	82	0	0	100
fixed	5	7	11	978220	5	2	2	1	0	1290	1	4	0	144	83	0	0	100
fixed	5	7	12	979996	4	3	3	1	0	694	1	4	0	152	84	0	0	100
fixed	5	8	1	981315	4	1	1	1	0	1014	1	4	0	136	85	0	0	100
fixed	5	8	2	983193	1	2	2	1	0	895	1	4	0	144	86	0	0	100
fixed	5	8	3	984937	6	4	4	1	0	644	1	4	0	160	87	0	0	100
fixed	5	8	4	985920	2	1	1	1	0	724	1	4	0	136	88	0	0	100
fixed	5	8	5	987023	5	3	3	1	0	765	1	4	0	152	89	0	0	100
fixed	5	8	6	988772	6	4	4	1	0	683	1	4	0	160	90	0	0	100
fixed	5	8	7	990202	3	1	1	1	0	734	1	4	0	136	91	0	0	100
fixed	5	8	8	991407	2	3	3	1	0	1139	1	4	0	152	92	0	0	100
fixed	5	8	9	993414	3	2	2	1	0	798	1	4	0	144	93	0	0	100
fixed	5	8	10	994876	1	4	4	1	0	600	1	4	0	160	94	0	0	100
fixed	5	8	11	996436	5	2	2	1	0	758	1	4	0	144	95	0	0	100
fixed	5	8	12	997880	4	3	3	1	0	801	1	4	0	152	96	0	0	100
fixed	5	9	1	999493	4	1	1	1	0	820	1	4	0	136	97	0	0	100
fixed	5	9	2	1001087	1	2	2	1	0	873	1	4	0	144	98	0	0	100
fixed	5	9	3	1002277	6	4	4	1	0	871	1	4	0	160	99	0	0	100
fixed	5	9	4	1003445	2	1	1	1	0	893	1	4	0	136	100	0	0	100
fixed	5	9	5	1005172	5	3	3	1	0	1148	1	4	0	152	101	0	0	100
fixed	5	9	6	1006783	6	4	4	1	0	720	1	4	0	160	102	0	0	100
fixed	5	9	7	1008008	3	1	1	1	0	1036	1	4	0	136	103	0	0	100
fixed	5	9	8	1009848	2	3	3	1	0	1230	1	4	0	152	104	0	0	100
fixed	5	9	9	1011493	3	2	2	1	0	552	1	4	0	144	105	0	0	100
fixed	5	9	10	1012346	1	4	4	1	0	708	1	4	0	160	106	0	0	100
fixed	5	9	11	1013831	5	2	2	1	0	845	1	4	0	144	107	0	0	100
fixed	5	9	12	1015536	4	3	3	1	0	1621	1	4	0	152	108	0	0	100
fixed	5	10	1	1018172	4	1	1	1	0	725	1	4	0	136	109	0	0	100
fixed	5	10	2	1019249	1	2	2	1	0	792	1	4	0	144	110	0	0	100
fixed	5	10	3	1020975	6	4	4	1	0	623	1	4	0	160	111	0	0	100
fixed	5	10	4	1022081	2	1	1	1	0	735	1	4	0	136	112	0	0	100
fixed	5	10	5	1023317	5	3	3	1	0	819	1	4	0	152	113	0	0	100
fixed	5	10	6	1024823	6	4	4	1	0	627	1	4	0	160	114	0	0	100
fixed	5	10	7	1026093	3	1	1	1	0	806	1	4	0	136	115	0	0	100
fixed	5	10	8	1027895	2	3	3	1	0	1161	1	4	0	152	116	0	0	100
fixed	5	10	9	1029663	3	2	2	1	0	695	1	4	0	144	117	0	0	100
fixed	5	10	10	1031339	1	4	4	1	0	615	1	4	0	160	118	0	0	100
fixed	5	10	11	1032490	5	2	2	1	0	783	1	4	0	144	119	0	0	100
fixed	5	10	12	1033906	4	3	3	1	0	691	1	4	0	152	120	0	0	100
random	6	1	1	1176090	6	1	1	1	0	660	1	4	0	168	1	0	0	100
random	6	1	2	1177628	4	4	4	1	0	691	1	4	0	192	2	0	0	100
random	6	1	3	1179201	2	2	2	1	0	897	1	4	0	176	3	0	0	100
random	6	1	4	1180449	3	3	3	1	0	548	1	4	0	184	4	0	0	100
random	6	1	5	1181859	5	2	2	1	0	880	1	4	0	176	5	0	0	100
random	6	1	6	1183652	1	4	4	1	0	693	1	4	0	192	6	0	0	100
random	6	1	7	1184934	6	1	1	1	0	550	1	4	0	168	7	0	0	100
random	6	1	8	1186067	2	3	3	1	0	1030	1	4	0	184	8	0	0	100
random	6	1	9	1187463	4	2	2	1	0	627	1	4	0	176	9	0	0	100
random	6	1	10	1188653	1	1	0	1	2	0	3	4	0	168	9	0	1	90
random	6	1	11	1191474	5	4	4	1	0	761	1	4	0	192	10	0	1	91
random	6	1	12	1193008	3	3	3	1	0	1200	1	4	0	184	11	0	1	92
random	6	1	13	1195473	5	2	2	1	0	959	1	4	0	176	12	0	1	92
random	6	1	14	1196834	1	4	4	1	0	758	1	4	0	192	13	0	1	93
random	6	1	15	1198477	3	1	1	1	0	977	1	4	0	168	14	0	1	93
random	6	1	16	1199972	4	3	3	1	0	1145	1	4	0	184	15	0	1	94
random	6	1	17	1202086	6	4	4	1	0	880	1	4	0	192	16	0	1	94
random	6	1	18	1203257	2	1	1	1	0	622	1	4	0	168	17	0	1	94
random	6	1	19	1204903	5	3	3	1	0	984	1	4	0	184	18	0	1	95
random	6	1	20	1206280	2	2	2	1	0	670	1	4	0	176	19	0	1	95
random	6	1	21	1207631	3	3	3	1	0	1317	1	4	0	184	20	0	1	95
random	6	1	22	1209687	6	1	1	1	0	934	1	4	0	168	21	0	1	95
random	6	1	23	1211459	4	2	2	1	0	907	1	4	0	176	22	0	1	96
random	6	1	24	1213199	1	4	4	1	0	633	1	4	0	192	23	0	1	96
random	6	1	25	1214437	4	3	3	1	0	964	1	4	0	184	24	0	1	96
random	6	1	26	1215953	2	1	1	1	0	813	1	4	0	168	25	0	1	96
random	6	1	27	1217300	5	2	2	1	0	1339	1	4	0	176	26	0	1	96
random	6	1	28	1219644	6	4	4	1	0	704	1	4	0	192	27	0	1	96
random	6	1	29	1220846	1	3	3	1	0	909	1	4	0	184	28	0	1	97
random	6	1	30	1222448	5	2	2	1	0	761	1	4	0	176	29	0	1	97
random	6	1	31	1223852	2	1	1	1	0	878	1	4	0	168	30	0	1	97
random	6	1	32	1225647	3	3	3	1	0	858	1	4	0	184	31	0	1	97
random	6	1	33	1227070	6	4	4	1	0	741	1	4	0	192	32	0	1	97
random	6	1	34	1228698	4	2	2	1	0	825	1	4	0	176	33	0	1	97
random	6	1	35	1230320	3	4	4	1	0	740	1	4	0	192	34	0	1	97
random	6	1	36	1231387	1	1	1	1	0	767	1	4	0	168	35	0	1	97
random	6	1	37	1233116	3	4	4	1	0	861	1	4	0	192	36	0	1	97
random	6	1	38	1234930	5	3	3	1	0	1121	1	4	0	184	37	0	1	97
random	6	1	39	1236960	6	1	1	1	0	698	1	4	0	168	38	0	1	97
random	6	1	40	1238547	1	2	2	1	0	855	1	4	0	176	39	0	1	98
random	6	1	41	1240028	2	3	3	1	0	833	1	4	0	184	40	0	1	98
random	6	1	42	1241710	4	4	4	1	0	698	1	4	0	192	41	0	1	98
random	6	1	43	1242789	1	2	2	1	0	899	1	4	0	176	42	0	1	98
random	6	1	44	1244486	6	3	3	1	0	996	1	4	0	184	43	0	1	98
random	6	1	45	1246254	3	1	1	1	0	545	1	4	0	168	44	0	1	98
random	6	1	46	1247262	4	4	4	1	0	654	1	4	0	192	45	0	1	98
random	6	1	47	1248485	2	2	2	1	0	802	1	4	0	176	46	0	1	98
random	6	1	48	1250066	5	1	1	1	0	1016	1	4	0	168	47	0	1	98
random	6	1	49	1251912	2	3	3	1	0	1009	1	4	0	184	48	0	1	98
random	6	1	50	1253861	3	1	1	1	0	711	1	4	0	168	49	0	1	98
random	6	1	51	1255052	1	4	4	1	0	724	1	4	0	192	50	0	1	98
random	6	1	52	1256184	5	3	3	1	0	877	1	4	0	184	51	0	1	98
random	6	1	53	1257480	3	2	2	1	0	606	1	4	0	176	52	0	1	98
random	6	1	54	1259072	6	4	4	1	0	690	1	4	0	192	53	0	1	98
random	6	1	55	1260628	4	2	2	1	0	848	1	4	0	176	54	0	1	98
random	6	1	56	1262087	1	1	1	1	0	770	1	4	0	168	55	0	1	98
random	6	1	57	1263324	5	4	4	1	0	742	1	4	0	192	56	0	1	98
random	6	1	58	1264662	2	1	1	1	0	1221	1	4	0	168	57	0	1	98
random	6	1	59	1266842	6	2	2	1	0	833	1	4	0	176	58	0	1	98
random	6	1	60	1268517	4	3	3	1	0	610	1	4	0	184	59	0	1	98
random	6	1	61	1269689	1	2	2	1	0	1032	1	4	0	176	60	0	1	98
random	6	1	62	1271518	6	4	4	1	0	619	1	4	0	192	61	0	1	98
random	6	1	63	1273013	4	1	1	1	0	675	1	4	0	168	62	0	1	98
random	6	1	64	1274523	2	2	2	1	0	1020	1	4	0	176	63	0	1	98
random	6	1	65	1276324	4	3	3	1	0	495	1	4	0	184	64	0	1	98
random	6	1	66	1277611	3	1	1	1	0	697	1	4	0	168	65	0	1	98
random	6	1	67	1279279	1	3	3	1	0	1218	1	4	0	184	66	0	1	99
random	6	1	68	1280826	5	4	4	1	0	1641	1	4	0	192	67	0	1	99
random	6	1	69	1283217	2	2	2	1	0	740	1	4	0	176	68	0	1	99
random	6	1	70	1284801	3	1	1	1	0	641	1	4	0	168	69	0	1	99
random	6	1	71	1285940	5	4	4	1	0	688	1	4	0	192	70	0	1	99
random	6	1	72	1287320	6	3	3	1	0	1046	1	4	0	184	71	0	1	99
random	6	1	73	1289354	2	1	1	1	0	879	1	4	0	168	72	0	1	99
random	6	1	74	1291199	5	3	3	1	0	1105	1	4	0	184	73	0	1	99
random	6	1	75	1293335	1	4	4	1	0	607	1	4	0	192	74	0	1	99
random	6	1	76	1294419	6	2	2	1	0	809	1	4	0	176	75	0	1	99
random	6	1	77	1295820	2	1	1	1	0	797	1	4	0	168	76	0	1	99
random	6	1	78	1297280	4	4	4	1	0	744	1	4	0	192	77	0	1	99
random	6	1	79	1298669	3	2	2	1	0	845	1	4	0	176	78	0	1	99
random	6	1	80	1299942	4	3	3	1	0	703	1	4	0	184	79	0	1	99
random	6	1	81	1301036	1	4	4	1	0	793	1	4	0	192	80	0	1	99
random	6	1	82	1302461	5	1	1	1	0	813	1	4	0	168	81	0	1	99
random	6	1	83	1304037	3	2	2	1	0	929	1	4	0	176	82	0	1	99
random	6	1	84	1305716	6	3	3	1	0	811	1	4	0	184	83	0	1	99
random	6	1	85	1307598	3	2	2	1	0	939	1	4	0	176	84	0	1	99
random	6	1	86	1309027	1	3	3	1	0	1086	1	4	0	184	85	0	1	99
random	6	1	87	1311100	4	4	4	1	0	895	1	4	0	192	86	0	1	99
random	6	1	88	1312672	2	1	1	1	0	548	1	4	0	168	87	0	1	99
random	6	1	89	1313942	6	4	4	1	0	622	1	4	0	192	88	0	1	99
random	6	1	90	1315344	3	3	3	1	0	931	1	4	0	184	89	0	1	99
random	6	1	91	1316760	5	4	4	1	0	807	1	4	0	192	90	0	1	99
random	6	1	92	1318407	1	2	2	1	0	753	1	4	0	176	91	0	1	99
random	6	1	93	1319755	5	1	1	1	0	624	1	4	0	168	92	0	1	99
random	6	1	94	1321209	4	3	3	1	0	1035	1	4	0	184	93	0	1	99
random	6	1	95	1322685	6	1	1	1	0	788	1	4	0	168	94	0	1	99
random	6	1	96	1323805	2	2	2	1	0	980	1	4	0	176	95	0	1	99
random	6	1	97	1325442	4	3	3	1	0	1271	1	4	0	184	96	0	1	99
random	6	1	98	1327063	3	2	2	1	0	882	1	4	0	176	97	0	1	99
random	6	1	99	1328515	6	3	3	1	0	1645	1	4	0	184	98	0	1	99
random	6	1	100	1330533	1	4	4	1	0	752	1	4	0	192	99	0	1	99
random	6	1	101	1331996	4	1	1	1	0	649	1	4	0	168	100	0	1	99
random	6	1	102	1333158	5	2	2	1	0	928	1	4	0	176	101	0	1	99
random	6	1	103	1334820	2	4	4	1	0	658	1	4	0	192	102	0	1	99
random	6	1	104	1335794	3	1	1	1	0	737	1	4	0	168	103	0	1	99
random	6	1	105	1336927	1	3	3	2	0	1161	2	4	0	184	104	0	1	99
random	6	1	106	1338374	2	2	2	1	0	1139	1	4	0	176	105	0	1	99
random	6	1	107	1340312	5	4	4	1	0	921	1	4	0	192	106	0	1	99
random	6	1	108	1341735	6	1	1	1	0	773	1	4	0	168	107	0	1	99
random	6	1	109	1343152	5	4	4	1	0	769	1	4	0	192	108	0	1	99
random	6	1	110	1344842	6	3	3	1	0	945	1	4	0	184	109	0	1	99
random	6	1	111	1346555	2	2	2	1	0	753	1	4	0	176	110	0	1	99
random	6	1	112	1348248	3	1	1	1	0	809	1	4	0	168	111	0	1	99
random	6	1	113	1349739	1	2	2	1	0	1938	1	4	0	176	112	0	1	99
random	6	1	114	1352482	2	3	3	1	0	798	1	4	0	184	113	0	1	99
random	6	1	115	1353924	3	1	1	1	0	817	1	4	0	168	114	0	1	99
random	6	1	116	1355254	4	4	4	1	0	664	1	4	0	192	115	0	1	99
random	6	1	117	1356588	6	1	1	1	0	888	1	4	0	168	116	0	1	99
random	6	1	118	1358274	5	3	3	1	0	1216	1	4	0	184	117	0	1	99
random	6	1	119	1360002	1	4	4	1	0	711	1	4	0	192	118	0	1	99
random	6	1	120	1361267	4	2	2	1	0	730	1	4	0	176	119	0	1	99
fixed	7	1	1	1363400	4	1	1	1	0	743	1	4	0	200	1	0	0	100
fixed	7	1	2	1364857	1	2	2	1	0	849	1	4	0	208	2	0	0	100
fixed	7	1	3	1366505	6	4	4	1	0	636	1	4	0	224	3	0	0	100
fixed	7	1	4	1367530	2	1	1	1	0	800	1	4	0	200	4	0	0	100
fixed	7	1	5	1369103	5	3	3	1	0	886	1	4	0	216	5	0	0	100
fixed	7	1	6	1370371	6	4	4	1	0	1080	1	4	0	224	6	0	0	100
fixed	7	1	7	1371887	3	1	1	1	0	656	1	4	0	200	7	0	0	100
fixed	7	1	8	1372994	2	3	3	1	0	1417	1	4	0	216	8	0	0	100
fixed	7	1	9	1375038	3	2	2	1	0	547	1	4	0	208	9	0	0	100
fixed	7	1	10	1375923	1	4	4	1	0	725	1	4	0	224	10	0	0	100
fixed	7	1	11	1377550	5	2	2	1	0	752	1	4	0	208	11	0	0	100
fixed	7	1	12	1378680	4	3	3	1	0	928	1	4	0	216	12	0	0	100
fixed	7	2	1	1380360	4	1	1	1	0	1049	1	4	0	200	1	0	0	8
fixed	7	2	2	1382407	1	2	2	1	0	874	1	4	0	208	2	0	0	14
fixed	7	2	3	1384071	6	4	4	1	0	660	1	4	0	224	3	0	0	20
fixed	7	2	4	1385501	2	1	1	1	0	712	1	4	0	200	4	0	0	25
fixed	7	2	5	1386677	5	3	3	1	0	781	1	4	0	216	5	0	0	29
fixed	7	2	6	1388106	6	4	4	1	0	721	1	4	0	224	6	0	0	33
fixed	7	2	7	1389239	3	1	1	1	0	729	1	4	0	200	7	0	0	37
fixed	7	2	8	1390934	2	3	3	1	0	969	1	4	0	216	8	0	0	40
fixed	7	2	9	1392898	3	2	2	1	0	654	1	4	0	208	9	0	0	43
fixed	7	2	10	1394115	1	4	4	1	0	978	1	4	0	224	10	0	0	45
fixed	7	2	11	1395417	5	2	2	1	0	867	1	4	0	208	11	0	0	48
fixed	7	2	12	1396595	4	3	3	1	0	778	1	4	0	216	12	0	0	50
fixed	7	3	1	1397920	4	1	1	1	0	873	1	4	0	200	1	0	0	4
fixed	7	3	2	1399417	1	2	2	1	0	1098	1	4	0	208	2	0	0	8
fixed	7	3	3	1401230	6	4	4	1	0	1093	1	4	0	224	3	0	0	11
fixed	7	3	4	1403318	2	1	1	1	0	836	1	4	0	200	4	0	0	14
fixed	7	3	5	1404717	5	3	3	1	0	1810	1	4	0	216	5	0	0	17
fixed	7	3	6	1407508	6	4	4	1	0	931	1	4	0	224	6	0	0	20
fixed	7	3	7	1408941	3	1	1	1	0	767	1	4	0	200	7	0	0	23
fixed	7	3	8	1410543	2	3	3	1	0	1043	1	4	0	216	8	0	0	25
fixed	7	3	9	1412030	3	2	2	2	0	836	2	4	0	208	9	0	0	27
fixed	7	3	10	1413502	1	4	4	1	0	741	1	4	0	224	10	0	0	29
fixed	7	3	11	1415054	5	2	2	1	0	852	1	4	0	208	11	0	0	31
fixed	7	3	12	1416512	4	3	3	1	0	1462	1	4	0	216	12	0	0	33
fixed	7	4	1	1418688	4	1	1	1	0	705	1	4	0	200	1	0	0	3
fixed	7	4	2	1420138	1	2	2	1	0	884	1	4	0	208	2	0	0	5
fixed	7	4	3	1421564	6	4	4	1	0	768	1	4	0	224	3	0	0	8
fixed	7	4	4	1422868	2	1	1	1	0	680	1	4	0	200	4	0	0	10
fixed	7	4	5	1424258	5	3	3	1	0	854	1	4	0	216	5	0	0	12
fixed	7	4	6	1426063	6	4	4	1	0	665	1	4	0	224	6	0	0	14
fixed	7	4	7	1427144	3	1	1	1	0	707	1	4	0	200	7	0	0	16
fixed	7	4	8	1428618	2	3	3	1	0	1285	1	4	0	216	8	0	0	18
fixed	7	4	9	1430797	3	2	2	1	0	657	1	4	0	208	9	0	0	20
fixed	7	4	10	1432271	1	4	4	1	0	682	1	4	0	224	10	0	0	22
fixed	7	4	11	1433528	5	2	2	1	0	797	1	4	0	208	11	0	0	23
fixed	7	4	12	1434976	4	3	3	1	0	663	1	4	0	216	12	0	0	25
fixed	7	5	1	1436531	4	1	1	1	0	758	1	4	0	200	1	0	0	2
fixed	7	5	2	1438205	1	2	2	1	0	1351	1	4	0	208	2	0	0	4
fixed	7	5	3	1439927	6	4	4	1	0	662	1	4	0	224	3	0	0	6
fixed	7	5	4	1441526	2	1	1	1	0	634	1	4	0	200	4	0	0	8
fixed	7	5	5	1442536	5	3	3	1	0	832	1	4	0	216	5	0	0	9
fixed	7	5	6	1443679	6	4	4	1	0	719	1	4	0	224	6	0	0	11
fixed	7	5	7	1445278	3	1	1	1	0	1020	1	4	0	200	7	0	0	13
fixed	7	5	8	1447157	2	3	3	1	0	932	1	4	0	216	8	0	0	14
fixed	7	5	9	1448925	3	2	2	1	0	641	1	4	0	208	9	0	0	16
fixed	7	5	10	1450500	1	4	4	1	0	582	1	4	0	224	10	0	0	17
fixed	7	5	11	1451671	5	2	2	1	0	981	1	4	0	208	11	0	0	19
fixed	7	5	12	1453374	4	3	3	1	0	868	1	4	0	216	12	0	0	20
fixed	7	6	1	1455144	4	1	1	1	0	721	1	4	0	200	1	0	0	2
fixed	7	6	2	1456782	1	2	2	1	0	1268	1	4	0	208	2	0	0	3
fixed	7	6	3	1458493	6	4	4	1	0	716	1	4	0	224	3	0	0	5
fixed	7	6	4	1460119	2	1	1	1	0	767	1	4	0	200	4	0	0	6
fixed	7	6	5	1461384	5	3	3	1	0	801	1	4	0	216	5	0	0	8
fixed	7	6	6	1462979	6	4	4	1	0	909	1	4	0	224	6	0	0	9
fixed	7	6	7	1464345	3	1	1	1	0	588	1	4	0	200	7	0	0	10
fixed	7	6	8	1465471	2	3	0	1	2	0	3	4	0	216	7	0	1	10
fixed	7	6	9	1468300	3	2	2	1	0	796	1	4	0	208	8	0	1	12
fixed	7	6	10	1469485	1	4	4	1	0	1018	1	4	0	224	9	0	1	13
fixed	7	6	11	1471406	5	2	2	1	0	1137	1	4	0	208	10	0	1	14
fixed	7	6	12	1473027	4	3	3	1	0	1564	1	4	0	216	11	0	1	15
fixed	7	7	1	1475377	4	1	1	1	0	680	1	4	0	200	1	0	0	1
fixed	7	7	2	1476779	1	2	2	1	0	1077	1	4	0	208	2	0	0	3
fixed	7	7	3	1478165	6	4	4	1	0	698	1	4	0	224	3	0	0	4
fixed	7	7	4	1479633	2	1	1	1	0	821	1	4	0	200	4	0	0	5
fixed	7	7	5	1480909	5	3	3	1	0	854	1	4	0	216	5	0	0	6
fixed	7	7	6	1482750	6	4	4	1	0	784	1	4	0	224	6	0	0	8
fixed	7	7	7	1484557	3	1	1	1	0	732	1	4	0	200	7	0	0	9
fixed	7	7	8	1486183	2	3	3	1	0	1047	1	4	0	216	8	0	0	10
fixed	7	7	9	1487599	3	2	2	1	0	747	1	4	0	208	9	0	0	11
fixed	7	7	10	1489084	1	4	4	1	0	636	1	4	0	224	10	0	0	12
fixed	7	7	11	1490119	5	2	2	1	0	904	1	4	0	208	11	0	0	13
fixed	7	7	12	1491389	4	3	3	1	0	754	1	4	0	216	12	0	0	14
fixed	7	8	1	1493187	4	1	1	1	0	926	1	4	0	200	1	0	0	1
fixed	7	8	2	1494785	1	2	2	1	0	875	1	4	0	208	2	0	0	2
fixed	7	8	3	1495983	6	4	4	1	0	688	1	4	0	224	3	0	0	3
fixed	7	8	4	1497092	2	1	1	1	0	601	1	4	0	200	4	0	0	5
fixed	7	8	5	1498441	5	3	3	1	0	1280	1	4	0	216	5	0	0	6
fixed	7	8	6	1500025	6	4	4	1	0	717	1	4	0	224	6	0	0	7
fixed	7	8	7	1501129	3	1	1	1	0	926	1	4	0	200	7	0	0	8
fixed	7	8	8	1502670	2	3	3	1	0	1205	1	4	0	216	8	0	0	9
fixed	7	8	9	1504649	3	2	2	1	0	649	1	4	0	208	9	0	0	10
fixed	7	8	10	1505734	1	4	4	1	0	667	1	4	0	224	10	0	0	11
fixed	7	8	11	1507436	5	2	2	1	0	738	1	4	0	208	11	0	0	12
fixed	7	8	12	1508659	4	3	3	1	0	855	1	4	0	216	12	0	0	13
fixed	7	9	1	1510396	4	1	1	1	0	781	1	4	0	200	1	0	0	1
fixed	7	9	2	1512054	1	2	2	1	0	911	1	4	0	208	2	0	0	2
fixed	7	9	3	1513606	6	4	4	1	0	605	1	4	0	224	3	0	0	3
fixed	7	9	4	1514918	2	1	1	1	0	702	1	4	0	200	4	0	0	4
fixed	7	9	5	1516397	5	3	3	1	0	783	1	4	0	216	5	0	0	5
fixed	7	9	6	1517528	6	4	4	1	0	871	1	4	0	224	6	0	0	6
fixed	7	9	7	1519330	3	1	1	1	0	915	1	4	0	200	7	0	0	7
fixed	7	9	8	1520557	2	3	3	1	0	1807	1	4	0	216	8	0	0	8
fixed	7	9	9	1523339	3	2	2	1	0	785	1	4	0	208	9	0	0	9
fixed	7	9	10	1525036	1	4	4	2	0	2105	2	4	0	224	10	0	0	9
fixed	7	9	11	1528155	5	2	2	1	0	861	1	4	0	208	11	0	0	10
fixed	7	9	12	1529775	4	3	3	1	0	1616	1	4	0	216	12	0	0	11
fixed	7	10	1	1532049	4	1	1	1	0	720	1	4	0	200	1	0	0	1
fixed	7	10	2	1533798	1	2	2	1	0	894	1	4	0	208	2	0	0	2
fixed	7	10	3	1535469	6	4	4	1	0	792	1	4	0	224	3	0	0	3
fixed	7	10	4	1536653	2	1	1	1	0	677	1	4	0	200	4	0	0	4
fixed	7	10	5	1538208	5	3	3	1	0	1036	1	4	0	216	5	0	0	4
fixed	7	10	6	1540213	6	4	4	1	0	759	1	4	0	224	6	0	0	5
fixed	7	10	7	1541960	3	1	1	1	0	652	1	4	0	200	7	0	0	6
fixed	7	10	8	1543434	2	3	3	1	0	950	1	4	0	216	8	0	0	7
fixed	7	10	9	1545193	3	2	2	1	0	764	1	4	0	208	9	0	0	8
fixed	7	10	10	1546328	1	4	4	1	0	700	1	4	0	224	10	0	0	8
fixed	7	10	11	1547587	5	2	2	1	0	910	1	4	0	208	11	0	0	9
fixed	7	10	12	1549110	4	3	3	1	0	1005	1	4	0	216	12	0	0	10
