type	block	sequ.	trial	time	Pos.	Color	Button	NumRsp	Resp_1	RT_1	R_Code	Resp_2	RT_2	Trigg.	n_hit	n_inc	n_miss	score_%

random	1	1	1	5745	6	1	1	1	0	587	1	4	0	8	1	0	0	100
random	1	1	2	7092	4	4	4	1	0	683	1	4	0	32	2	0	0	100
random	1	1	3	8274	2	2	2	1	0	865	1	4	0	16	3	0	0	100
random	1	1	4	9485	3	3	3	1	0	518	1	4	0	24	4	0	0	100
random	1	1	5	10688	5	2	2	1	0	787	1	4	0	16	5	0	0	100
random	1	1	6	12291	1	4	4	1	0	639	1	4	0	32	6	0	0	100
random	1	1	7	13915	6	1	1	1	0	634	1	4	0	8	7	0	0	100
random	1	1	8	15550	2	3	3	1	0	1141	1	4	0	24	8	0	0	100
random	1	1	9	17666	4	2	2	1	0	667	1	4	0	16	9	0	0	100
random	1	1	10	18763	1	1	1	1	0	860	1	4	0	8	10	0	0	100
random	1	1	11	20125	5	4	4	1	0	619	1	4	0	32	11	0	0	100
random	1	1	12	21683	3	3	3	1	0	1049	1	4	0	24	12	0	0	100
random	1	1	13	23874	5	2	2	1	0	1060	1	4	0	16	13	0	0	100
random	1	1	14	25829	1	4	4	1	0	817	1	4	0	32	14	0	0	100
random	1	1	15	27613	3	1	1	1	0	798	1	4	0	8	15	0	0	100
random	1	1	16	29222	4	3	3	1	0	1393	1	4	0	24	16	0	0	100
random	1	1	17	31594	6	4	4	1	0	973	1	4	0	32	17	0	0	100
random	1	1	18	33228	2	1	1	1	0	712	1	4	0	8	18	0	0	100
random	1	1	19	34921	5	3	3	1	0	936	1	4	0	24	19	0	0	100
random	1	1	20	36760	2	2	2	1	0	786	1	4	0	16	20	0	0	100
random	1	1	21	38187	3	3	3	1	0	774	1	4	0	24	21	0	0	100
random	1	1	22	39338	6	1	1	1	0	805	1	4	0	8	22	0	0	100
random	1	1	23	41045	4	2	2	1	0	1053	1	4	0	16	23	0	0	100
random	1	1	24	42712	1	4	4	1	0	630	1	4	0	32	24	0	0	100
random	1	1	25	43925	4	3	3	1	0	1227	1	4	0	24	25	0	0	100
random	1	1	26	46148	2	1	1	1	0	724	1	4	0	8	26	0	0	100
random	1	1	27	47330	5	2	2	1	0	954	1	4	0	16	27	0	0	100
random	1	1	28	48754	6	4	4	1	0	662	1	4	0	32	28	0	0	100
random	1	1	29	50125	1	3	3	1	0	1484	1	4	0	24	29	0	0	100
random	1	1	30	52016	5	2	2	1	0	804	1	4	0	16	30	0	0	100
random	1	1	31	53118	2	1	1	1	0	685	1	4	0	8	31	0	0	100
random	1	1	32	54632	3	3	3	1	0	973	1	4	0	24	32	0	0	100
random	1	1	33	56062	6	4	4	1	0	857	1	4	0	32	33	0	0	100
random	1	1	34	57818	4	2	2	1	0	710	1	4	0	16	34	0	0	100
random	1	1	35	59146	3	4	4	1	0	630	1	4	0	32	35	0	0	100
random	1	1	36	60708	1	1	1	1	0	676	1	4	0	8	36	0	0	100
random	1	1	37	62604	3	4	4	1	0	1067	1	4	0	32	37	0	0	100
random	1	1	38	64076	5	3	0	1	2	0	3	4	0	24	37	0	1	97
random	1	1	39	67201	6	1	1	1	0	993	1	4	0	8	38	0	1	97
random	1	1	40	68954	1	2	2	1	0	798	1	4	0	16	39	0	1	98
random	1	1	41	70377	2	3	3	1	0	858	1	4	0	24	40	0	1	98
random	1	1	42	72202	4	4	4	1	0	1029	1	4	0	32	41	0	1	98
random	1	1	43	73866	1	2	2	1	0	1022	1	4	0	16	42	0	1	98
random	1	1	44	75824	6	3	3	1	0	804	1	4	0	24	43	0	1	98
random	1	1	45	76999	3	1	1	1	0	754	1	4	0	8	44	0	1	98
random	1	1	46	78627	4	4	4	1	0	861	1	4	0	32	45	0	1	98
random	1	1	47	80379	2	2	2	1	0	954	1	4	0	16	46	0	1	98
random	1	1	48	82086	5	1	1	1	0	850	1	4	0	8	47	0	1	98
random	1	1	49	83639	2	3	3	1	0	1032	1	4	0	24	48	0	1	98
random	1	1	50	85177	3	1	1	1	0	887	1	4	0	8	49	0	1	98
random	1	1	51	86530	1	4	4	1	0	798	1	4	0	32	50	0	1	98
random	1	1	52	87842	5	3	3	1	0	1631	1	4	0	24	51	0	1	98
random	1	1	53	90293	3	2	2	1	0	583	1	4	0	16	52	0	1	98
random	1	1	54	91159	6	4	4	1	0	746	1	4	0	32	53	0	1	98
random	1	1	55	92447	4	2	2	1	0	803	1	4	0	16	54	0	1	98
random	1	1	56	93686	1	1	1	1	0	687	1	4	0	8	55	0	1	98
random	1	1	57	95292	5	4	4	1	0	635	1	4	0	32	56	0	1	98
random	1	1	58	96666	2	1	1	1	0	833	1	4	0	8	57	0	1	98
random	1	1	59	98366	6	2	2	1	0	993	1	4	0	16	58	0	1	98
random	1	1	60	99681	4	3	3	1	0	905	1	4	0	24	59	0	1	98
random	1	1	61	101583	1	2	2	1	0	1016	1	4	0	16	60	0	1	98
random	1	1	62	103520	6	4	4	1	0	758	1	4	0	32	61	0	1	98
random	1	1	63	104897	4	1	1	1	0	836	1	4	0	8	62	0	1	98
random	1	1	64	106347	2	2	2	1	0	927	1	4	0	16	63	0	1	98
random	1	1	65	107709	4	3	3	1	0	781	1	4	0	24	64	0	1	98
random	1	1	66	108935	3	1	1	1	0	713	1	4	0	8	65	0	1	98
random	1	1	67	110350	1	3	3	1	0	942	1	4	0	24	66	0	1	99
random	1	1	68	112260	5	4	4	1	0	652	1	4	0	32	67	0	1	99
random	1	1	69	113746	2	2	2	1	0	925	1	4	0	16	68	0	1	99
random	1	1	70	115348	3	1	1	1	0	769	1	4	0	8	69	0	1	99
random	1	1	71	116957	5	4	4	1	0	829	1	4	0	32	70	0	1	99
random	1	1	72	118328	6	3	3	1	0	1131	1	4	0	24	71	0	1	99
random	1	1	73	120295	2	1	1	1	0	808	1	4	0	8	72	0	1	99
random	1	1	74	121483	5	3	3	1	0	870	1	4	0	24	73	0	1	99
random	1	1	75	123213	1	4	4	1	0	973	1	4	0	32	74	0	1	99
random	1	1	76	124872	6	2	2	1	0	846	1	4	0	16	75	0	1	99
random	1	1	77	126331	2	1	1	1	0	672	1	4	0	8	76	0	1	99
random	1	1	78	127693	4	4	4	1	0	727	1	4	0	32	77	0	1	99
random	1	1	79	128824	3	2	2	1	0	895	1	4	0	16	78	0	1	99
random	1	1	80	130725	4	3	3	1	0	774	1	4	0	24	79	0	1	99
random	1	1	81	132221	1	4	4	1	0	943	1	4	0	32	80	0	1	99
random	1	1	82	133858	5	1	1	1	0	698	1	4	0	8	81	0	1	99
random	1	1	83	134956	3	2	2	1	0	907	1	4	0	16	82	0	1	99
random	1	1	84	136158	6	3	3	1	0	768	1	4	0	24	83	0	1	99
random	1	1	85	138089	3	2	2	1	0	934	1	4	0	16	84	0	1	99
random	1	1	86	139394	1	3	3	1	0	815	1	4	0	24	85	0	1	99
random	1	1	87	141232	4	4	4	1	0	817	1	4	0	32	86	0	1	99
random	1	1	88	142882	2	1	1	1	0	731	1	4	0	8	87	0	1	99
random	1	1	89	144264	6	4	4	1	0	761	1	4	0	32	88	0	1	99
random	1	1	90	145960	3	3	3	1	0	977	1	4	0	24	89	0	1	99
random	1	1	91	147673	5	4	4	1	0	833	1	4	0	32	90	0	1	99
random	1	1	92	149039	1	2	2	1	0	775	1	4	0	16	91	0	1	99
random	1	1	93	150582	5	1	1	1	0	830	1	4	0	8	92	0	1	99
random	1	1	94	152060	4	3	3	1	0	1767	1	4	0	24	93	0	1	99
random	1	1	95	154646	6	1	1	1	0	825	1	4	0	8	94	0	1	99
random	1	1	96	156419	2	2	2	1	0	838	1	4	0	16	95	0	1	99
random	1	1	97	158389	4	3	3	1	0	994	1	4	0	24	96	0	1	99
random	1	1	98	159815	3	2	2	1	0	790	1	4	0	16	97	0	1	99
random	1	1	99	161092	6	3	3	1	0	1256	1	4	0	24	98	0	1	99
random	1	1	100	162853	1	4	4	1	0	645	1	4	0	32	99	0	1	99
random	1	1	101	164026	4	1	1	1	0	628	1	4	0	8	100	0	1	99
random	1	1	102	165570	5	2	2	1	0	890	1	4	0	16	101	0	1	99
random	1	1	103	167295	2	4	4	1	0	745	1	4	0	32	102	0	1	99
random	1	1	104	168726	3	1	1	1	0	909	1	4	0	8	103	0	1	99
random	1	1	105	170583	1	3	3	1	0	910	1	4	0	24	104	0	1	99
random	1	1	106	171871	2	2	2	1	0	735	1	4	0	16	105	0	1	99
random	1	1	107	173086	5	4	4	1	0	620	1	4	0	32	106	0	1	99
random	1	1	108	174168	6	1	1	1	0	606	1	4	0	8	107	0	1	99
random	1	1	109	175715	5	4	4	1	0	797	1	4	0	32	108	0	1	99
random	1	1	110	177505	6	3	3	1	0	1041	1	4	0	24	109	0	1	99
random	1	1	111	179370	2	2	2	1	0	610	1	4	0	16	110	0	1	99
random	1	1	112	180471	3	1	1	1	0	788	1	4	0	8	111	0	1	99
random	1	1	113	181996	1	2	2	1	0	898	1	4	0	16	112	0	1	99
random	1	1	114	183308	2	3	3	1	0	1139	1	4	0	24	113	0	1	99
random	1	1	115	185210	3	1	1	1	0	683	1	4	0	8	114	0	1	99
random	1	1	116	186858	4	4	4	1	0	637	1	4	0	32	115	0	1	99
random	1	1	117	188364	6	1	1	1	0	725	1	4	0	8	116	0	1	99
random	1	1	118	190040	5	3	3	1	0	1078	1	4	0	24	117	0	1	99
random	1	1	119	192027	1	4	4	1	0	698	1	4	0	32	118	0	1	99
random	1	1	120	193542	4	2	2	1	0	1097	1	4	0	16	119	0	1	99
fixed	2	1	1	195628	4	1	1	1	0	713	1	4	0	40	1	0	0	100
fixed	2	1	2	196980	1	2	2	1	0	1000	1	4	0	48	2	0	0	100
fixed	2	1	3	198987	6	4	4	1	0	643	1	4	0	64	3	0	0	100
fixed	2	1	4	200011	2	1	1	1	0	720	1	4	0	40	4	0	0	100
fixed	2	1	5	201353	5	3	3	1	0	831	1	4	0	56	5	0	0	100
fixed	2	1	6	202579	6	4	4	1	0	859	1	4	0	64	6	0	0	100
fixed	2	1	7	204046	3	1	1	1	0	685	1	4	0	40	7	0	0	100
fixed	2	1	8	205706	2	3	3	1	0	998	1	4	0	56	8	0	0	100
fixed	2	1	9	207009	3	2	2	1	0	799	1	4	0	48	9	0	0	100
fixed	2	1	10	208333	1	4	4	1	0	559	1	4	0	64	10	0	0	100
fixed	2	1	11	209584	5	2	2	1	0	746	1	4	0	48	11	0	0	100
fixed	2	1	12	210896	4	3	3	1	0	891	1	4	0	56	12	0	0	100
fixed	2	2	1	212422	4	1	1	1	0	658	1	4	0	40	13	0	0	100
fixed	2	2	2	213960	1	2	2	1	0	1025	1	4	0	48	14	0	0	100
fixed	2	2	3	215723	6	4	4	1	0	630	1	4	0	64	15	0	0	100
fixed	2	2	4	217315	2	1	1	1	0	754	1	4	0	40	16	0	0	100
fixed	2	2	5	218795	5	3	3	1	0	740	1	4	0	56	17	0	0	100
fixed	2	2	6	220319	6	4	4	1	0	628	1	4	0	64	18	0	0	100
fixed	2	2	7	221608	3	1	1	1	0	733	1	4	0	40	19	0	0	100
fixed	2	2	8	223322	2	3	3	1	0	1852	1	4	0	56	20	0	0	100
fixed	2	2	9	225846	3	2	2	1	0	578	1	4	0	48	21	0	0	100
fixed	2	2	10	227042	1	4	4	1	0	759	1	4	0	64	22	0	0	100
fixed	2	2	11	228700	5	2	2	1	0	849	1	4	0	48	23	0	0	100
fixed	2	2	12	230552	4	3	3	1	0	818	1	4	0	56	24	0	0	100
fixed	2	3	1	232220	4	1	1	1	0	827	1	4	0	40	25	0	0	100
fixed	2	3	2	233900	1	2	2	1	0	956	1	4	0	48	26	0	0	100
fixed	2	3	3	235506	6	4	4	1	0	673	1	4	0	64	27	0	0	100
fixed	2	3	4	236817	2	1	1	1	0	649	1	4	0	40	28	0	0	100
fixed	2	3	5	238302	5	3	3	1	0	1218	1	4	0	56	29	0	0	100
fixed	2	3	6	239855	6	4	4	1	0	784	1	4	0	64	30	0	0	100
fixed	2	3	7	241630	3	1	1	1	0	829	1	4	0	40	31	0	0	100
fixed	2	3	8	243306	2	3	3	1	0	990	1	4	0	56	32	0	0	100
fixed	2	3	9	244706	3	2	2	1	0	659	1	4	0	48	33	0	0	100
fixed	2	3	10	246249	1	4	4	1	0	602	1	4	0	64	34	0	0	100
fixed	2	3	11	247183	5	2	2	1	0	826	1	4	0	48	35	0	0	100
fixed	2	3	12	248841	4	3	3	1	0	956	1	4	0	56	36	0	0	100
fixed	2	4	1	250348	4	1	1	1	0	675	1	4	0	40	37	0	0	100
fixed	2	4	2	251626	1	2	2	1	0	862	1	4	0	48	38	0	0	100
fixed	2	4	3	253473	6	4	4	1	0	575	1	4	0	64	39	0	0	100
fixed	2	4	4	254606	2	1	1	1	0	711	1	4	0	40	40	0	0	100
fixed	2	4	5	255616	5	3	3	1	0	845	1	4	0	56	41	0	0	100
fixed	2	4	6	257478	6	4	4	1	0	822	1	4	0	64	42	0	0	100
fixed	2	4	7	258788	3	1	1	1	0	726	1	4	0	40	43	0	0	100
fixed	2	4	8	260025	2	3	3	1	0	1346	1	4	0	56	44	0	0	100
fixed	2	4	9	261921	3	2	2	1	0	634	1	4	0	48	45	0	0	100
fixed	2	4	10	263394	1	4	4	1	0	611	1	4	0	64	46	0	0	100
fixed	2	4	11	264365	5	2	2	1	0	930	1	4	0	48	47	0	0	100
fixed	2	4	12	265787	4	3	3	1	0	710	1	4	0	56	48	0	0	100
fixed	2	5	1	267189	4	1	1	1	0	666	1	4	0	40	49	0	0	100
fixed	2	5	2	268551	1	2	2	1	0	985	1	4	0	48	50	0	0	100
fixed	2	5	3	269946	6	4	4	1	0	629	1	4	0	64	51	0	0	100
fixed	2	5	4	271430	2	1	1	1	0	1950	1	4	0	40	52	0	0	100
fixed	2	5	5	274255	5	3	3	1	0	967	1	4	0	56	53	0	0	100
fixed	2	5	6	276162	6	4	4	1	0	694	1	4	0	64	54	0	0	100
fixed	2	5	7	277718	3	1	1	1	0	724	1	4	0	40	55	0	0	100
fixed	2	5	8	278773	2	3	3	1	0	1080	1	4	0	56	56	0	0	100
fixed	2	5	9	280543	3	2	2	1	0	701	1	4	0	48	57	0	0	100
fixed	2	5	10	281773	1	4	4	1	0	672	1	4	0	64	58	0	0	100
fixed	2	5	11	282926	5	2	2	1	0	856	1	4	0	48	59	0	0	100
fixed	2	5	12	284722	4	3	3	1	0	1612	1	4	0	56	60	0	0	100
fixed	2	6	1	287472	4	1	1	1	0	615	1	4	0	40	61	0	0	100
fixed	2	6	2	288733	1	2	2	1	0	858	1	4	0	48	62	0	0	100
fixed	2	6	3	289959	6	4	4	1	0	662	1	4	0	64	63	0	0	100
fixed	2	6	4	291068	2	1	1	1	0	943	1	4	0	40	64	0	0	100
fixed	2	6	5	292389	5	3	3	1	0	1055	1	4	0	56	65	0	0	100
fixed	2	6	6	294024	6	4	4	1	0	706	1	4	0	64	66	0	0	100
fixed	2	6	7	295054	3	1	1	1	0	798	1	4	0	40	67	0	0	100
fixed	2	6	8	296381	2	3	3	1	0	1190	1	4	0	56	68	0	0	100
fixed	2	6	9	298067	3	2	2	1	0	614	1	4	0	48	69	0	0	100
fixed	2	6	10	299116	1	4	4	1	0	914	1	4	0	64	70	0	0	100
fixed	2	6	11	300910	5	2	2	1	0	1150	1	4	0	48	71	0	0	100
fixed	2	6	12	302594	4	3	3	1	0	935	1	4	0	56	72	0	0	100
fixed	2	7	1	304080	4	1	1	1	0	680	1	4	0	40	73	0	0	100
fixed	2	7	2	305378	1	2	2	1	0	849	1	4	0	48	74	0	0	100
fixed	2	7	3	307214	6	4	4	1	0	763	1	4	0	64	75	0	0	100
fixed	2	7	4	308946	2	1	1	1	0	682	1	4	0	40	76	0	0	100
fixed	2	7	5	310296	5	3	3	1	0	832	1	4	0	56	77	0	0	100
fixed	2	7	6	312048	6	4	4	1	0	830	1	4	0	64	78	0	0	100
fixed	2	7	7	313297	3	1	1	1	0	746	1	4	0	40	79	0	0	100
fixed	2	7	8	314829	2	3	3	1	0	1097	1	4	0	56	80	0	0	100
fixed	2	7	9	316862	3	2	2	1	0	634	1	4	0	48	81	0	0	100
fixed	2	7	10	318475	1	4	4	1	0	598	1	4	0	64	82	0	0	100
fixed	2	7	11	319525	5	2	2	1	0	1194	1	4	0	48	83	0	0	100
fixed	2	7	12	321128	4	3	3	1	0	766	1	4	0	56	84	0	0	100
fixed	2	8	1	322993	4	1	1	1	0	815	1	4	0	40	85	0	0	100
fixed	2	8	2	324375	1	2	2	1	0	853	1	4	0	48	86	0	0	100
fixed	2	8	3	326213	6	4	4	1	0	703	1	4	0	64	87	0	0	100
fixed	2	8	4	327361	2	1	1	1	0	646	1	4	0	40	88	0	0	100
fixed	2	8	5	328511	5	3	3	1	0	853	1	4	0	56	89	0	0	100
fixed	2	8	6	330035	6	4	4	1	0	653	1	4	0	64	90	0	0	100
fixed	2	8	7	331445	3	1	1	1	0	777	1	4	0	40	91	0	0	100
fixed	2	8	8	332684	2	3	3	1	0	1100	1	4	0	56	92	0	0	100
fixed	2	8	9	334762	3	2	2	1	0	604	1	4	0	48	93	0	0	100
fixed	2	8	10	336155	1	4	4	1	0	602	1	4	0	64	94	0	0	100
fixed	2	8	11	337473	5	2	2	1	0	882	1	4	0	48	95	0	0	100
fixed	2	8	12	338700	4	3	3	1	0	805	1	4	0	56	96	0	0	100
fixed	2	9	1	340519	4	1	1	1	0	648	1	4	0	40	97	0	0	100
fixed	2	9	2	341725	1	2	2	1	0	805	1	4	0	48	98	0	0	100
fixed	2	9	3	343154	6	4	4	1	0	577	1	4	0	64	99	0	0	100
fixed	2	9	4	344257	2	1	1	1	0	778	1	4	0	40	100	0	0	100
fixed	2	9	5	345418	5	3	3	1	0	753	1	4	0	56	101	0	0	100
fixed	2	9	6	346914	6	4	4	1	0	682	1	4	0	64	102	0	0	100
fixed	2	9	7	348123	3	1	1	1	0	974	1	4	0	40	103	0	0	100
fixed	2	9	8	349726	2	3	3	1	0	802	1	4	0	56	104	0	0	100
fixed	2	9	9	351465	3	2	2	1	0	665	1	4	0	48	105	0	0	100
fixed	2	9	10	352847	1	4	4	1	0	566	1	4	0	64	106	0	0	100
fixed	2	9	11	353955	5	2	2	1	0	967	1	4	0	48	107	0	0	100
fixed	2	9	12	355705	4	3	3	1	0	781	1	4	0	56	108	0	0	100
fixed	2	10	1	357294	4	1	1	1	0	954	1	4	0	40	109	0	0	100
fixed	2	10	2	358607	1	2	2	1	0	923	1	4	0	48	110	0	0	100
fixed	2	10	3	360021	6	4	4	1	0	726	1	4	0	64	111	0	0	100
fixed	2	10	4	361568	2	1	1	1	0	693	1	4	0	40	112	0	0	100
fixed	2	10	5	363215	5	3	3	1	0	831	1	4	0	56	113	0	0	100
fixed	2	10	6	364496	6	4	4	1	0	1105	1	4	0	64	114	0	0	100
fixed	2	10	7	366507	3	1	1	1	0	1348	1	4	0	40	115	0	0	100
fixed	2	10	8	368265	2	3	3	1	0	994	1	4	0	56	116	0	0	100
fixed	2	10	9	369853	3	2	2	1	0	638	1	4	0	48	117	0	0	100
fixed	2	10	10	370858	1	4	4	1	0	643	1	4	0	64	118	0	0	100
fixed	2	10	11	371839	5	2	2	1	0	770	1	4	0	48	119	0	0	100
fixed	2	10	12	373459	4	3	3	1	0	909	1	4	0	56	120	0	0	100
fixed	3	1	1	375904	4	1	1	1	0	749	1	4	0	72	1	0	0	100
fixed	3	1	2	377169	1	2	2	1	0	904	1	4	0	80	2	0	0	100
fixed	3	1	3	379061	6	4	4	1	0	576	1	4	0	96	3	0	0	100
fixed	3	1	4	380006	2	1	1	1	0	704	1	4	0	72	4	0	0	100
fixed	3	1	5	381439	5	3	3	1	0	739	1	4	0	88	5	0	0	100
fixed	3	1	6	382982	6	4	4	1	0	666	1	4	0	96	6	0	0	100
fixed	3	1	7	384131	3	1	1	1	0	681	1	4	0	72	7	0	0	100
fixed	3	1	8	385697	2	3	3	1	0	1463	1	4	0	88	8	0	0	100
fixed	3	1	9	388153	3	2	2	1	0	695	1	4	0	80	9	0	0	100
fixed	3	1	10	389385	1	4	4	1	0	603	1	4	0	96	10	0	0	100
fixed	3	1	11	390625	5	2	2	1	0	838	1	4	0	80	11	0	0	100
fixed	3	1	12	391889	4	3	3	1	0	801	1	4	0	88	12	0	0	100
fixed	3	2	1	393248	4	1	1	1	0	671	1	4	0	72	13	0	0	100
fixed	3	2	2	394718	1	2	2	1	0	1097	1	4	0	80	14	0	0	100
fixed	3	2	3	396797	6	4	4	1	0	593	1	4	0	96	15	0	0	100
fixed	3	2	4	397703	2	1	1	1	0	691	1	4	0	72	16	0	0	100
fixed	3	2	5	398702	5	3	3	1	0	1016	1	4	0	88	17	0	0	100
fixed	3	2	6	400438	6	4	4	1	0	575	1	4	0	96	18	0	0	100
fixed	3	2	7	401422	3	1	1	1	0	653	1	4	0	72	19	0	0	100
fixed	3	2	8	402859	2	3	3	1	0	912	1	4	0	88	20	0	0	100
fixed	3	2	9	404544	3	2	2	1	0	681	1	4	0	80	21	0	0	100
fixed	3	2	10	405973	1	4	4	1	0	596	1	4	0	96	22	0	0	100
fixed	3	2	11	407507	5	2	2	1	0	1147	1	4	0	80	23	0	0	100
fixed	3	2	12	409207	4	3	3	1	0	931	1	4	0	88	24	0	0	100
fixed	3	3	1	411243	4	1	1	1	0	685	1	4	0	72	25	0	0	100
fixed	3	3	2	412306	1	2	2	1	0	848	1	4	0	80	26	0	0	100
fixed	3	3	3	414003	6	4	4	1	0	576	1	4	0	96	27	0	0	100
fixed	3	3	4	415217	2	1	1	1	0	764	1	4	0	72	28	0	0	100
fixed	3	3	5	416347	5	3	3	1	0	837	1	4	0	88	29	0	0	100
fixed	3	3	6	417971	6	4	4	1	0	680	1	4	0	96	30	0	0	100
fixed	3	3	7	419381	3	1	1	1	0	652	1	4	0	72	31	0	0	100
fixed	3	3	8	420799	2	3	3	1	0	1640	1	4	0	88	32	0	0	100
fixed	3	3	9	422898	3	2	2	1	0	672	1	4	0	80	33	0	0	100
fixed	3	3	10	424414	1	4	4	1	0	623	1	4	0	96	34	0	0	100
fixed	3	3	11	426010	5	2	2	1	0	803	1	4	0	80	35	0	0	100
fixed	3	3	12	427230	4	3	3	1	0	752	1	4	0	88	36	0	0	100
fixed	3	4	1	428819	4	1	1	1	0	636	1	4	0	72	37	0	0	100
fixed	3	4	2	429955	1	2	2	1	0	1004	1	4	0	80	38	0	0	100
fixed	3	4	3	431675	6	4	4	1	0	555	1	4	0	96	39	0	0	100
fixed	3	4	4	432702	2	1	1	1	0	712	1	4	0	72	40	0	0	100
fixed	3	4	5	433754	5	3	3	1	0	836	1	4	0	88	41	0	0	100
fixed	3	4	6	435149	6	4	4	1	0	600	1	4	0	96	42	0	0	100
fixed	3	4	7	436562	3	1	1	1	0	805	1	4	0	72	43	0	0	100
fixed	3	4	8	437784	2	3	3	1	0	913	1	4	0	88	44	0	0	100
fixed	3	4	9	439172	3	2	2	1	0	534	1	4	0	80	45	0	0	100
fixed	3	4	10	440624	1	4	4	1	0	769	1	4	0	96	46	0	0	100
fixed	3	4	11	441769	5	2	2	1	0	1544	1	4	0	80	47	0	0	100
fixed	3	4	12	444257	4	3	3	2	0	2470	2	4	0	88	48	0	0	100
fixed	3	5	1	447766	4	1	1	1	0	730	1	4	0	72	49	0	0	100
fixed	3	5	2	448919	1	2	2	1	0	1657	1	4	0	80	50	0	0	100
fixed	3	5	3	450979	6	4	4	1	0	666	1	4	0	96	51	0	0	100
fixed	3	5	4	452149	2	1	1	1	0	744	1	4	0	72	52	0	0	100
fixed	3	5	5	453210	5	3	3	1	0	1827	1	4	0	88	53	0	0	100
fixed	3	5	6	456067	6	4	4	1	0	714	1	4	0	96	54	0	0	100
fixed	3	5	7	457356	3	1	1	1	0	708	1	4	0	72	55	0	0	100
fixed	3	5	8	458501	2	3	3	1	0	1444	1	4	0	88	56	0	0	100
fixed	3	5	9	460683	3	2	2	1	0	671	1	4	0	80	57	0	0	100
fixed	3	5	10	462307	1	4	4	1	0	650	1	4	0	96	58	0	0	100
fixed	3	5	11	463486	5	2	2	1	0	936	1	4	0	80	59	0	0	100
fixed	3	5	12	464832	4	3	3	1	0	1063	1	4	0	88	60	0	0	100
fixed	3	6	1	466862	4	1	1	1	0	649	1	4	0	72	61	0	0	100
fixed	3	6	2	467971	1	2	2	1	0	1162	1	4	0	80	62	0	0	100
fixed	3	6	3	469823	6	4	4	1	0	604	1	4	0	96	63	0	0	100
fixed	3	6	4	471199	2	1	1	1	0	722	1	4	0	72	64	0	0	100
fixed	3	6	5	472945	5	3	3	1	0	807	1	4	0	88	65	0	0	100
fixed	3	6	6	474386	6	4	4	1	0	699	1	4	0	96	66	0	0	100
fixed	3	6	7	475396	3	1	1	1	0	1160	1	4	0	72	67	0	0	100
fixed	3	6	8	477054	2	3	3	1	0	889	1	4	0	88	68	0	0	100
fixed	3	6	9	478510	3	2	2	1	0	996	1	4	0	80	69	0	0	100
fixed	3	6	10	480210	1	4	4	1	0	660	1	4	0	96	70	0	0	100
fixed	3	6	11	481585	5	2	2	1	0	1442	1	4	0	80	71	0	0	100
fixed	3	6	12	483617	4	3	3	1	0	699	1	4	0	88	72	0	0	100
fixed	3	7	1	485274	4	1	1	1	0	645	1	4	0	72	73	0	0	100
fixed	3	7	2	486924	1	2	2	1	0	832	1	4	0	80	74	0	0	100
fixed	3	7	3	488316	6	4	4	1	0	660	1	4	0	96	75	0	0	100
fixed	3	7	4	489553	2	1	1	1	0	808	1	4	0	72	76	0	0	100
fixed	3	7	5	491229	5	3	3	1	0	1345	1	4	0	88	77	0	0	100
fixed	3	7	6	492886	6	4	4	1	0	931	1	4	0	96	78	0	0	100
fixed	3	7	7	494556	3	1	1	1	0	676	1	4	0	72	79	0	0	100
fixed	3	7	8	496097	2	3	3	1	0	899	1	4	0	88	80	0	0	100
fixed	3	7	9	497986	3	2	2	1	0	595	1	4	0	80	81	0	0	100
fixed	3	7	10	499415	1	4	4	1	0	607	1	4	0	96	82	0	0	100
fixed	3	7	11	500888	5	2	2	1	0	856	1	4	0	80	83	0	0	100
fixed	3	7	12	502269	4	3	3	1	0	662	1	4	0	88	84	0	0	100
fixed	3	8	1	504104	4	1	1	1	0	640	1	4	0	72	85	0	0	100
fixed	3	8	2	505430	1	2	2	1	0	928	1	4	0	80	86	0	0	100
fixed	3	8	3	506984	6	4	4	1	0	606	1	4	0	96	87	0	0	100
fixed	3	8	4	508167	2	1	1	1	0	644	1	4	0	72	88	0	0	100
fixed	3	8	5	509329	5	3	3	1	0	859	1	4	0	88	89	0	0	100
fixed	3	8	6	511031	6	4	4	1	0	755	1	4	0	96	90	0	0	100
fixed	3	8	7	512767	3	1	1	1	0	777	1	4	0	72	91	0	0	100
fixed	3	8	8	513853	2	3	3	1	0	1123	1	4	0	88	92	0	0	100
fixed	3	8	9	515972	3	2	2	1	0	705	1	4	0	80	93	0	0	100
fixed	3	8	10	517436	1	4	4	1	0	611	1	4	0	96	94	0	0	100
fixed	3	8	11	518719	5	2	2	1	0	813	1	4	0	80	95	0	0	100
fixed	3	8	12	520443	4	3	3	1	0	836	1	4	0	88	96	0	0	100
fixed	3	9	1	522365	4	1	1	1	0	874	1	4	0	72	97	0	0	100
fixed	3	9	2	523665	1	2	2	1	0	932	1	4	0	80	98	0	0	100
fixed	3	9	3	525547	6	4	4	1	0	524	1	4	0	96	99	0	0	100
fixed	3	9	4	526381	2	1	1	1	0	832	1	4	0	72	100	0	0	100
fixed	3	9	5	527794	5	3	3	1	0	740	1	4	0	88	101	0	0	100
fixed	3	9	6	529101	6	4	4	1	0	605	1	4	0	96	102	0	0	100
fixed	3	9	7	530328	3	1	1	1	0	657	1	4	0	72	103	0	0	100
fixed	3	9	8	531352	2	3	3	1	0	1006	1	4	0	88	104	0	0	100
fixed	3	9	9	533263	3	2	2	1	0	805	1	4	0	80	105	0	0	100
fixed	3	9	10	534682	1	4	4	1	0	641	1	4	0	96	106	0	0	100
fixed	3	9	11	536356	5	2	2	1	0	1058	1	4	0	80	107	0	0	100
fixed	3	9	12	538362	4	3	3	1	0	981	1	4	0	88	108	0	0	100
fixed	3	10	1	540159	4	1	1	1	0	617	1	4	0	72	109	0	0	100
fixed	3	10	2	541079	1	2	2	1	0	826	1	4	0	80	110	0	0	100
fixed	3	10	3	542945	6	4	4	1	0	867	1	4	0	96	111	0	0	100
fixed	3	10	4	544781	2	1	1	1	0	757	1	4	0	72	112	0	0	100
fixed	3	10	5	546167	5	3	3	1	0	938	1	4	0	88	113	0	0	100
fixed	3	10	6	548083	6	4	4	1	0	737	1	4	0	96	114	0	0	100
fixed	3	10	7	549844	3	1	1	1	0	911	1	4	0	72	115	0	0	100
fixed	3	10	8	551110	2	3	3	1	0	985	1	4	0	88	116	0	0	100
fixed	3	10	9	553112	3	2	2	1	0	644	1	4	0	80	117	0	0	100
fixed	3	10	10	554755	1	4	4	1	0	599	1	4	0	96	118	0	0	100
fixed	3	10	11	555925	5	2	2	1	0	861	1	4	0	80	119	0	0	100
fixed	3	10	12	557199	4	3	3	1	0	783	1	4	0	88	120	0	0	100
fixed	4	1	1	694502	4	1	1	1	0	855	1	4	0	104	1	0	0	100
fixed	4	1	2	695861	1	2	2	1	0	1046	1	4	0	112	2	0	0	100
fixed	4	1	3	697912	6	4	4	1	0	695	1	4	0	128	3	0	0	100
fixed	4	1	4	699415	2	1	1	1	0	743	1	4	0	104	4	0	0	100
fixed	4	1	5	700556	5	3	3	1	0	1111	1	4	0	120	5	0	0	100
fixed	4	1	6	702457	6	4	4	1	0	670	1	4	0	128	6	0	0	100
fixed	4	1	7	703637	3	1	1	1	0	621	1	4	0	104	7	0	0	100
fixed	4	1	8	704754	2	3	3	1	0	982	1	4	0	120	8	0	0	100
fixed	4	1	9	706750	3	2	2	1	0	593	1	4	0	112	9	0	0	100
fixed	4	1	10	708375	1	4	4	1	0	668	1	4	0	128	10	0	0	100
fixed	4	1	11	709571	5	2	2	1	0	1562	1	4	0	112	11	0	0	100
fixed	4	1	12	711770	4	3	3	2	0	1468	2	4	0	120	12	0	0	100
fixed	4	2	1	714219	4	1	1	1	0	772	1	4	0	104	13	0	0	100
fixed	4	2	2	715321	1	2	2	1	0	974	1	4	0	112	14	0	0	100
fixed	4	2	3	716849	6	4	4	1	0	549	1	4	0	128	15	0	0	100
fixed	4	2	4	717889	2	1	1	1	0	633	1	4	0	104	16	0	0	100
fixed	4	2	5	719191	5	3	3	1	0	914	1	4	0	120	17	0	0	100
fixed	4	2	6	720498	6	4	4	1	0	674	1	4	0	128	18	0	0	100
fixed	4	2	7	721580	3	1	1	1	0	661	1	4	0	104	19	0	0	100
fixed	4	2	8	722813	2	3	3	1	0	969	1	4	0	120	20	0	0	100
fixed	4	2	9	724493	3	2	2	1	0	1041	1	4	0	112	21	0	0	100
fixed	4	2	10	725970	1	4	4	1	0	619	1	4	0	128	22	0	0	100
fixed	4	2	11	727239	5	2	2	1	0	861	1	4	0	112	23	0	0	100
fixed	4	2	12	729062	4	3	3	1	0	992	1	4	0	120	24	0	0	100
fixed	4	3	1	731127	4	1	1	1	0	648	1	4	0	104	25	0	0	100
fixed	4	3	2	732670	1	2	2	1	0	959	1	4	0	112	26	0	0	100
fixed	4	3	3	734457	6	4	4	1	0	731	1	4	0	128	27	0	0	100
fixed	4	3	4	735732	2	1	1	1	0	814	1	4	0	104	28	0	0	100
fixed	4	3	5	736960	5	3	3	1	0	825	1	4	0	120	29	0	0	100
fixed	4	3	6	738807	6	4	4	1	0	619	1	4	0	128	30	0	0	100
fixed	4	3	7	740171	3	1	1	1	0	705	1	4	0	104	31	0	0	100
fixed	4	3	8	741705	2	3	3	1	0	880	1	4	0	120	32	0	0	100
fixed	4	3	9	743086	3	2	2	1	0	806	1	4	0	112	33	0	0	100
fixed	4	3	10	744429	1	4	4	1	0	653	1	4	0	128	34	0	0	100
fixed	4	3	11	745998	5	2	2	1	0	682	1	4	0	112	35	0	0	100
fixed	4	3	12	747298	4	3	3	1	0	1131	1	4	0	120	36	0	0	100
fixed	4	4	1	749322	4	1	1	1	0	542	1	4	0	104	37	0	0	100
fixed	4	4	2	750850	1	2	2	1	0	909	1	4	0	112	38	0	0	100
fixed	4	4	3	752047	6	4	4	1	0	626	1	4	0	128	39	0	0	100
fixed	4	4	4	753578	2	1	1	1	0	762	1	4	0	104	40	0	0	100
fixed	4	4	5	754636	5	3	3	1	0	949	1	4	0	120	41	0	0	100
fixed	4	4	6	755963	6	4	4	1	0	701	1	4	0	128	42	0	0	100
fixed	4	4	7	757193	3	1	1	1	0	1112	1	4	0	104	43	0	0	100
fixed	4	4	8	758684	2	3	3	1	0	905	1	4	0	120	44	0	0	100
fixed	4	4	9	760137	3	2	2	1	0	788	1	4	0	112	45	0	0	100
fixed	4	4	10	761773	1	4	4	1	0	598	1	4	0	128	46	0	0	100
fixed	4	4	11	763209	5	2	2	1	0	817	1	4	0	112	47	0	0	100
fixed	4	4	12	764391	4	3	3	1	0	871	1	4	0	120	48	0	0	100
fixed	4	5	1	766447	4	1	1	1	0	824	1	4	0	104	49	0	0	100
fixed	4	5	2	767816	1	2	2	1	0	990	1	4	0	112	50	0	0	100
fixed	4	5	3	769651	6	4	4	1	0	633	1	4	0	128	51	0	0	100
fixed	4	5	4	771100	2	1	1	1	0	707	1	4	0	104	52	0	0	100
fixed	4	5	5	772552	5	3	3	1	0	1230	1	4	0	120	53	0	0	100
fixed	4	5	6	774099	6	4	4	1	0	716	1	4	0	128	54	0	0	100
fixed	4	5	7	775604	3	1	1	1	0	756	1	4	0	104	55	0	0	100
fixed	4	5	8	777356	2	3	3	1	0	954	1	4	0	120	56	0	0	100
fixed	4	5	9	779161	3	2	2	1	0	662	1	4	0	112	57	0	0	100
fixed	4	5	10	780381	1	4	4	1	0	658	1	4	0	128	58	0	0	100
fixed	4	5	11	781769	5	2	2	1	0	767	1	4	0	112	59	0	0	100
fixed	4	5	12	783112	4	3	3	1	0	783	1	4	0	120	60	0	0	100
fixed	4	6	1	784943	4	1	1	1	0	809	1	4	0	104	61	0	0	100
fixed	4	6	2	786445	1	2	2	1	0	921	1	4	0	112	62	0	0	100
fixed	4	6	3	788149	6	4	4	1	0	721	1	4	0	128	63	0	0	100
fixed	4	6	4	789332	2	1	1	1	0	775	1	4	0	104	64	0	0	100
fixed	4	6	5	790728	5	3	3	1	0	852	1	4	0	120	65	0	0	100
fixed	4	6	6	792209	6	4	4	1	0	805	1	4	0	128	66	0	0	100
fixed	4	6	7	793898	3	1	1	1	0	1046	1	4	0	104	67	0	0	100
fixed	4	6	8	795547	2	3	3	1	0	1848	1	4	0	120	68	0	0	100
fixed	4	6	9	798326	3	2	2	1	0	546	1	4	0	112	69	0	0	100
fixed	4	6	10	799240	1	4	4	1	0	580	1	4	0	128	70	0	0	100
fixed	4	6	11	800098	5	2	2	1	0	1007	1	4	0	112	71	0	0	100
fixed	4	6	12	801724	4	3	3	1	0	1066	1	4	0	120	72	0	0	100
fixed	4	7	1	803973	4	1	1	1	0	635	1	4	0	104	73	0	0	100
fixed	4	7	2	805420	1	2	2	1	0	742	1	4	0	112	74	0	0	100
fixed	4	7	3	806453	6	4	4	1	0	570	1	4	0	128	75	0	0	100
fixed	4	7	4	808049	2	1	1	1	0	670	1	4	0	104	76	0	0	100
fixed	4	7	5	809068	5	3	3	1	0	811	1	4	0	120	77	0	0	100
fixed	4	7	6	810761	6	4	4	1	0	636	1	4	0	128	78	0	0	100
fixed	4	7	7	812378	3	1	1	1	0	671	1	4	0	104	79	0	0	100
fixed	4	7	8	813784	2	3	3	1	0	843	1	4	0	120	80	0	0	100
fixed	4	7	9	815138	3	2	2	1	0	738	1	4	0	112	81	0	0	100
fixed	4	7	10	816902	1	4	4	1	0	583	1	4	0	128	82	0	0	100
fixed	4	7	11	818013	5	2	2	1	0	912	1	4	0	112	83	0	0	100
fixed	4	7	12	819608	4	3	3	1	0	764	1	4	0	120	84	0	0	100
fixed	4	8	1	821649	4	1	1	1	0	726	1	4	0	104	85	0	0	100
fixed	4	8	2	822945	1	2	2	1	0	856	1	4	0	112	86	0	0	100
fixed	4	8	3	824153	6	4	4	1	0	636	1	4	0	128	87	0	0	100
fixed	4	8	4	825481	2	1	1	1	0	644	1	4	0	104	88	0	0	100
fixed	4	8	5	826839	5	3	3	1	0	1195	1	4	0	120	89	0	0	100
fixed	4	8	6	828920	6	4	4	1	0	1082	1	4	0	128	90	0	0	100
fixed	4	8	7	830658	3	1	1	1	0	497	1	4	0	104	91	0	0	100
fixed	4	8	8	831567	2	3	3	1	0	1154	1	4	0	120	92	0	0	100
fixed	4	8	9	833607	3	2	2	1	0	500	1	4	0	112	93	0	0	100
fixed	4	8	10	834922	1	4	4	1	0	612	1	4	0	128	94	0	0	100
fixed	4	8	11	835890	5	2	2	1	0	851	1	4	0	112	95	0	0	100
fixed	4	8	12	837396	4	3	3	1	0	1044	1	4	0	120	96	0	0	100
fixed	4	9	1	839593	4	1	1	1	0	638	1	4	0	104	97	0	0	100
fixed	4	9	2	840927	1	2	2	2	0	1021	2	4	0	112	98	0	0	100
fixed	4	9	3	842269	6	4	4	1	0	645	1	4	0	128	99	0	0	100
fixed	4	9	4	843291	2	1	1	1	0	874	1	4	0	104	100	0	0	100
fixed	4	9	5	844855	5	3	3	1	0	1007	1	4	0	120	101	0	0	100
fixed	4	9	6	846370	6	4	4	1	0	656	1	4	0	128	102	0	0	100
fixed	4	9	7	847741	3	1	1	1	0	749	1	4	0	104	103	0	0	100
fixed	4	9	8	849401	2	3	3	1	0	1007	1	4	0	120	104	0	0	100
fixed	4	9	9	851249	3	2	2	1	0	737	1	4	0	112	105	0	0	100
fixed	4	9	10	852977	1	4	4	1	0	983	1	4	0	128	106	0	0	100
fixed	4	9	11	854371	5	2	2	1	0	845	1	4	0	112	107	0	0	100
fixed	4	9	12	855975	4	3	3	1	0	609	1	4	0	120	108	0	0	100
fixed	4	10	1	857471	4	1	1	1	0	857	1	4	0	104	109	0	0	100
fixed	4	10	2	859310	1	2	2	1	0	811	1	4	0	112	110	0	0	100
fixed	4	10	3	861159	6	4	4	1	0	645	1	4	0	128	111	0	0	100
fixed	4	10	4	862502	2	1	1	1	0	548	1	4	0	104	112	0	0	100
fixed	4	10	5	863417	5	3	3	1	0	1077	1	4	0	120	113	0	0	100
fixed	4	10	6	865157	6	4	4	1	0	683	1	4	0	128	114	0	0	100
fixed	4	10	7	866243	3	1	1	1	0	709	1	4	0	104	115	0	0	100
fixed	4	10	8	867772	2	3	3	1	0	997	1	4	0	120	116	0	0	100
fixed	4	10	9	869318	3	2	2	1	0	723	1	4	0	112	117	0	0	100
fixed	4	10	10	870961	1	4	4	1	0	790	1	4	0	128	118	0	0	100
fixed	4	10	11	872267	5	2	2	1	0	727	1	4	0	112	119	0	0	100
fixed	4	10	12	873477	4	3	3	1	0	851	1	4	0	120	120	0	0	100
fixed	5	1	1	875663	4	1	1	1	0	678	1	4	0	136	1	0	0	100
fixed	5	1	2	877316	1	2	2	1	0	832	1	4	0	144	2	0	0	100
fixed	5	1	3	878702	6	4	4	1	0	606	1	4	0	160	3	0	0	100
fixed	5	1	4	880191	2	1	1	1	0	631	1	4	0	136	4	0	0	100
fixed	5	1	5	881751	5	3	3	1	0	949	1	4	0	152	5	0	0	100
fixed	5	1	6	883162	6	4	4	1	0	729	1	4	0	160	6	0	0	100
fixed	5	1	7	884772	3	1	1	1	0	917	1	4	0	136	7	0	0	100
fixed	5	1	8	886409	2	3	3	1	0	1055	1	4	0	152	8	0	0	100
fixed	5	1	9	888200	3	2	2	1	0	740	1	4	0	144	9	0	0	100
fixed	5	1	10	889902	1	4	4	1	0	555	1	4	0	160	10	0	0	100
fixed	5	1	11	891476	5	2	2	1	0	961	1	4	0	144	11	0	0	100
fixed	5	1	12	893101	4	3	3	1	0	796	1	4	0	152	12	0	0	100
fixed	5	2	1	894628	4	1	1	1	0	803	1	4	0	136	13	0	0	100
fixed	5	2	2	896116	1	2	2	1	0	868	1	4	0	144	14	0	0	100
fixed	5	2	3	897747	6	4	4	1	0	671	1	4	0	160	15	0	0	100
fixed	5	2	4	898767	2	1	1	1	0	732	1	4	0	136	16	0	0	100
fixed	5	2	5	900298	5	3	3	1	0	1003	1	4	0	152	17	0	0	100
fixed	5	2	6	901834	6	4	4	1	0	738	1	4	0	160	18	0	0	100
fixed	5	2	7	903269	3	1	1	1	0	621	1	4	0	136	19	0	0	100
fixed	5	2	8	904887	2	3	3	1	0	993	1	4	0	152	20	0	0	100
fixed	5	2	9	906452	3	2	2	1	0	639	1	4	0	144	21	0	0	100
fixed	5	2	10	907638	1	4	4	1	0	549	1	4	0	160	22	0	0	100
fixed	5	2	11	908890	5	2	2	1	0	703	1	4	0	144	23	0	0	100
fixed	5	2	12	909922	4	3	3	1	0	764	1	4	0	152	24	0	0	100
fixed	5	3	1	911336	4	1	1	1	0	615	1	4	0	136	25	0	0	100
fixed	5	3	2	912461	1	2	2	1	0	744	1	4	0	144	26	0	0	100
fixed	5	3	3	913861	6	4	4	1	0	485	1	4	0	160	27	0	0	100
fixed	5	3	4	915099	2	1	1	1	0	672	1	4	0	136	28	0	0	100
fixed	5	3	5	916512	5	3	3	1	0	820	1	4	0	152	29	0	0	100
fixed	5	3	6	918129	6	4	4	1	0	648	1	4	0	160	30	0	0	100
fixed	5	3	7	919340	3	1	1	1	0	764	1	4	0	136	31	0	0	100
fixed	5	3	8	920508	2	3	3	1	0	1059	1	4	0	152	32	0	0	100
fixed	5	3	9	922573	3	2	2	1	0	804	1	4	0	144	33	0	0	100
fixed	5	3	10	923677	1	4	4	1	0	957	1	4	0	160	34	0	0	100
fixed	5	3	11	925225	5	2	2	1	0	819	1	4	0	144	35	0	0	100
fixed	5	3	12	926351	4	3	0	0	2	0	3	4	0	152	35	0	1	97
fixed	5	4	1	929698	4	1	1	1	0	710	1	4	0	136	36	0	1	97
fixed	5	4	2	931297	1	2	2	1	0	1331	1	4	0	144	37	0	1	97
fixed	5	4	3	933277	6	4	4	1	0	566	1	4	0	160	38	0	1	97
fixed	5	4	4	934213	2	1	1	1	0	695	1	4	0	136	39	0	1	98
fixed	5	4	5	935224	5	3	3	1	0	1460	1	4	0	152	40	0	1	98
fixed	5	4	6	937189	6	4	4	1	0	681	1	4	0	160	41	0	1	98
fixed	5	4	7	938267	3	1	1	1	0	699	1	4	0	136	42	0	1	98
fixed	5	4	8	939576	2	3	3	1	0	996	1	4	0	152	43	0	1	98
fixed	5	4	9	941377	3	2	2	1	0	687	1	4	0	144	44	0	1	98
fixed	5	4	10	942486	1	4	4	1	0	777	1	4	0	160	45	0	1	98
fixed	5	4	11	943722	5	2	2	1	0	804	1	4	0	144	46	0	1	98
fixed	5	4	12	945174	4	3	3	1	0	1086	1	4	0	152	47	0	1	98
fixed	5	5	1	947408	4	1	1	1	0	648	1	4	0	136	48	0	1	98
fixed	5	5	2	948583	1	2	2	1	0	878	1	4	0	144	49	0	1	98
fixed	5	5	3	949869	6	4	4	1	0	632	1	4	0	160	50	0	1	98
fixed	5	5	4	951089	2	1	1	1	0	532	1	4	0	136	51	0	1	98
fixed	5	5	5	952485	5	3	3	1	0	849	1	4	0	152	52	0	1	98
fixed	5	5	6	954371	6	4	4	1	0	753	1	4	0	160	53	0	1	98
fixed	5	5	7	956107	3	1	1	1	0	808	1	4	0	136	54	0	1	98
fixed	5	5	8	957402	2	3	3	1	0	1016	1	4	0	152	55	0	1	98
fixed	5	5	9	959422	3	2	2	1	0	739	1	4	0	144	56	0	1	98
fixed	5	5	10	960493	1	4	4	1	0	654	1	4	0	160	57	0	1	98
fixed	5	5	11	962154	5	2	2	1	0	975	1	4	0	144	58	0	1	98
fixed	5	5	12	963561	4	3	3	1	0	852	1	4	0	152	59	0	1	98
fixed	5	6	1	965519	4	1	1	1	0	745	1	4	0	136	60	0	1	98
fixed	5	6	2	966760	1	2	2	1	0	876	1	4	0	144	61	0	1	98
fixed	5	6	3	968667	6	4	4	1	0	572	1	4	0	160	62	0	1	98
fixed	5	6	4	969937	2	1	1	1	0	742	1	4	0	136	63	0	1	98
fixed	5	6	5	971416	5	3	3	1	0	759	1	4	0	152	64	0	1	98
fixed	5	6	6	973216	6	4	4	1	0	595	1	4	0	160	65	0	1	98
fixed	5	6	7	974254	3	1	1	1	0	1070	1	4	0	136	66	0	1	99
fixed	5	6	8	975655	2	3	3	1	0	1220	1	4	0	152	67	0	1	99
fixed	5	6	9	977506	3	2	2	1	0	661	1	4	0	144	68	0	1	99
fixed	5	6	10	979053	1	4	4	1	0	1171	1	4	0	160	69	0	1	99
fixed	5	6	11	980645	5	2	2	1	0	792	1	4	0	144	70	0	1	99
fixed	5	6	12	981986	4	3	3	1	0	864	1	4	0	152	71	0	1	99
fixed	5	7	1	983413	4	1	1	1	0	691	1	4	0	136	72	0	1	99
fixed	5	7	2	984566	1	2	2	1	0	890	1	4	0	144	73	0	1	99
fixed	5	7	3	985822	6	4	4	1	0	573	1	4	0	160	74	0	1	99
fixed	5	7	4	986998	2	1	1	1	0	683	1	4	0	136	75	0	1	99
fixed	5	7	5	988182	5	3	3	1	0	873	1	4	0	152	76	0	1	99
fixed	5	7	6	989579	6	4	4	1	0	662	1	4	0	160	77	0	1	99
fixed	5	7	7	991086	3	1	1	1	0	662	1	4	0	136	78	0	1	99
fixed	5	7	8	992456	2	3	3	1	0	892	1	4	0	152	79	0	1	99
fixed	5	7	9	994382	3	2	2	1	0	562	1	4	0	144	80	0	1	99
fixed	5	7	10	995485	1	4	4	1	0	580	1	4	0	160	81	0	1	99
fixed	5	7	11	996666	5	2	2	1	0	737	1	4	0	144	82	0	1	99
fixed	5	7	12	998425	4	3	3	1	0	871	1	4	0	152	83	0	1	99
fixed	5	8	1	999887	4	1	1	1	0	633	1	4	0	136	84	0	1	99
fixed	5	8	2	1000955	1	2	2	1	0	820	1	4	0	144	85	0	1	99
fixed	5	8	3	1002803	6	4	4	1	0	662	1	4	0	160	86	0	1	99
fixed	5	8	4	1004072	2	1	1	1	0	800	1	4	0	136	87	0	1	99
fixed	5	8	5	1005897	5	3	3	1	0	715	1	4	0	152	88	0	1	99
fixed	5	8	6	1007254	6	4	4	1	0	681	1	4	0	160	89	0	1	99
fixed	5	8	7	1008684	3	1	1	2	0	1285	2	4	0	136	90	0	1	99
fixed	5	8	8	1010565	2	3	0	0	2	0	3	4	0	152	90	0	2	98
fixed	5	8	9	1013663	3	2	2	1	0	2234	1	4	0	144	91	0	2	98
fixed	5	8	10	1016769	1	4	4	1	0	670	1	4	0	160	92	0	2	98
fixed	5	8	11	1017997	5	2	2	1	0	930	1	4	0	144	93	0	2	98
fixed	5	8	12	1019314	4	3	3	1	0	947	1	4	0	152	94	0	2	98
fixed	5	9	1	1021306	4	1	1	1	0	542	1	4	0	136	95	0	2	98
fixed	5	9	2	1022468	1	2	2	1	0	925	1	4	0	144	96	0	2	98
fixed	5	9	3	1024155	6	4	4	1	0	685	1	4	0	160	97	0	2	98
fixed	5	9	4	1025552	2	1	1	1	0	818	1	4	0	136	98	0	2	98
fixed	5	9	5	1027238	5	3	3	1	0	786	1	4	0	152	99	0	2	98
fixed	5	9	6	1028711	6	4	4	1	0	620	1	4	0	160	100	0	2	98
fixed	5	9	7	1030023	3	1	1	1	0	717	1	4	0	136	101	0	2	98
fixed	5	9	8	1031339	2	3	3	1	0	869	1	4	0	152	102	0	2	98
fixed	5	9	9	1032572	3	2	2	1	0	673	1	4	0	144	103	0	2	98
fixed	5	9	10	1034212	1	4	4	1	0	651	1	4	0	160	104	0	2	98
fixed	5	9	11	1035766	5	2	2	1	0	922	1	4	0	144	105	0	2	98
fixed	5	9	12	1037430	4	3	3	1	0	1067	1	4	0	152	106	0	2	98
fixed	5	10	1	1039049	4	1	1	1	0	566	1	4	0	136	107	0	2	98
fixed	5	10	2	1040606	1	2	2	1	0	852	1	4	0	144	108	0	2	98
fixed	5	10	3	1042450	6	4	4	1	0	783	1	4	0	160	109	0	2	98
fixed	5	10	4	1044007	2	1	1	1	0	709	1	4	0	136	110	0	2	98
fixed	5	10	5	1045567	5	3	3	1	0	970	1	4	0	152	111	0	2	98
fixed	5	10	6	1047228	6	4	4	1	0	796	1	4	0	160	112	0	2	98
fixed	5	10	7	1048488	3	1	1	1	0	654	1	4	0	136	113	0	2	98
fixed	5	10	8	1049779	2	3	3	1	0	1000	1	4	0	152	114	0	2	98
fixed	5	10	9	1051289	3	2	2	1	0	624	1	4	0	144	115	0	2	98
fixed	5	10	10	1052263	1	4	4	1	0	670	1	4	0	160	116	0	2	98
fixed	5	10	11	1053981	5	2	2	1	0	894	1	4	0	144	117	0	2	98
fixed	5	10	12	1055209	4	3	3	1	0	946	1	4	0	152	118	0	2	98
random	6	1	1	1231569	6	1	1	2	0	1564	2	4	0	168	1	0	0	100
random	6	1	2	1233703	4	4	4	1	0	690	1	4	0	192	2	0	0	100
random	6	1	3	1234978	2	2	2	1	0	836	1	4	0	176	3	0	0	100
random	6	1	4	1236810	3	3	3	1	0	790	1	4	0	184	4	0	0	100
random	6	1	5	1238578	5	2	2	1	0	851	1	4	0	176	5	0	0	100
random	6	1	6	1240257	1	4	4	1	0	620	1	4	0	192	6	0	0	100
random	6	1	7	1241283	6	1	1	1	0	657	1	4	0	168	7	0	0	100
random	6	1	8	1242967	2	3	3	1	0	1065	1	4	0	184	8	0	0	100
random	6	1	9	1244660	4	2	2	1	0	682	1	4	0	176	9	0	0	100
random	6	1	10	1246177	1	1	1	1	0	873	1	4	0	168	10	0	0	100
random	6	1	11	1247741	5	4	4	1	0	664	1	4	0	192	11	0	0	100
random	6	1	12	1249342	3	3	3	1	0	844	1	4	0	184	12	0	0	100
random	6	1	13	1251236	5	2	2	1	0	907	1	4	0	176	13	0	0	100
random	6	1	14	1252782	1	4	4	1	0	722	1	4	0	192	14	0	0	100
random	6	1	15	1254062	3	1	1	1	0	883	1	4	0	168	15	0	0	100
random	6	1	16	1255772	4	3	3	1	0	883	1	4	0	184	16	0	0	100
random	6	1	17	1257212	6	4	4	1	0	759	1	4	0	192	17	0	0	100
random	6	1	18	1258604	2	1	1	1	0	547	1	4	0	168	18	0	0	100
random	6	1	19	1259460	5	3	3	1	0	847	1	4	0	184	19	0	0	100
random	6	1	20	1261101	2	2	2	1	0	850	1	4	0	176	20	0	0	100
random	6	1	21	1262303	3	3	3	1	0	1103	1	4	0	184	21	0	0	100
random	6	1	22	1264224	6	1	1	1	0	757	1	4	0	168	22	0	0	100
random	6	1	23	1266018	4	2	2	1	0	881	1	4	0	176	23	0	0	100
random	6	1	24	1267654	1	4	4	1	0	636	1	4	0	192	24	0	0	100
random	6	1	25	1268880	4	3	3	1	0	1056	1	4	0	184	25	0	0	100
random	6	1	26	1270336	2	1	1	1	0	714	1	4	0	168	26	0	0	100
random	6	1	27	1272052	5	2	2	1	0	953	1	4	0	176	27	0	0	100
random	6	1	28	1273884	6	4	4	1	0	644	1	4	0	192	28	0	0	100
random	6	1	29	1274880	1	3	3	1	0	1138	1	4	0	184	29	0	0	100
random	6	1	30	1276376	5	2	2	1	0	683	1	4	0	176	30	0	0	100
random	6	1	31	1277884	2	1	1	1	0	506	1	4	0	168	31	0	0	100
random	6	1	32	1279131	3	3	3	1	0	1094	1	4	0	184	32	0	0	100
random	6	1	33	1281154	6	4	4	1	0	600	1	4	0	192	33	0	0	100
random	6	1	34	1282509	4	2	2	1	0	735	1	4	0	176	34	0	0	100
random	6	1	35	1283584	3	4	4	1	0	881	1	4	0	192	35	0	0	100
random	6	1	36	1284980	1	1	1	2	0	1158	2	4	0	168	36	0	0	100
random	6	1	37	1287191	3	4	4	1	0	808	1	4	0	192	37	0	0	100
random	6	1	38	1288740	5	3	3	1	0	1135	1	4	0	184	38	0	0	100
random	6	1	39	1290575	6	1	1	1	0	921	1	4	0	168	39	0	0	100
random	6	1	40	1292395	1	2	2	1	0	884	1	4	0	176	40	0	0	100
random	6	1	41	1294050	2	3	3	1	0	830	1	4	0	184	41	0	0	100
random	6	1	42	1295219	4	4	4	1	0	653	1	4	0	192	42	0	0	100
random	6	1	43	1296810	1	2	2	1	0	889	1	4	0	176	43	0	0	100
random	6	1	44	1298652	6	3	3	1	0	787	1	4	0	184	44	0	0	100
random	6	1	45	1300319	3	1	1	1	0	813	1	4	0	168	45	0	0	100
random	6	1	46	1301872	4	4	4	1	0	659	1	4	0	192	46	0	0	100
random	6	1	47	1303383	2	2	2	1	0	810	1	4	0	176	47	0	0	100
random	6	1	48	1305216	5	1	1	1	0	749	1	4	0	168	48	0	0	100
random	6	1	49	1307023	2	3	3	1	0	1680	1	4	0	184	49	0	0	100
random	6	1	50	1309644	3	1	1	1	0	817	1	4	0	168	50	0	0	100
random	6	1	51	1311130	1	4	4	1	0	635	1	4	0	192	51	0	0	100
random	6	1	52	1312595	5	3	3	1	0	1365	1	4	0	184	52	0	0	100
random	6	1	53	1314399	3	2	2	1	0	704	1	4	0	176	53	0	0	100
random	6	1	54	1316030	6	4	4	1	0	699	1	4	0	192	54	0	0	100
random	6	1	55	1317204	4	2	2	1	0	777	1	4	0	176	55	0	0	100
random	6	1	56	1318638	1	1	1	1	0	764	1	4	0	168	56	0	0	100
random	6	1	57	1319827	5	4	4	1	0	642	1	4	0	192	57	0	0	100
random	6	1	58	1321078	2	1	1	1	0	565	1	4	0	168	58	0	0	100
random	6	1	59	1322378	6	2	2	1	0	918	1	4	0	176	59	0	0	100
random	6	1	60	1324081	4	3	3	1	0	678	1	4	0	184	60	0	0	100
random	6	1	61	1325635	1	2	2	1	0	1044	1	4	0	176	61	0	0	100
random	6	1	62	1327609	6	4	4	1	0	696	1	4	0	192	62	0	0	100
random	6	1	63	1329185	4	1	1	1	0	726	1	4	0	168	63	0	0	100
random	6	1	64	1330500	2	2	2	1	0	878	1	4	0	176	64	0	0	100
random	6	1	65	1332410	4	3	3	1	0	917	1	4	0	184	65	0	0	100
random	6	1	66	1334273	3	1	1	1	0	734	1	4	0	168	66	0	0	100
random	6	1	67	1335517	1	3	3	1	0	1386	1	4	0	184	67	0	0	100
random	6	1	68	1337577	5	4	4	1	0	603	1	4	0	192	68	0	0	100
random	6	1	69	1339020	2	2	2	1	0	725	1	4	0	176	69	0	0	100
random	6	1	70	1340225	3	1	1	1	0	818	1	4	0	168	70	0	0	100
random	6	1	71	1341778	5	4	4	1	0	624	1	4	0	192	71	0	0	100
random	6	1	72	1343268	6	3	3	1	0	1153	1	4	0	184	72	0	0	100
random	6	1	73	1345184	2	1	1	1	0	848	1	4	0	168	73	0	0	100
random	6	1	74	1346414	5	3	3	1	0	772	1	4	0	184	74	0	0	100
random	6	1	75	1348142	1	4	4	1	0	699	1	4	0	192	75	0	0	100
random	6	1	76	1349212	6	2	2	1	0	877	1	4	0	176	76	0	0	100
random	6	1	77	1350818	2	1	1	1	0	698	1	4	0	168	77	0	0	100
random	6	1	78	1352176	4	4	4	1	0	528	1	4	0	192	78	0	0	100
random	6	1	79	1353301	3	2	2	1	0	704	1	4	0	176	79	0	0	100
random	6	1	80	1354730	4	3	3	1	0	932	1	4	0	184	80	0	0	100
random	6	1	81	1356621	1	4	4	1	0	604	1	4	0	192	81	0	0	100
random	6	1	82	1358152	5	1	1	1	0	747	1	4	0	168	82	0	0	100
random	6	1	83	1359765	3	2	2	1	0	783	1	4	0	176	83	0	0	100
random	6	1	84	1360850	6	3	3	1	0	825	1	4	0	184	84	0	0	100
random	6	1	85	1362910	3	2	2	1	0	897	1	4	0	176	85	0	0	100
random	6	1	86	1364711	1	3	3	1	0	949	1	4	0	184	86	0	0	100
random	6	1	87	1366669	4	4	4	1	0	826	1	4	0	192	87	0	0	100
random	6	1	88	1368212	2	1	1	1	0	561	1	4	0	168	88	0	0	100
random	6	1	89	1369290	6	4	4	1	0	659	1	4	0	192	89	0	0	100
random	6	1	90	1370354	3	3	3	1	0	1230	1	4	0	184	90	0	0	100
random	6	1	91	1371955	5	4	4	1	0	818	1	4	0	192	91	0	0	100
random	6	1	92	1373148	1	2	2	1	0	856	1	4	0	176	92	0	0	100
random	6	1	93	1375027	5	1	1	1	0	680	1	4	0	168	93	0	0	100
random	6	1	94	1376628	4	3	3	1	0	892	1	4	0	184	94	0	0	100
random	6	1	95	1378119	6	1	1	1	0	733	1	4	0	168	95	0	0	100
random	6	1	96	1379183	2	2	2	1	0	808	1	4	0	176	96	0	0	100
random	6	1	97	1380554	4	3	3	1	0	902	1	4	0	184	97	0	0	100
random	6	1	98	1382433	3	2	2	1	0	1039	1	4	0	176	98	0	0	100
random	6	1	99	1384331	6	3	3	1	0	814	1	4	0	184	99	0	0	100
random	6	1	100	1385465	1	4	4	1	0	670	1	4	0	192	100	0	0	100
random	6	1	101	1386491	4	1	1	1	0	699	1	4	0	168	101	0	0	100
random	6	1	102	1388087	5	2	2	1	0	759	1	4	0	176	102	0	0	100
random	6	1	103	1389161	2	4	4	1	0	673	1	4	0	192	103	0	0	100
random	6	1	104	1390358	3	1	1	1	0	775	1	4	0	168	104	0	0	100
random	6	1	105	1391870	1	3	3	1	0	1159	1	4	0	184	105	0	0	100
random	6	1	106	1393717	2	2	2	1	0	880	1	4	0	176	106	0	0	100
random	6	1	107	1395339	5	4	4	1	0	636	1	4	0	192	107	0	0	100
random	6	1	108	1396998	6	1	1	1	0	734	1	4	0	168	108	0	0	100
random	6	1	109	1398715	5	4	4	1	0	797	1	4	0	192	109	0	0	100
random	6	1	110	1399949	6	3	3	1	0	1176	1	4	0	184	110	0	0	100
random	6	1	111	1401738	2	2	2	1	0	637	1	4	0	176	111	0	0	100
random	6	1	112	1402794	3	1	1	1	0	544	1	4	0	168	112	0	0	100
random	6	1	113	1404074	1	2	2	1	0	994	1	4	0	176	113	0	0	100
random	6	1	114	1405978	2	3	3	1	0	842	1	4	0	184	114	0	0	100
random	6	1	115	1407226	3	1	1	1	0	637	1	4	0	168	115	0	0	100
random	6	1	116	1408278	4	4	4	1	0	512	1	4	0	192	116	0	0	100
random	6	1	117	1409764	6	1	1	1	0	761	1	4	0	168	117	0	0	100
random	6	1	118	1411013	5	3	3	1	0	812	1	4	0	184	118	0	0	100
random	6	1	119	1412315	1	4	4	1	0	653	1	4	0	192	119	0	0	100
random	6	1	120	1413821	4	2	2	1	0	797	1	4	0	176	120	0	0	100
fixed	7	1	1	1416055	4	1	1	1	0	654	1	4	0	200	1	0	0	100
fixed	7	1	2	1417165	1	2	2	1	0	927	1	4	0	208	2	0	0	100
fixed	7	1	3	1418403	6	4	4	1	0	627	1	4	0	224	3	0	0	100
fixed	7	1	4	1419624	2	1	1	1	0	727	1	4	0	200	4	0	0	100
fixed	7	1	5	1421224	5	3	3	1	0	780	1	4	0	216	5	0	0	100
fixed	7	1	6	1422717	6	4	4	1	0	629	1	4	0	224	6	0	0	100
fixed	7	1	7	1423988	3	1	1	1	0	687	1	4	0	200	7	0	0	100
fixed	7	1	8	1425056	2	3	3	1	0	945	1	4	0	216	8	0	0	100
fixed	7	1	9	1426445	3	2	2	1	0	607	1	4	0	208	9	0	0	100
fixed	7	1	10	1427732	1	4	4	1	0	664	1	4	0	224	10	0	0	100
fixed	7	1	11	1428680	5	2	2	1	0	896	1	4	0	208	11	0	0	100
fixed	7	1	12	1429859	4	3	3	1	0	854	1	4	0	216	12	0	0	100
fixed	7	2	1	1431946	4	1	1	1	0	893	1	4	0	200	1	0	0	8
fixed	7	2	2	1433442	1	2	2	1	0	830	1	4	0	208	2	0	0	14
fixed	7	2	3	1434714	6	4	4	1	0	584	1	4	0	224	3	0	0	20
fixed	7	2	4	1436026	2	1	1	1	0	633	1	4	0	200	4	0	0	25
fixed	7	2	5	1437351	5	3	3	1	0	833	1	4	0	216	5	0	0	29
fixed	7	2	6	1438867	6	4	4	1	0	672	1	4	0	224	6	0	0	33
fixed	7	2	7	1440017	3	1	1	1	0	952	1	4	0	200	7	0	0	37
fixed	7	2	8	1441587	2	3	3	1	0	837	1	4	0	216	8	0	0	40
fixed	7	2	9	1443259	3	2	2	1	0	614	1	4	0	208	9	0	0	43
fixed	7	2	10	1444881	1	4	4	1	0	569	1	4	0	224	10	0	0	45
fixed	7	2	11	1446342	5	2	2	1	0	780	1	4	0	208	11	0	0	48
fixed	7	2	12	1447934	4	3	3	1	0	856	1	4	0	216	12	0	0	50
fixed	7	3	1	1449924	4	1	1	1	0	684	1	4	0	200	1	0	0	4
fixed	7	3	2	1451551	1	2	2	1	0	895	1	4	0	208	2	0	0	8
fixed	7	3	3	1453148	6	4	4	1	0	611	1	4	0	224	3	0	0	11
fixed	7	3	4	1454316	2	1	1	1	0	810	1	4	0	200	4	0	0	14
fixed	7	3	5	1455879	5	3	3	1	0	840	1	4	0	216	5	0	0	17
fixed	7	3	6	1457665	6	4	4	1	0	612	1	4	0	224	6	0	0	20
fixed	7	3	7	1458885	3	1	1	1	0	688	1	4	0	200	7	0	0	23
fixed	7	3	8	1459904	2	3	3	1	0	869	1	4	0	216	8	0	0	25
fixed	7	3	9	1461243	3	2	2	1	0	869	1	4	0	208	9	0	0	27
fixed	7	3	10	1462566	1	4	4	1	0	613	1	4	0	224	10	0	0	29
fixed	7	3	11	1463730	5	2	2	1	0	739	1	4	0	208	11	0	0	31
fixed	7	3	12	1465490	4	3	3	1	0	1089	1	4	0	216	12	0	0	33
fixed	7	4	1	1467216	4	1	1	1	0	591	1	4	0	200	1	0	0	3
fixed	7	4	2	1468828	1	2	2	1	0	843	1	4	0	208	2	0	0	5
fixed	7	4	3	1470486	6	4	4	1	0	589	1	4	0	224	3	0	0	8
fixed	7	4	4	1471864	2	1	1	1	0	811	1	4	0	200	4	0	0	10
fixed	7	4	5	1473176	5	3	3	1	0	875	1	4	0	216	5	0	0	12
fixed	7	4	6	1474957	6	4	4	1	0	648	1	4	0	224	6	0	0	14
fixed	7	4	7	1476304	3	1	1	1	0	750	1	4	0	200	7	0	0	16
fixed	7	4	8	1477608	2	3	3	1	0	1055	1	4	0	216	8	0	0	18
fixed	7	4	9	1479009	3	2	2	1	0	780	1	4	0	208	9	0	0	20
fixed	7	4	10	1480313	1	4	4	1	0	597	1	4	0	224	10	0	0	22
fixed	7	4	11	1481557	5	2	2	1	0	696	1	4	0	208	11	0	0	23
fixed	7	4	12	1482843	4	3	3	1	0	1050	1	4	0	216	12	0	0	25
fixed	7	5	1	1485060	4	1	1	1	0	596	1	4	0	200	1	0	0	2
fixed	7	5	2	1486190	1	2	2	1	0	916	1	4	0	208	2	0	0	4
fixed	7	5	3	1487949	6	4	4	1	0	633	1	4	0	224	3	0	0	6
fixed	7	5	4	1488950	2	1	1	1	0	735	1	4	0	200	4	0	0	8
fixed	7	5	5	1490194	5	3	3	1	0	1106	1	4	0	216	5	0	0	9
fixed	7	5	6	1492339	6	4	4	1	0	704	1	4	0	224	6	0	0	11
fixed	7	5	7	1493988	3	1	1	1	0	882	1	4	0	200	7	0	0	13
fixed	7	5	8	1495525	2	3	3	1	0	993	1	4	0	216	8	0	0	14
fixed	7	5	9	1497211	3	2	2	1	0	681	1	4	0	208	9	0	0	16
fixed	7	5	10	1498741	1	4	4	1	0	608	1	4	0	224	10	0	0	17
fixed	7	5	11	1499696	5	2	2	1	0	864	1	4	0	208	11	0	0	19
fixed	7	5	12	1501461	4	3	3	1	0	829	1	4	0	216	12	0	0	20
fixed	7	6	1	1502954	4	1	1	1	0	622	1	4	0	200	1	0	0	2
fixed	7	6	2	1503883	1	2	2	1	0	879	1	4	0	208	2	0	0	3
fixed	7	6	3	1505501	6	4	4	1	0	586	1	4	0	224	3	0	0	5
fixed	7	6	4	1507011	2	1	1	1	0	714	1	4	0	200	4	0	0	6
fixed	7	6	5	1508162	5	3	3	1	0	810	1	4	0	216	5	0	0	8
fixed	7	6	6	1509693	6	4	4	1	0	729	1	4	0	224	6	0	0	9
fixed	7	6	7	1511391	3	1	1	1	0	712	1	4	0	200	7	0	0	10
fixed	7	6	8	1512686	2	3	3	1	0	1034	1	4	0	216	8	0	0	12
fixed	7	6	9	1514677	3	2	2	1	0	734	1	4	0	208	9	0	0	13
fixed	7	6	10	1516049	1	4	4	1	0	652	1	4	0	224	10	0	0	14
fixed	7	6	11	1517290	5	2	2	1	0	1143	1	4	0	208	11	0	0	15
fixed	7	6	12	1518998	4	3	3	1	0	1110	1	4	0	216	12	0	0	17
fixed	7	7	1	1520748	4	1	1	1	0	596	1	4	0	200	1	0	0	1
fixed	7	7	2	1522281	1	2	2	1	0	980	1	4	0	208	2	0	0	3
fixed	7	7	3	1523912	6	4	4	1	0	622	1	4	0	224	3	0	0	4
fixed	7	7	4	1525063	2	1	1	1	0	693	1	4	0	200	4	0	0	5
fixed	7	7	5	1526225	5	3	3	1	0	852	1	4	0	216	5	0	0	6
fixed	7	7	6	1527713	6	4	4	1	0	685	1	4	0	224	6	0	0	8
fixed	7	7	7	1529193	3	1	1	1	0	607	1	4	0	200	7	0	0	9
fixed	7	7	8	1530424	2	3	3	1	0	938	1	4	0	216	8	0	0	10
fixed	7	7	9	1531664	3	2	2	1	0	750	1	4	0	208	9	0	0	11
fixed	7	7	10	1532963	1	4	4	1	0	599	1	4	0	224	10	0	0	12
fixed	7	7	11	1534238	5	2	2	1	0	753	1	4	0	208	11	0	0	13
fixed	7	7	12	1535807	4	3	3	1	0	718	1	4	0	216	12	0	0	14
fixed	7	8	1	1537255	4	1	1	1	0	697	1	4	0	200	1	0	0	1
fixed	7	8	2	1538598	1	2	2	1	0	888	1	4	0	208	2	0	0	2
fixed	7	8	3	1540442	6	4	4	1	0	626	1	4	0	224	3	0	0	3
fixed	7	8	4	1541964	2	1	1	1	0	585	1	4	0	200	4	0	0	5
fixed	7	8	5	1543476	5	3	3	1	0	730	1	4	0	216	5	0	0	6
fixed	7	8	6	1545067	6	4	4	1	0	542	1	4	0	224	6	0	0	7
fixed	7	8	7	1546320	3	1	1	1	0	601	1	4	0	200	7	0	0	8
fixed	7	8	8	1547612	2	3	3	1	0	986	1	4	0	216	8	0	0	9
fixed	7	8	9	1549648	3	2	2	1	0	669	1	4	0	208	9	0	0	10
fixed	7	8	10	1550624	1	4	4	1	0	651	1	4	0	224	10	0	0	11
fixed	7	8	11	1551875	5	2	2	1	0	766	1	4	0	208	11	0	0	12
fixed	7	8	12	1553175	4	3	3	1	0	807	1	4	0	216	12	0	0	13
fixed	7	9	1	1554881	4	1	1	1	0	646	1	4	0	200	1	0	0	1
fixed	7	9	2	1556468	1	2	2	1	0	931	1	4	0	208	2	0	0	2
fixed	7	9	3	1558411	6	4	4	1	0	689	1	4	0	224	3	0	0	3
fixed	7	9	4	1560036	2	1	1	1	0	628	1	4	0	200	4	0	0	4
fixed	7	9	5	1561247	5	3	3	1	0	801	1	4	0	216	5	0	0	5
fixed	7	9	6	1562522	6	4	4	1	0	755	1	4	0	224	6	0	0	6
fixed	7	9	7	1563917	3	1	1	1	0	679	1	4	0	200	7	0	0	7
fixed	7	9	8	1565206	2	3	3	1	0	1513	1	4	0	216	8	0	0	8
fixed	7	9	9	1567210	3	2	2	1	0	604	1	4	0	208	9	0	0	9
fixed	7	9	10	1568316	1	4	4	1	0	669	1	4	0	224	10	0	0	9
fixed	7	9	11	1569468	5	2	2	1	0	725	1	4	0	208	11	0	0	10
fixed	7	9	12	1571168	4	3	3	1	0	1188	1	4	0	216	12	0	0	11
fixed	7	10	1	1573427	4	1	1	1	0	485	1	4	0	200	1	0	0	1
fixed	7	10	2	1574788	1	2	2	1	0	996	1	4	0	208	2	0	0	2
fixed	7	10	3	1576094	6	4	4	1	0	636	1	4	0	224	3	0	0	3
fixed	7	10	4	1577210	2	1	1	1	0	677	1	4	0	200	4	0	0	4
fixed	7	10	5	1578892	5	3	3	1	0	877	1	4	0	216	5	0	0	4
fixed	7	10	6	1580782	6	4	4	1	0	757	1	4	0	224	6	0	0	5
fixed	7	10	7	1582344	3	1	1	1	0	668	1	4	0	200	7	0	0	6
fixed	7	10	8	1583853	2	3	3	1	0	891	1	4	0	216	8	0	0	7
fixed	7	10	9	1585638	3	2	2	1	0	632	1	4	0	208	9	0	0	8
fixed	7	10	10	1586941	1	4	4	1	0	584	1	4	0	224	10	0	0	8
fixed	7	10	11	1588328	5	2	2	1	0	774	1	4	0	208	11	0	0	9
fixed	7	10	12	1589776	4	3	3	1	0	841	1	4	0	216	12	0	0	10
