type	block	sequ.	trial	time	Pos.	Color	Button	NumRsp	Resp_1	RT_1	R_Code	Resp_2	RT_2	Trigg.	n_hit	n_inc	n_miss	score_%

random	1	1	1	2207	6	1	1	1	0	719	1	4	0	8	1	0	0	100
random	1	1	2	3586	4	4	4	1	0	717	1	4	0	32	2	0	0	100
random	1	1	3	4748	2	2	2	1	0	963	1	4	0	16	3	0	0	100
random	1	1	4	6592	3	3	3	1	0	670	1	4	0	24	4	0	0	100
random	1	1	5	8124	5	2	2	1	0	757	1	4	0	16	5	0	0	100
random	1	1	6	9906	1	4	4	1	0	738	1	4	0	32	6	0	0	100
random	1	1	7	11232	6	1	1	1	0	785	1	4	0	8	7	0	0	100
random	1	1	8	12351	2	3	3	2	0	1241	2	4	0	24	8	0	0	100
random	1	1	9	14059	4	2	2	1	0	753	1	4	0	16	9	0	0	100
random	1	1	10	15757	1	1	1	1	0	801	1	4	0	8	10	0	0	100
random	1	1	11	17201	5	4	4	1	0	644	1	4	0	32	11	0	0	100
random	1	1	12	18532	3	3	3	1	0	1220	1	4	0	24	12	0	0	100
random	1	1	13	20352	5	2	2	1	0	1358	1	4	0	16	13	0	0	100
random	1	1	14	22146	1	4	4	1	0	731	1	4	0	32	14	0	0	100
random	1	1	15	23881	3	1	1	1	0	681	1	4	0	8	15	0	0	100
random	1	1	16	25426	4	3	3	1	0	1080	1	4	0	24	16	0	0	100
random	1	1	17	27482	6	4	4	1	0	713	1	4	0	32	17	0	0	100
random	1	1	18	28735	2	1	1	1	0	604	1	4	0	8	18	0	0	100
random	1	1	19	30291	5	3	3	2	0	1514	2	4	0	24	19	0	0	100
random	1	1	20	32552	2	2	2	3	0	1802	2	4	0	16	20	0	0	100
random	1	1	21	34928	3	3	3	1	0	845	1	4	0	24	21	0	0	100
random	1	1	22	36561	6	1	1	1	0	704	1	4	0	8	22	0	0	100
random	1	1	23	38088	4	2	2	1	0	1000	1	4	0	16	23	0	0	100
random	1	1	24	39437	1	4	4	1	0	646	1	4	0	32	24	0	0	100
random	1	1	25	41355	4	3	0	1	2	0	3	4	0	24	24	0	1	96
random	1	1	26	44428	2	1	1	1	0	1363	1	4	0	8	25	0	1	96
random	1	1	27	46450	5	2	2	1	0	1093	1	4	0	16	26	0	1	96
random	1	1	28	47993	6	4	4	1	0	716	1	4	0	32	27	0	1	96
random	1	1	29	49683	1	3	3	1	0	853	1	4	0	24	28	0	1	97
random	1	1	30	51254	5	2	2	1	0	802	1	4	0	16	29	0	1	97
random	1	1	31	52909	2	1	1	1	0	676	1	4	0	8	30	0	1	97
random	1	1	32	54067	3	3	3	1	0	1122	1	4	0	24	31	0	1	97
random	1	1	33	55964	6	4	4	2	0	730	2	4	0	32	32	0	1	97
random	1	1	34	57131	4	2	2	1	0	961	1	4	0	16	33	0	1	97
random	1	1	35	58794	3	4	4	1	0	683	1	4	0	32	34	0	1	97
random	1	1	36	60291	1	1	1	1	0	795	1	4	0	8	35	0	1	97
random	1	1	37	61822	3	4	4	1	0	818	1	4	0	32	36	0	1	97
random	1	1	38	63647	5	3	3	2	0	1605	2	4	0	24	37	0	1	97
random	1	1	39	66211	6	1	1	1	0	889	1	4	0	8	38	0	1	97
random	1	1	40	67977	1	2	2	1	0	822	1	4	0	16	39	0	1	98
random	1	1	41	69633	2	3	3	1	0	1288	1	4	0	24	40	0	1	98
random	1	1	42	71514	4	4	4	1	0	792	1	4	0	32	41	0	1	98
random	1	1	43	73017	1	2	2	1	0	736	1	4	0	16	42	0	1	98
random	1	1	44	74584	6	3	3	1	0	709	1	4	0	24	43	0	1	98
random	1	1	45	76296	3	1	1	1	0	781	1	4	0	8	44	0	1	98
random	1	1	46	77527	4	4	4	1	0	801	1	4	0	32	45	0	1	98
random	1	1	47	79165	2	2	2	1	0	788	1	4	0	16	46	0	1	98
random	1	1	48	80920	5	1	1	1	0	865	1	4	0	8	47	0	1	98
random	1	1	49	82957	2	3	0	1	2	0	3	4	0	24	47	0	2	96
random	1	1	50	86140	3	1	1	1	0	908	1	4	0	8	48	0	2	96
random	1	1	51	87732	1	4	4	1	0	697	1	4	0	32	49	0	2	96
random	1	1	52	89251	5	3	3	1	0	1329	1	4	0	24	50	0	2	96
random	1	1	53	91002	3	2	2	1	0	663	1	4	0	16	51	0	2	96
random	1	1	54	92398	6	4	4	1	0	659	1	4	0	32	52	0	2	96
random	1	1	55	93362	4	2	2	1	0	1179	1	4	0	16	53	0	2	96
random	1	1	56	94901	1	1	1	1	0	785	1	4	0	8	54	0	2	96
random	1	1	57	96256	5	4	4	1	0	664	1	4	0	32	55	0	2	96
random	1	1	58	97598	2	1	1	1	0	727	1	4	0	8	56	0	2	97
random	1	1	59	98960	6	2	2	1	0	837	1	4	0	16	57	0	2	97
random	1	1	60	100101	4	3	3	1	0	829	1	4	0	24	58	0	2	97
random	1	1	61	101703	1	2	2	1	0	1073	1	4	0	16	59	0	2	97
random	1	1	62	103524	6	4	4	1	0	740	1	4	0	32	60	0	2	97
random	1	1	63	104699	4	1	1	2	0	1202	2	4	0	8	61	0	2	97
random	1	1	64	106432	2	2	2	1	0	969	1	4	0	16	62	0	2	97
random	1	1	65	108383	4	3	3	1	0	854	1	4	0	24	63	0	2	97
random	1	1	66	110217	3	1	1	1	0	721	1	4	0	8	64	0	2	97
random	1	1	67	111372	1	3	3	1	0	928	1	4	0	24	65	0	2	97
random	1	1	68	112965	5	4	4	1	0	684	1	4	0	32	66	0	2	97
random	1	1	69	114357	2	2	2	1	0	729	1	4	0	16	67	0	2	97
random	1	1	70	116001	3	1	1	1	0	1244	1	4	0	8	68	0	2	97
random	1	1	71	118121	5	4	4	1	0	722	1	4	0	32	69	0	2	97
random	1	1	72	119312	6	3	3	1	0	903	1	4	0	24	70	0	2	97
random	1	1	73	120783	2	1	1	1	0	825	1	4	0	8	71	0	2	97
random	1	1	74	122229	5	3	3	1	0	852	1	4	0	24	72	0	2	97
random	1	1	75	123674	1	4	4	1	0	654	1	4	0	32	73	0	2	97
random	1	1	76	124704	6	2	2	1	0	803	1	4	0	16	74	0	2	97
random	1	1	77	126083	2	1	1	1	0	744	1	4	0	8	75	0	2	97
random	1	1	78	127427	4	4	4	1	0	672	1	4	0	32	76	0	2	97
random	1	1	79	128997	3	2	2	1	0	877	1	4	0	16	77	0	2	97
random	1	1	80	130352	4	3	3	1	0	684	1	4	0	24	78	0	2	98
random	1	1	81	131458	1	4	4	1	0	653	1	4	0	32	79	0	2	98
random	1	1	82	132733	5	1	1	1	0	663	1	4	0	8	80	0	2	98
random	1	1	83	134050	3	2	2	1	0	815	1	4	0	16	81	0	2	98
random	1	1	84	135251	6	3	3	1	0	724	1	4	0	24	82	0	2	98
random	1	1	85	136940	3	2	2	1	0	892	1	4	0	16	83	0	2	98
random	1	1	86	138684	1	3	3	1	0	675	1	4	0	24	84	0	2	98
random	1	1	87	140143	4	4	4	1	0	773	1	4	0	32	85	0	2	98
random	1	1	88	141232	2	1	1	1	0	798	1	4	0	8	86	0	2	98
random	1	1	89	142728	6	4	4	1	0	672	1	4	0	32	87	0	2	98
random	1	1	90	143924	3	3	3	1	0	941	1	4	0	24	88	0	2	98
random	1	1	91	145375	5	4	0	1	2	0	3	4	0	32	88	0	3	97
random	1	1	92	148528	1	2	2	1	0	874	1	4	0	16	89	0	3	97
random	1	1	93	150209	5	1	1	1	0	651	1	4	0	8	90	0	3	97
random	1	1	94	151490	4	3	3	1	0	924	1	4	0	24	91	0	3	97
random	1	1	95	153369	6	1	1	1	0	893	1	4	0	8	92	0	3	97
random	1	1	96	154742	2	2	2	1	0	803	1	4	0	16	93	0	3	97
random	1	1	97	156838	4	3	3	1	0	1114	1	4	0	24	94	0	3	97
random	1	1	98	158848	3	2	2	1	0	821	1	4	0	16	95	0	3	97
random	1	1	99	159993	6	3	3	1	0	845	1	4	0	24	96	0	3	97
random	1	1	100	161259	1	4	4	1	0	615	1	4	0	32	97	0	3	97
random	1	1	101	162888	4	1	1	1	0	777	1	4	0	8	98	0	3	97
random	1	1	102	164598	5	2	2	1	0	1081	1	4	0	16	99	0	3	97
random	1	1	103	165996	2	4	4	1	0	718	1	4	0	32	100	0	3	97
random	1	1	104	167402	3	1	1	1	0	698	1	4	0	8	101	0	3	97
random	1	1	105	169041	1	3	3	1	0	893	1	4	0	24	102	0	3	97
random	1	1	106	170809	2	2	2	1	0	946	1	4	0	16	103	0	3	97
random	1	1	107	172623	5	4	4	2	0	814	2	4	0	32	104	0	3	97
random	1	1	108	174290	6	1	1	1	0	743	1	4	0	8	105	0	3	97
random	1	1	109	176202	5	4	4	1	0	773	1	4	0	32	106	0	3	97
random	1	1	110	177894	6	3	3	1	0	902	1	4	0	24	107	0	3	97
random	1	1	111	179811	2	2	2	1	0	677	1	4	0	16	108	0	3	97
random	1	1	112	181343	3	1	1	2	0	1212	2	4	0	8	109	0	3	97
random	1	1	113	183339	1	2	2	1	0	1023	1	4	0	16	110	0	3	97
random	1	1	114	184922	2	3	3	1	0	932	1	4	0	24	111	0	3	97
random	1	1	115	186328	3	1	1	1	0	1137	1	4	0	8	112	0	3	97
random	1	1	116	188378	4	4	4	1	0	722	1	4	0	32	113	0	3	97
random	1	1	117	189907	6	1	1	1	0	801	1	4	0	8	114	0	3	97
random	1	1	118	191369	5	3	3	1	0	948	1	4	0	24	115	0	3	97
random	1	1	119	192839	1	4	4	1	0	725	1	4	0	32	116	0	3	97
random	1	1	120	194104	4	2	2	1	0	808	1	4	0	16	117	0	3	98
fixed	2	1	1	196049	4	1	1	1	0	1021	1	4	0	40	1	0	0	100
fixed	2	1	2	197866	1	2	2	1	0	936	1	4	0	48	2	0	0	100
fixed	2	1	3	199146	6	4	4	1	0	706	1	4	0	64	3	0	0	100
fixed	2	1	4	200872	2	1	1	1	0	713	1	4	0	40	4	0	0	100
fixed	2	1	5	202043	5	3	3	1	0	895	1	4	0	56	5	0	0	100
fixed	2	1	6	203874	6	4	4	1	0	722	1	4	0	64	6	0	0	100
fixed	2	1	7	205248	3	1	1	2	0	736	2	4	0	40	7	0	0	100
fixed	2	1	8	206658	2	3	3	1	0	1003	1	4	0	56	8	0	0	100
fixed	2	1	9	208152	3	2	2	1	0	596	1	4	0	48	9	0	0	100
fixed	2	1	10	209756	1	4	4	1	0	625	1	4	0	64	10	0	0	100
fixed	2	1	11	210749	5	2	2	1	0	799	1	4	0	48	11	0	0	100
fixed	2	1	12	212073	4	3	3	1	0	718	1	4	0	56	12	0	0	100
fixed	2	2	1	213678	4	1	1	1	0	802	1	4	0	40	13	0	0	100
fixed	2	2	2	214871	1	2	2	1	0	784	1	4	0	48	14	0	0	100
fixed	2	2	3	216165	6	4	4	1	0	601	1	4	0	64	15	0	0	100
fixed	2	2	4	217405	2	1	1	1	0	684	1	4	0	40	16	0	0	100
fixed	2	2	5	218821	5	3	3	1	0	808	1	4	0	56	17	0	0	100
fixed	2	2	6	220250	6	4	4	1	0	668	1	4	0	64	18	0	0	100
fixed	2	2	7	221471	3	1	1	1	0	672	1	4	0	40	19	0	0	100
fixed	2	2	8	222560	2	3	3	1	0	930	1	4	0	56	20	0	0	100
fixed	2	2	9	223895	3	2	2	1	0	626	1	4	0	48	21	0	0	100
fixed	2	2	10	225326	1	4	4	1	0	749	1	4	0	64	22	0	0	100
fixed	2	2	11	226761	5	2	2	1	0	928	1	4	0	48	23	0	0	100
fixed	2	2	12	228637	4	3	3	1	0	1153	1	4	0	56	24	0	0	100
fixed	2	3	1	231037	4	1	1	1	0	787	1	4	0	40	25	0	0	100
fixed	2	3	2	232786	1	2	2	1	0	801	1	4	0	48	26	0	0	100
fixed	2	3	3	234381	6	4	4	1	0	725	1	4	0	64	27	0	0	100
fixed	2	3	4	236140	2	1	1	1	0	723	1	4	0	40	28	0	0	100
fixed	2	3	5	237312	5	3	3	1	0	866	1	4	0	56	29	0	0	100
fixed	2	3	6	238766	6	4	4	1	0	700	1	4	0	64	30	0	0	100
fixed	2	3	7	240049	3	1	1	1	0	742	1	4	0	40	31	0	0	100
fixed	2	3	8	241479	2	3	3	1	0	881	1	4	0	56	32	0	0	100
fixed	2	3	9	242812	3	2	2	1	0	705	1	4	0	48	33	0	0	100
fixed	2	3	10	243923	1	4	4	1	0	641	1	4	0	64	34	0	0	100
fixed	2	3	11	245115	5	2	2	1	0	967	1	4	0	48	35	0	0	100
fixed	2	3	12	246407	4	3	3	1	0	824	1	4	0	56	36	0	0	100
fixed	2	4	1	248430	4	1	1	1	0	850	1	4	0	40	37	0	0	100
fixed	2	4	2	249856	1	2	2	1	0	846	1	4	0	48	38	0	0	100
fixed	2	4	3	251731	6	4	4	1	0	695	1	4	0	64	39	0	0	100
fixed	2	4	4	253055	2	1	1	1	0	846	1	4	0	40	40	0	0	100
fixed	2	4	5	254256	5	3	3	1	0	892	1	4	0	56	41	0	0	100
fixed	2	4	6	256094	6	4	4	1	0	654	1	4	0	64	42	0	0	100
fixed	2	4	7	257160	3	1	1	2	0	969	2	4	0	40	43	0	0	100
fixed	2	4	8	258902	2	3	3	2	0	1527	2	4	0	56	44	0	0	100
fixed	2	4	9	260825	3	2	2	1	0	805	1	4	0	48	45	0	0	100
fixed	2	4	10	262520	1	4	4	1	0	694	1	4	0	64	46	0	0	100
fixed	2	4	11	264211	5	2	2	1	0	1070	1	4	0	48	47	0	0	100
fixed	2	4	12	265949	4	3	3	1	0	941	1	4	0	56	48	0	0	100
fixed	2	5	1	267844	4	1	1	1	0	748	1	4	0	40	49	0	0	100
fixed	2	5	2	268986	1	2	2	1	0	820	1	4	0	48	50	0	0	100
fixed	2	5	3	270374	6	4	4	1	0	641	1	4	0	64	51	0	0	100
fixed	2	5	4	271326	2	1	1	1	0	977	1	4	0	40	52	0	0	100
fixed	2	5	5	272789	5	3	3	1	0	883	1	4	0	56	53	0	0	100
fixed	2	5	6	274500	6	4	4	1	0	762	1	4	0	64	54	0	0	100
fixed	2	5	7	275548	3	1	1	1	0	742	1	4	0	40	55	0	0	100
fixed	2	5	8	277235	2	3	3	1	0	950	1	4	0	56	56	0	0	100
fixed	2	5	9	278599	3	2	2	1	0	629	1	4	0	48	57	0	0	100
fixed	2	5	10	280190	1	4	4	1	0	697	1	4	0	64	58	0	0	100
fixed	2	5	11	281419	5	2	2	1	0	773	1	4	0	48	59	0	0	100
fixed	2	5	12	282903	4	3	3	1	0	734	1	4	0	56	60	0	0	100
fixed	2	6	1	284435	4	1	1	1	0	725	1	4	0	40	61	0	0	100
fixed	2	6	2	285926	1	2	2	1	0	750	1	4	0	48	62	0	0	100
fixed	2	6	3	287199	6	4	4	1	0	609	1	4	0	64	63	0	0	100
fixed	2	6	4	288392	2	1	1	1	0	734	1	4	0	40	64	0	0	100
fixed	2	6	5	289591	5	3	3	1	0	1627	1	4	0	56	65	0	0	100
fixed	2	6	6	291537	6	4	4	1	0	809	1	4	0	64	66	0	0	100
fixed	2	6	7	293043	3	1	1	2	0	1113	2	4	0	40	67	0	0	100
fixed	2	6	8	295078	2	3	3	1	0	899	1	4	0	56	68	0	0	100
fixed	2	6	9	296879	3	2	2	1	0	783	1	4	0	48	69	0	0	100
fixed	2	6	10	297948	1	4	4	1	0	642	1	4	0	64	70	0	0	100
fixed	2	6	11	299412	5	2	2	1	0	699	1	4	0	48	71	0	0	100
fixed	2	6	12	300786	4	3	3	2	0	945	2	4	0	56	72	0	0	100
fixed	2	7	1	302312	4	1	1	1	0	680	1	4	0	40	73	0	0	100
fixed	2	7	2	303901	1	2	2	1	0	1245	1	4	0	48	74	0	0	100
fixed	2	7	3	305955	6	4	4	1	0	646	1	4	0	64	75	0	0	100
fixed	2	7	4	307098	2	1	1	1	0	614	1	4	0	40	76	0	0	100
fixed	2	7	5	308309	5	3	3	1	0	866	1	4	0	56	77	0	0	100
fixed	2	7	6	310051	6	4	4	1	0	760	1	4	0	64	78	0	0	100
fixed	2	7	7	311425	3	1	1	1	0	998	1	4	0	40	79	0	0	100
fixed	2	7	8	313146	2	3	3	1	0	1006	1	4	0	56	80	0	0	100
fixed	2	7	9	314970	3	2	2	1	0	720	1	4	0	48	81	0	0	100
fixed	2	7	10	316003	1	4	4	1	0	709	1	4	0	64	82	0	0	100
fixed	2	7	11	317125	5	2	2	1	0	701	1	4	0	48	83	0	0	100
fixed	2	7	12	318458	4	3	3	2	0	733	2	4	0	56	84	0	0	100
fixed	2	8	1	319905	4	1	1	1	0	743	1	4	0	40	85	0	0	100
fixed	2	8	2	321208	1	2	2	1	0	776	1	4	0	48	86	0	0	100
fixed	2	8	3	322931	6	4	4	1	0	679	1	4	0	64	87	0	0	100
fixed	2	8	4	324005	2	1	1	1	0	906	1	4	0	40	88	0	0	100
fixed	2	8	5	325721	5	3	3	1	0	801	1	4	0	56	89	0	0	100
fixed	2	8	6	327305	6	4	4	1	0	653	1	4	0	64	90	0	0	100
fixed	2	8	7	328275	3	1	1	1	0	852	1	4	0	40	91	0	0	100
fixed	2	8	8	329913	2	3	3	1	0	791	1	4	0	56	92	0	0	100
fixed	2	8	9	331299	3	2	2	1	0	612	1	4	0	48	93	0	0	100
fixed	2	8	10	332264	1	4	4	1	0	676	1	4	0	64	94	0	0	100
fixed	2	8	11	333945	5	2	2	1	0	733	1	4	0	48	95	0	0	100
fixed	2	8	12	335148	4	3	3	2	0	794	2	4	0	56	96	0	0	100
fixed	2	9	1	336713	4	1	1	1	0	871	1	4	0	40	97	0	0	100
fixed	2	9	2	338159	1	2	2	1	0	1138	1	4	0	48	98	0	0	100
fixed	2	9	3	339890	6	4	4	1	0	617	1	4	0	64	99	0	0	100
fixed	2	9	4	341508	2	1	1	1	0	692	1	4	0	40	100	0	0	100
fixed	2	9	5	342733	5	3	3	1	0	1400	1	4	0	56	101	0	0	100
fixed	2	9	6	344906	6	4	4	1	0	732	1	4	0	64	102	0	0	100
fixed	2	9	7	346131	3	1	1	1	0	737	1	4	0	40	103	0	0	100
fixed	2	9	8	347562	2	3	3	1	0	1100	1	4	0	56	104	0	0	100
fixed	2	9	9	349236	3	2	2	1	0	693	1	4	0	48	105	0	0	100
fixed	2	9	10	350467	1	4	4	1	0	641	1	4	0	64	106	0	0	100
fixed	2	9	11	351852	5	2	2	1	0	958	1	4	0	48	107	0	0	100
fixed	2	9	12	353541	4	3	3	1	0	1046	1	4	0	56	108	0	0	100
fixed	2	10	1	355208	4	1	1	1	0	632	1	4	0	40	109	0	0	100
fixed	2	10	2	356620	1	2	2	1	0	812	1	4	0	48	110	0	0	100
fixed	2	10	3	357767	6	4	4	2	0	1099	2	4	0	64	111	0	0	100
fixed	2	10	4	359274	2	1	1	1	0	668	1	4	0	40	112	0	0	100
fixed	2	10	5	360371	5	3	3	1	0	965	1	4	0	56	113	0	0	100
fixed	2	10	6	362127	6	4	4	1	0	675	1	4	0	64	114	0	0	100
fixed	2	10	7	363598	3	1	1	1	0	796	1	4	0	40	115	0	0	100
fixed	2	10	8	364808	2	3	3	1	0	1009	1	4	0	56	116	0	0	100
fixed	2	10	9	366727	3	2	2	1	0	736	1	4	0	48	117	0	0	100
fixed	2	10	10	368261	1	4	4	1	0	535	1	4	0	64	118	0	0	100
fixed	2	10	11	369238	5	2	2	1	0	814	1	4	0	48	119	0	0	100
fixed	2	10	12	371032	4	3	3	1	0	730	1	4	0	56	120	0	0	100
fixed	3	1	1	372966	4	1	1	1	0	711	1	4	0	72	1	0	0	100
fixed	3	1	2	374101	1	2	2	2	0	816	2	4	0	80	2	0	0	100
fixed	3	1	3	375919	6	4	4	1	0	731	1	4	0	96	3	0	0	100
fixed	3	1	4	377600	2	1	1	1	0	763	1	4	0	72	4	0	0	100
fixed	3	1	5	378775	5	3	3	1	0	906	1	4	0	88	5	0	0	100
fixed	3	1	6	380006	6	4	4	1	0	694	1	4	0	96	6	0	0	100
fixed	3	1	7	381084	3	1	1	1	0	800	1	4	0	72	7	0	0	100
fixed	3	1	8	382614	2	3	3	1	0	1247	1	4	0	88	8	0	0	100
fixed	3	1	9	384725	3	2	2	1	0	878	1	4	0	80	9	0	0	100
fixed	3	1	10	386058	1	4	4	1	0	781	1	4	0	96	10	0	0	100
fixed	3	1	11	387630	5	2	2	1	0	1059	1	4	0	80	11	0	0	100
fixed	3	1	12	389659	4	3	3	2	0	1212	2	4	0	88	12	0	0	100
fixed	3	2	1	391664	4	1	1	1	0	728	1	4	0	72	13	0	0	100
fixed	3	2	2	393243	1	2	2	1	0	837	1	4	0	80	14	0	0	100
fixed	3	2	3	394812	6	4	4	1	0	723	1	4	0	96	15	0	0	100
fixed	3	2	4	396410	2	1	1	2	0	783	2	4	0	72	16	0	0	100
fixed	3	2	5	397830	5	3	3	1	0	1250	1	4	0	88	17	0	0	100
fixed	3	2	6	399868	6	4	4	1	0	748	1	4	0	96	18	0	0	100
fixed	3	2	7	401109	3	1	1	1	0	928	1	4	0	72	19	0	0	100
fixed	3	2	8	402808	2	3	3	1	0	1272	1	4	0	88	20	0	0	100
fixed	3	2	9	404844	3	2	2	1	0	817	1	4	0	80	21	0	0	100
fixed	3	2	10	406340	1	4	4	1	0	682	1	4	0	96	22	0	0	100
fixed	3	2	11	407876	5	2	2	1	0	801	1	4	0	80	23	0	0	100
fixed	3	2	12	409075	4	3	3	1	0	854	1	4	0	88	24	0	0	100
fixed	3	3	1	410895	4	1	1	1	0	737	1	4	0	72	25	0	0	100
fixed	3	3	2	412204	1	2	2	1	0	754	1	4	0	80	26	0	0	100
fixed	3	3	3	413938	6	4	4	1	0	680	1	4	0	96	27	0	0	100
fixed	3	3	4	415322	2	1	1	1	0	718	1	4	0	72	28	0	0	100
fixed	3	3	5	416998	5	3	3	1	0	991	1	4	0	88	29	0	0	100
fixed	3	3	6	418396	6	4	4	1	0	675	1	4	0	96	30	0	0	100
fixed	3	3	7	420010	3	1	1	1	0	695	1	4	0	72	31	0	0	100
fixed	3	3	8	421199	2	3	3	1	0	765	1	4	0	88	32	0	0	100
fixed	3	3	9	422763	3	2	2	1	0	779	1	4	0	80	33	0	0	100
fixed	3	3	10	423840	1	4	4	1	0	821	1	4	0	96	34	0	0	100
fixed	3	3	11	425116	5	2	2	1	0	1151	1	4	0	80	35	0	0	100
fixed	3	3	12	426817	4	3	3	1	0	1135	1	4	0	88	36	0	0	100
fixed	3	4	1	429173	4	1	1	1	0	827	1	4	0	72	37	0	0	100
fixed	3	4	2	430858	1	2	2	1	0	827	1	4	0	80	38	0	0	100
fixed	3	4	3	432156	6	4	4	1	0	685	1	4	0	96	39	0	0	100
fixed	3	4	4	433206	2	1	1	1	0	768	1	4	0	72	40	0	0	100
fixed	3	4	5	434316	5	3	3	1	0	1114	1	4	0	88	41	0	0	100
fixed	3	4	6	435918	6	4	4	1	0	670	1	4	0	96	42	0	0	100
fixed	3	4	7	437298	3	1	1	1	0	715	1	4	0	72	43	0	0	100
fixed	3	4	8	438508	2	3	3	1	0	1016	1	4	0	88	44	0	0	100
fixed	3	4	9	440045	3	2	2	1	0	767	1	4	0	80	45	0	0	100
fixed	3	4	10	441480	1	4	4	1	0	610	1	4	0	96	46	0	0	100
fixed	3	4	11	442782	5	2	2	1	0	739	1	4	0	80	47	0	0	100
fixed	3	4	12	444236	4	3	0	1	2	0	3	4	0	88	47	0	1	98
fixed	3	5	1	447786	4	1	1	1	0	807	1	4	0	72	48	0	1	98
fixed	3	5	2	448895	1	2	2	3	0	2048	2	4	0	80	49	0	1	98
fixed	3	5	3	451622	6	4	4	1	0	765	1	4	0	96	50	0	1	98
fixed	3	5	4	452688	2	1	1	1	0	823	1	4	0	72	51	0	1	98
fixed	3	5	5	454193	5	3	3	1	0	1040	1	4	0	88	52	0	1	98
fixed	3	5	6	456160	6	4	4	1	0	732	1	4	0	96	53	0	1	98
fixed	3	5	7	457484	3	1	1	1	0	828	1	4	0	72	54	0	1	98
fixed	3	5	8	458735	2	3	3	1	0	943	1	4	0	88	55	0	1	98
fixed	3	5	9	460331	3	2	2	1	0	835	1	4	0	80	56	0	1	98
fixed	3	5	10	461843	1	4	4	1	0	659	1	4	0	96	57	0	1	98
fixed	3	5	11	463125	5	2	2	1	0	957	1	4	0	80	58	0	1	98
fixed	3	5	12	464538	4	3	3	1	0	778	1	4	0	88	59	0	1	98
fixed	3	6	1	466565	4	1	1	1	0	763	1	4	0	72	60	0	1	98
fixed	3	6	2	468062	1	2	2	1	0	788	1	4	0	80	61	0	1	98
fixed	3	6	3	469201	6	4	4	1	0	676	1	4	0	96	62	0	1	98
fixed	3	6	4	470157	2	1	1	1	0	755	1	4	0	72	63	0	1	98
fixed	3	6	5	471311	5	3	3	1	0	858	1	4	0	88	64	0	1	98
fixed	3	6	6	472927	6	4	4	1	0	686	1	4	0	96	65	0	1	98
fixed	3	6	7	474464	3	1	1	1	0	701	1	4	0	72	66	0	1	99
fixed	3	6	8	476071	2	3	3	1	0	985	1	4	0	88	67	0	1	99
fixed	3	6	9	477423	3	2	2	2	0	703	2	4	0	80	68	0	1	99
fixed	3	6	10	478522	1	4	4	1	0	713	1	4	0	96	69	0	1	99
fixed	3	6	11	479593	5	2	2	1	0	972	1	4	0	80	70	0	1	99
fixed	3	6	12	481472	4	3	3	1	0	1692	1	4	0	88	71	0	1	99
fixed	3	7	1	484275	4	1	1	1	0	741	1	4	0	72	72	0	1	99
fixed	3	7	2	485811	1	2	2	1	0	1012	1	4	0	80	73	0	1	99
fixed	3	7	3	487611	6	4	4	1	0	696	1	4	0	96	74	0	1	99
fixed	3	7	4	488917	2	1	1	1	0	713	1	4	0	72	75	0	1	99
fixed	3	7	5	490384	5	3	3	1	0	907	1	4	0	88	76	0	1	99
fixed	3	7	6	491769	6	4	4	1	0	808	1	4	0	96	77	0	1	99
fixed	3	7	7	493409	3	1	1	1	0	715	1	4	0	72	78	0	1	99
fixed	3	7	8	494573	2	3	3	1	0	826	1	4	0	88	79	0	1	99
fixed	3	7	9	496399	3	2	2	1	0	828	1	4	0	80	80	0	1	99
fixed	3	7	10	497807	1	4	4	1	0	680	1	4	0	96	81	0	1	99
fixed	3	7	11	499363	5	2	2	1	0	806	1	4	0	80	82	0	1	99
fixed	3	7	12	500995	4	3	3	1	0	1137	1	4	0	88	83	0	1	99
fixed	3	8	1	503188	4	1	1	1	0	748	1	4	0	72	84	0	1	99
fixed	3	8	2	504471	1	2	2	1	0	798	1	4	0	80	85	0	1	99
fixed	3	8	3	505975	6	4	4	1	0	735	1	4	0	96	86	0	1	99
fixed	3	8	4	507566	2	1	1	1	0	723	1	4	0	72	87	0	1	99
fixed	3	8	5	508773	5	3	3	1	0	1016	1	4	0	88	88	0	1	99
fixed	3	8	6	510547	6	4	4	1	0	709	1	4	0	96	89	0	1	99
fixed	3	8	7	511594	3	1	1	1	0	904	1	4	0	72	90	0	1	99
fixed	3	8	8	513324	2	3	3	2	0	951	2	4	0	88	91	0	1	99
fixed	3	8	9	514687	3	2	2	2	0	1213	2	4	0	80	92	0	1	99
fixed	3	8	10	516811	1	4	4	1	0	739	1	4	0	96	93	0	1	99
fixed	3	8	11	518145	5	2	2	1	0	755	1	4	0	80	94	0	1	99
fixed	3	8	12	519894	4	3	3	1	0	864	1	4	0	88	95	0	1	99
fixed	3	9	1	521567	4	1	1	1	0	882	1	4	0	72	96	0	1	99
fixed	3	9	2	523111	1	2	2	1	0	968	1	4	0	80	97	0	1	99
fixed	3	9	3	524517	6	4	4	1	0	933	1	4	0	96	98	0	1	99
fixed	3	9	4	526271	2	1	1	1	0	947	1	4	0	72	99	0	1	99
fixed	3	9	5	528171	5	3	3	1	0	978	1	4	0	88	100	0	1	99
fixed	3	9	6	529732	6	4	4	1	0	712	1	4	0	96	101	0	1	99
fixed	3	9	7	530988	3	1	1	1	0	786	1	4	0	72	102	0	1	99
fixed	3	9	8	532404	2	3	3	1	0	1087	1	4	0	88	103	0	1	99
fixed	3	9	9	534475	3	2	2	1	0	807	1	4	0	80	104	0	1	99
fixed	3	9	10	536047	1	4	4	1	0	885	1	4	0	96	105	0	1	99
fixed	3	9	11	537922	5	2	2	1	0	1085	1	4	0	80	106	0	1	99
fixed	3	9	12	539995	4	3	3	1	0	1037	1	4	0	88	107	0	1	99
fixed	3	10	1	541933	4	1	1	1	0	787	1	4	0	72	108	0	1	99
fixed	3	10	2	543051	1	2	2	1	0	844	1	4	0	80	109	0	1	99
fixed	3	10	3	544212	6	4	4	1	0	731	1	4	0	96	110	0	1	99
fixed	3	10	4	545272	2	1	1	1	0	710	1	4	0	72	111	0	1	99
fixed	3	10	5	546955	5	3	3	1	0	839	1	4	0	88	112	0	1	99
fixed	3	10	6	548533	6	4	4	1	0	667	1	4	0	96	113	0	1	99
fixed	3	10	7	550139	3	1	1	1	0	856	1	4	0	72	114	0	1	99
fixed	3	10	8	551567	2	3	3	1	0	995	1	4	0	88	115	0	1	99
fixed	3	10	9	553175	3	2	2	1	0	671	1	4	0	80	116	0	1	99
fixed	3	10	10	554440	1	4	4	1	0	626	1	4	0	96	117	0	1	99
fixed	3	10	11	555654	5	2	2	1	0	758	1	4	0	80	118	0	1	99
fixed	3	10	12	557042	4	3	3	1	0	819	1	4	0	88	119	0	1	99
fixed	4	1	1	684647	4	1	1	1	0	902	1	4	0	104	1	0	0	100
fixed	4	1	2	686241	1	2	2	1	0	691	1	4	0	112	2	0	0	100
fixed	4	1	3	687761	6	4	4	1	0	619	1	4	0	128	3	0	0	100
fixed	4	1	4	689424	2	1	1	1	0	685	1	4	0	104	4	0	0	100
fixed	4	1	5	691010	5	3	3	2	0	993	2	4	0	120	5	0	0	100
fixed	4	1	6	692652	6	4	4	1	0	707	1	4	0	128	6	0	0	100
fixed	4	1	7	694173	3	1	1	1	0	779	1	4	0	104	7	0	0	100
fixed	4	1	8	695780	2	3	3	1	0	903	1	4	0	120	8	0	0	100
fixed	4	1	9	697535	3	2	2	1	0	829	1	4	0	112	9	0	0	100
fixed	4	1	10	698738	1	4	4	1	0	666	1	4	0	128	10	0	0	100
fixed	4	1	11	700087	5	2	2	1	0	768	1	4	0	112	11	0	0	100
fixed	4	1	12	701550	4	3	3	2	0	1379	2	4	0	120	12	0	0	100
fixed	4	2	1	703813	4	1	1	1	0	867	1	4	0	104	13	0	0	100
fixed	4	2	2	705607	1	2	2	1	0	775	1	4	0	112	14	0	0	100
fixed	4	2	3	706717	6	4	4	1	0	800	1	4	0	128	15	0	0	100
fixed	4	2	4	707866	2	1	1	1	0	839	1	4	0	104	16	0	0	100
fixed	4	2	5	709521	5	3	3	2	0	1297	2	4	0	120	17	0	0	100
fixed	4	2	6	711192	6	4	4	1	0	770	1	4	0	128	18	0	0	100
fixed	4	2	7	712902	3	1	1	1	0	746	1	4	0	104	19	0	0	100
fixed	4	2	8	714009	2	3	3	1	0	859	1	4	0	120	20	0	0	100
fixed	4	2	9	715460	3	2	2	1	0	765	1	4	0	112	21	0	0	100
fixed	4	2	10	716831	1	4	4	1	0	795	1	4	0	128	22	0	0	100
fixed	4	2	11	718019	5	2	2	1	0	873	1	4	0	112	23	0	0	100
fixed	4	2	12	719506	4	3	3	1	0	986	1	4	0	120	24	0	0	100
fixed	4	3	1	721106	4	1	1	1	0	782	1	4	0	104	25	0	0	100
fixed	4	3	2	722374	1	2	2	1	0	784	1	4	0	112	26	0	0	100
fixed	4	3	3	723584	6	4	4	2	0	1077	2	4	0	128	27	0	0	100
fixed	4	3	4	724986	2	1	1	1	0	1058	1	4	0	104	28	0	0	100
fixed	4	3	5	726357	5	3	3	1	0	1696	1	4	0	120	29	0	0	100
fixed	4	3	6	729014	6	4	4	1	0	1735	1	4	0	128	30	0	0	100
fixed	4	3	7	731780	3	1	1	1	0	738	1	4	0	104	31	0	0	100
fixed	4	3	8	733175	2	3	3	1	0	823	1	4	0	120	32	0	0	100
fixed	4	3	9	734311	3	2	2	1	0	711	1	4	0	112	33	0	0	100
fixed	4	3	10	735578	1	4	4	1	0	673	1	4	0	128	34	0	0	100
fixed	4	3	11	736695	5	2	2	1	0	770	1	4	0	112	35	0	0	100
fixed	4	3	12	738266	4	3	3	1	0	751	1	4	0	120	36	0	0	100
fixed	4	4	1	740320	4	1	1	1	0	784	1	4	0	104	37	0	0	100
fixed	4	4	2	741966	1	2	2	1	0	811	1	4	0	112	38	0	0	100
fixed	4	4	3	743438	6	4	4	1	0	637	1	4	0	128	39	0	0	100
fixed	4	4	4	744441	2	1	1	2	0	1506	2	4	0	104	40	0	0	100
fixed	4	4	5	746897	5	3	3	1	0	1442	1	4	0	120	41	0	0	100
fixed	4	4	6	749000	6	4	4	1	0	681	1	4	0	128	42	0	0	100
fixed	4	4	7	749988	3	1	1	1	0	743	1	4	0	104	43	0	0	100
fixed	4	4	8	751385	2	3	3	1	0	836	1	4	0	120	44	0	0	100
fixed	4	4	9	753204	3	2	2	1	0	799	1	4	0	112	45	0	0	100
fixed	4	4	10	754490	1	4	4	1	0	1024	1	4	0	128	46	0	0	100
fixed	4	4	11	756071	5	2	2	1	0	758	1	4	0	112	47	0	0	100
fixed	4	4	12	757217	4	3	3	1	0	1045	1	4	0	120	48	0	0	100
fixed	4	5	1	759300	4	1	1	1	0	764	1	4	0	104	49	0	0	100
fixed	4	5	2	760812	1	2	2	1	0	1381	1	4	0	112	50	0	0	100
fixed	4	5	3	763017	6	4	4	1	0	687	1	4	0	128	51	0	0	100
fixed	4	5	4	764100	2	1	1	1	0	753	1	4	0	104	52	0	0	100
fixed	4	5	5	765504	5	3	3	1	0	742	1	4	0	120	53	0	0	100
fixed	4	5	6	767266	6	4	4	1	0	788	1	4	0	128	54	0	0	100
fixed	4	5	7	769006	3	1	1	1	0	1057	1	4	0	104	55	0	0	100
fixed	4	5	8	770470	2	3	3	1	0	1196	1	4	0	120	56	0	0	100
fixed	4	5	9	772210	3	2	2	1	0	650	1	4	0	112	57	0	0	100
fixed	4	5	10	773603	1	4	4	1	0	1079	1	4	0	128	58	0	0	100
fixed	4	5	11	775302	5	2	2	1	0	1143	1	4	0	112	59	0	0	100
fixed	4	5	12	777441	4	3	3	1	0	749	1	4	0	120	60	0	0	100
fixed	4	6	1	778981	4	1	1	1	0	699	1	4	0	104	61	0	0	100
fixed	4	6	2	780605	1	2	2	1	0	830	1	4	0	112	62	0	0	100
fixed	4	6	3	781944	6	4	4	1	0	742	1	4	0	128	63	0	0	100
fixed	4	6	4	783647	2	1	1	1	0	1253	1	4	0	104	64	0	0	100
fixed	4	6	5	785387	5	3	3	1	0	1644	1	4	0	120	65	0	0	100
fixed	4	6	6	787984	6	4	4	1	0	725	1	4	0	128	66	0	0	100
fixed	4	6	7	789692	3	1	1	1	0	725	1	4	0	104	67	0	0	100
fixed	4	6	8	791357	2	3	3	2	0	1223	2	4	0	120	68	0	0	100
fixed	4	6	9	793394	3	2	2	1	0	609	1	4	0	112	69	0	0	100
fixed	4	6	10	794958	1	4	4	1	0	630	1	4	0	128	70	0	0	100
fixed	4	6	11	796063	5	2	2	1	0	880	1	4	0	112	71	0	0	100
fixed	4	6	12	797255	4	3	3	2	0	1253	2	4	0	120	72	0	0	100
fixed	4	7	1	799532	4	1	1	1	0	1460	1	4	0	104	73	0	0	100
fixed	4	7	2	801403	1	2	2	1	0	989	1	4	0	112	74	0	0	100
fixed	4	7	3	802795	6	4	4	1	0	1170	1	4	0	128	75	0	0	100
fixed	4	7	4	804894	2	1	1	1	0	905	1	4	0	104	76	0	0	100
fixed	4	7	5	806771	5	3	3	1	0	890	1	4	0	120	77	0	0	100
fixed	4	7	6	808488	6	4	4	1	0	737	1	4	0	128	78	0	0	100
fixed	4	7	7	809770	3	1	1	1	0	779	1	4	0	104	79	0	0	100
fixed	4	7	8	811205	2	3	3	1	0	831	1	4	0	120	80	0	0	100
fixed	4	7	9	812778	3	2	2	1	0	627	1	4	0	112	81	0	0	100
fixed	4	7	10	814259	1	4	4	1	0	621	1	4	0	128	82	0	0	100
fixed	4	7	11	815752	5	2	2	1	0	1749	1	4	0	112	83	0	0	100
fixed	4	7	12	818349	4	3	3	1	0	872	1	4	0	120	84	0	0	100
fixed	4	8	1	820400	4	1	1	1	0	761	1	4	0	104	85	0	0	100
fixed	4	8	2	822178	1	2	2	1	0	854	1	4	0	112	86	0	0	100
fixed	4	8	3	823818	6	4	4	1	0	752	1	4	0	128	87	0	0	100
fixed	4	8	4	825234	2	1	1	1	0	884	1	4	0	104	88	0	0	100
fixed	4	8	5	826772	5	3	3	1	0	827	1	4	0	120	89	0	0	100
fixed	4	8	6	828394	6	4	4	1	0	766	1	4	0	128	90	0	0	100
fixed	4	8	7	829780	3	1	1	1	0	692	1	4	0	104	91	0	0	100
fixed	4	8	8	831123	2	3	3	1	0	794	1	4	0	120	92	0	0	100
fixed	4	8	9	832869	3	2	2	1	0	833	1	4	0	112	93	0	0	100
fixed	4	8	10	834200	1	4	4	1	0	672	1	4	0	128	94	0	0	100
fixed	4	8	11	835584	5	2	2	1	0	773	1	4	0	112	95	0	0	100
fixed	4	8	12	836874	4	3	3	1	0	711	1	4	0	120	96	0	0	100
fixed	4	9	1	838410	4	1	1	1	0	822	1	4	0	104	97	0	0	100
fixed	4	9	2	840100	1	2	2	1	0	822	1	4	0	112	98	0	0	100
fixed	4	9	3	841408	6	4	4	1	0	711	1	4	0	128	99	0	0	100
fixed	4	9	4	842522	2	1	1	1	0	888	1	4	0	104	100	0	0	100
fixed	4	9	5	844446	5	3	3	1	0	830	1	4	0	120	101	0	0	100
fixed	4	9	6	846197	6	4	4	1	0	780	1	4	0	128	102	0	0	100
fixed	4	9	7	847276	3	1	1	1	0	823	1	4	0	104	103	0	0	100
fixed	4	9	8	848826	2	3	3	2	0	1181	2	4	0	120	104	0	0	100
fixed	4	9	9	850460	3	2	2	1	0	808	1	4	0	112	105	0	0	100
fixed	4	9	10	851997	1	4	4	1	0	742	1	4	0	128	106	0	0	100
fixed	4	9	11	853612	5	2	2	1	0	858	1	4	0	112	107	0	0	100
fixed	4	9	12	855453	4	3	3	1	0	756	1	4	0	120	108	0	0	100
fixed	4	10	1	857039	4	1	1	1	0	777	1	4	0	104	109	0	0	100
fixed	4	10	2	858288	1	2	2	1	0	1260	1	4	0	112	110	0	0	100
fixed	4	10	3	860548	6	4	4	1	0	716	1	4	0	128	111	0	0	100
fixed	4	10	4	861972	2	1	1	1	0	720	1	4	0	104	112	0	0	100
fixed	4	10	5	863659	5	3	3	1	0	1504	1	4	0	120	113	0	0	100
fixed	4	10	6	866038	6	4	4	1	0	700	1	4	0	128	114	0	0	100
fixed	4	10	7	867559	3	1	1	1	0	764	1	4	0	104	115	0	0	100
fixed	4	10	8	868612	2	3	3	2	0	1391	2	4	0	120	116	0	0	100
fixed	4	10	9	870737	3	2	2	1	0	741	1	4	0	112	117	0	0	100
fixed	4	10	10	871975	1	4	4	1	0	624	1	4	0	128	118	0	0	100
fixed	4	10	11	873045	5	2	2	1	0	1075	1	4	0	112	119	0	0	100
fixed	4	10	12	875085	4	3	3	1	0	1285	1	4	0	120	120	0	0	100
fixed	5	1	1	877487	4	1	1	1	0	615	1	4	0	136	1	0	0	100
fixed	5	1	2	878535	1	2	2	1	0	1019	1	4	0	144	2	0	0	100
fixed	5	1	3	880209	6	4	4	1	0	692	1	4	0	160	3	0	0	100
fixed	5	1	4	881513	2	1	1	1	0	732	1	4	0	136	4	0	0	100
fixed	5	1	5	883250	5	3	3	1	0	923	1	4	0	152	5	0	0	100
fixed	5	1	6	885084	6	4	4	1	0	661	1	4	0	160	6	0	0	100
fixed	5	1	7	886312	3	1	1	1	0	689	1	4	0	136	7	0	0	100
fixed	5	1	8	887368	2	3	3	2	0	1204	2	4	0	152	8	0	0	100
fixed	5	1	9	889530	3	2	2	1	0	817	1	4	0	144	9	0	0	100
fixed	5	1	10	891269	1	4	4	1	0	735	1	4	0	160	10	0	0	100
fixed	5	1	11	892742	5	2	2	1	0	1040	1	4	0	144	11	0	0	100
fixed	5	1	12	894179	4	3	3	1	0	780	1	4	0	152	12	0	0	100
fixed	5	2	1	896102	4	1	1	1	0	922	1	4	0	136	13	0	0	100
fixed	5	2	2	898034	1	2	2	1	0	1065	1	4	0	144	14	0	0	100
fixed	5	2	3	899455	6	4	4	1	0	1093	1	4	0	160	15	0	0	100
fixed	5	2	4	901042	2	1	1	1	0	697	1	4	0	136	16	0	0	100
fixed	5	2	5	902660	5	3	3	1	0	877	1	4	0	152	17	0	0	100
fixed	5	2	6	903979	6	4	4	1	0	925	1	4	0	160	18	0	0	100
fixed	5	2	7	905362	3	1	1	1	0	1266	1	4	0	136	19	0	0	100
fixed	5	2	8	907254	2	3	3	1	0	1354	1	4	0	152	20	0	0	100
fixed	5	2	9	909629	3	2	2	1	0	654	1	4	0	144	21	0	0	100
fixed	5	2	10	911189	1	4	4	1	0	811	1	4	0	160	22	0	0	100
fixed	5	2	11	912321	5	2	2	1	0	916	1	4	0	144	23	0	0	100
fixed	5	2	12	913619	4	3	3	1	0	989	1	4	0	152	24	0	0	100
fixed	5	3	1	915416	4	1	1	1	0	1080	1	4	0	136	25	0	0	100
fixed	5	3	2	917053	1	2	2	1	0	1475	1	4	0	144	26	0	0	100
fixed	5	3	3	919295	6	4	4	1	0	636	1	4	0	160	27	0	0	100
fixed	5	3	4	920407	2	1	1	2	0	677	2	4	0	136	28	0	0	100
fixed	5	3	5	921516	5	3	3	1	0	934	1	4	0	152	29	0	0	100
fixed	5	3	6	922912	6	4	4	1	0	739	1	4	0	160	30	0	0	100
fixed	5	3	7	924331	3	1	1	1	0	1263	1	4	0	136	31	0	0	100
fixed	5	3	8	926626	2	3	3	1	0	957	1	4	0	152	32	0	0	100
fixed	5	3	9	927982	3	2	2	2	0	1044	2	4	0	144	33	0	0	100
fixed	5	3	10	929760	1	4	4	1	0	737	1	4	0	160	34	0	0	100
fixed	5	3	11	931436	5	2	2	1	0	1170	1	4	0	144	35	0	0	100
fixed	5	3	12	932929	4	3	3	1	0	827	1	4	0	152	36	0	0	100
fixed	5	4	1	934897	4	1	1	1	0	855	1	4	0	136	37	0	0	100
fixed	5	4	2	936350	1	2	2	1	0	850	1	4	0	144	38	0	0	100
fixed	5	4	3	938002	6	4	4	1	0	1228	1	4	0	160	39	0	0	100
fixed	5	4	4	940062	2	1	1	1	0	820	1	4	0	136	40	0	0	100
fixed	5	4	5	941250	5	3	3	1	0	1266	1	4	0	152	41	0	0	100
fixed	5	4	6	943066	6	4	4	1	0	1253	1	4	0	160	42	0	0	100
fixed	5	4	7	945155	3	1	1	1	0	909	1	4	0	136	43	0	0	100
fixed	5	4	8	946807	2	3	3	1	0	1095	1	4	0	152	44	0	0	100
fixed	5	4	9	948770	3	2	2	1	0	644	1	4	0	144	45	0	0	100
fixed	5	4	10	950166	1	4	4	1	0	648	1	4	0	160	46	0	0	100
fixed	5	4	11	951844	5	2	2	1	0	738	1	4	0	144	47	0	0	100
fixed	5	4	12	953553	4	3	3	1	0	705	1	4	0	152	48	0	0	100
fixed	5	5	1	955431	4	1	1	1	0	729	1	4	0	136	49	0	0	100
fixed	5	5	2	956704	1	2	2	1	0	900	1	4	0	144	50	0	0	100
fixed	5	5	3	958124	6	4	4	1	0	688	1	4	0	160	51	0	0	100
fixed	5	5	4	959240	2	1	1	1	0	792	1	4	0	136	52	0	0	100
fixed	5	5	5	960735	5	3	3	1	0	817	1	4	0	152	53	0	0	100
fixed	5	5	6	962263	6	4	4	1	0	1112	1	4	0	160	54	0	0	100
fixed	5	5	7	964264	3	1	1	1	0	764	1	4	0	136	55	0	0	100
fixed	5	5	8	966009	2	3	3	1	0	977	1	4	0	152	56	0	0	100
fixed	5	5	9	967775	3	2	2	1	0	678	1	4	0	144	57	0	0	100
fixed	5	5	10	969267	1	4	4	1	0	751	1	4	0	160	58	0	0	100
fixed	5	5	11	970363	5	2	2	1	0	2313	1	4	0	144	59	0	0	100
fixed	5	5	12	973180	4	3	3	1	0	778	1	4	0	152	60	0	0	100
fixed	5	6	1	974812	4	1	1	1	0	933	1	4	0	136	61	0	0	100
fixed	5	6	2	976685	1	2	2	1	0	773	1	4	0	144	62	0	0	100
fixed	5	6	3	977896	6	4	4	1	0	682	1	4	0	160	63	0	0	100
fixed	5	6	4	979479	2	1	1	1	0	719	1	4	0	136	64	0	0	100
fixed	5	6	5	980788	5	3	3	1	0	864	1	4	0	152	65	0	0	100
fixed	5	6	6	982030	6	4	4	1	0	699	1	4	0	160	66	0	0	100
fixed	5	6	7	983306	3	1	1	1	0	869	1	4	0	136	67	0	0	100
fixed	5	6	8	984566	2	3	3	1	0	1320	1	4	0	152	68	0	0	100
fixed	5	6	9	986335	3	2	2	1	0	653	1	4	0	144	69	0	0	100
fixed	5	6	10	987515	1	4	4	1	0	563	1	4	0	160	70	0	0	100
fixed	5	6	11	988617	5	2	2	1	0	772	1	4	0	144	71	0	0	100
fixed	5	6	12	990395	4	3	3	1	0	833	1	4	0	152	72	0	0	100
fixed	5	7	1	992104	4	1	1	1	0	760	1	4	0	136	73	0	0	100
fixed	5	7	2	993730	1	2	2	1	0	731	1	4	0	144	74	0	0	100
fixed	5	7	3	995250	6	4	4	1	0	683	1	4	0	160	75	0	0	100
fixed	5	7	4	996856	2	1	1	1	0	767	1	4	0	136	76	0	0	100
fixed	5	7	5	998519	5	3	3	1	0	784	1	4	0	152	77	0	0	100
fixed	5	7	6	1000206	6	4	0	1	2	0	3	4	0	160	77	0	1	99
fixed	5	7	7	1003616	3	1	1	1	0	809	1	4	0	136	78	0	1	99
fixed	5	7	8	1005161	2	3	3	1	0	1167	1	4	0	152	79	0	1	99
fixed	5	7	9	1007229	3	2	2	1	0	768	1	4	0	144	80	0	1	99
fixed	5	7	10	1009002	1	4	4	1	0	765	1	4	0	160	81	0	1	99
fixed	5	7	11	1010747	5	2	2	1	0	818	1	4	0	144	82	0	1	99
fixed	5	7	12	1012507	4	3	3	2	0	1080	2	4	0	152	83	0	1	99
fixed	5	8	1	1014459	4	1	1	1	0	893	1	4	0	136	84	0	1	99
fixed	5	8	2	1015922	1	2	2	1	0	1152	1	4	0	144	85	0	1	99
fixed	5	8	3	1017870	6	4	4	1	0	669	1	4	0	160	86	0	1	99
fixed	5	8	4	1019507	2	1	1	1	0	752	1	4	0	136	87	0	1	99
fixed	5	8	5	1021186	5	3	3	1	0	881	1	4	0	152	88	0	1	99
fixed	5	8	6	1022401	6	4	4	1	0	733	1	4	0	160	89	0	1	99
fixed	5	8	7	1023857	3	1	1	1	0	720	1	4	0	136	90	0	1	99
fixed	5	8	8	1024876	2	3	3	1	0	1100	1	4	0	152	91	0	1	99
fixed	5	8	9	1026851	3	2	2	1	0	785	1	4	0	144	92	0	1	99
fixed	5	8	10	1028069	1	4	4	1	0	733	1	4	0	160	93	0	1	99
fixed	5	8	11	1029350	5	2	2	1	0	831	1	4	0	144	94	0	1	99
fixed	5	8	12	1031124	4	3	3	1	0	796	1	4	0	152	95	0	1	99
fixed	5	9	1	1032787	4	1	1	1	0	773	1	4	0	136	96	0	1	99
fixed	5	9	2	1034087	1	2	2	1	0	886	1	4	0	144	97	0	1	99
fixed	5	9	3	1035535	6	4	4	1	0	729	1	4	0	160	98	0	1	99
fixed	5	9	4	1036558	2	1	1	1	0	1350	1	4	0	136	99	0	1	99
fixed	5	9	5	1038702	5	3	3	1	0	994	1	4	0	152	100	0	1	99
fixed	5	9	6	1040199	6	4	4	1	0	772	1	4	0	160	101	0	1	99
fixed	5	9	7	1041421	3	1	1	1	0	832	1	4	0	136	102	0	1	99
fixed	5	9	8	1043080	2	3	3	1	0	1393	1	4	0	152	103	0	1	99
fixed	5	9	9	1045472	3	2	2	1	0	724	1	4	0	144	104	0	1	99
fixed	5	9	10	1047197	1	4	4	1	0	915	1	4	0	160	105	0	1	99
fixed	5	9	11	1048430	5	2	2	1	0	1063	1	4	0	144	106	0	1	99
fixed	5	9	12	1050222	4	3	3	1	0	939	1	4	0	152	107	0	1	99
fixed	5	10	1	1052202	4	1	1	1	0	927	1	4	0	136	108	0	1	99
fixed	5	10	2	1054093	1	2	0	1	2	0	3	4	0	144	108	0	2	98
fixed	5	10	3	1057471	6	4	4	1	0	776	1	4	0	160	109	0	2	98
fixed	5	10	4	1058731	2	1	1	1	0	1011	1	4	0	136	110	0	2	98
fixed	5	10	5	1060489	5	3	3	1	0	864	1	4	0	152	111	0	2	98
fixed	5	10	6	1061956	6	4	4	1	0	745	1	4	0	160	112	0	2	98
fixed	5	10	7	1063267	3	1	1	1	0	810	1	4	0	136	113	0	2	98
fixed	5	10	8	1064966	2	3	3	1	0	1498	1	4	0	152	114	0	2	98
fixed	5	10	9	1067343	3	2	2	1	0	558	1	4	0	144	115	0	2	98
fixed	5	10	10	1068275	1	4	4	1	0	686	1	4	0	160	116	0	2	98
fixed	5	10	11	1069925	5	2	2	1	0	865	1	4	0	144	117	0	2	98
fixed	5	10	12	1071185	4	3	3	2	0	1155	2	4	0	152	118	0	2	98
random	6	1	1	1203370	6	1	1	1	0	924	1	4	0	168	1	0	0	100
random	6	1	2	1205106	4	4	4	1	0	715	1	4	0	192	2	0	0	100
random	6	1	3	1206435	2	2	2	1	0	818	1	4	0	176	3	0	0	100
random	6	1	4	1208016	3	3	3	1	0	663	1	4	0	184	4	0	0	100
random	6	1	5	1209216	5	2	2	1	0	837	1	4	0	176	5	0	0	100
random	6	1	6	1210772	1	4	4	1	0	578	1	4	0	192	6	0	0	100
random	6	1	7	1211716	6	1	1	1	0	867	1	4	0	168	7	0	0	100
random	6	1	8	1213024	2	3	3	1	0	1044	1	4	0	184	8	0	0	100
random	6	1	9	1214450	4	2	2	1	0	831	1	4	0	176	9	0	0	100
random	6	1	10	1215878	1	1	1	1	0	739	1	4	0	168	10	0	0	100
random	6	1	11	1217479	5	4	4	1	0	1639	1	4	0	192	11	0	0	100
random	6	1	12	1219666	3	3	3	1	0	802	1	4	0	184	12	0	0	100
random	6	1	13	1221316	5	2	2	1	0	1164	1	4	0	176	13	0	0	100
random	6	1	14	1223266	1	4	4	1	0	698	1	4	0	192	14	0	0	100
random	6	1	15	1224379	3	1	1	1	0	802	1	4	0	168	15	0	0	100
random	6	1	16	1225991	4	3	3	1	0	910	1	4	0	184	16	0	0	100
random	6	1	17	1227896	6	4	4	1	0	741	1	4	0	192	17	0	0	100
random	6	1	18	1229666	2	1	1	1	0	707	1	4	0	168	18	0	0	100
random	6	1	19	1230710	5	3	3	1	0	838	1	4	0	184	19	0	0	100
random	6	1	20	1231991	2	2	2	1	0	584	1	4	0	176	20	0	0	100
random	6	1	21	1233226	3	3	3	1	0	779	1	4	0	184	21	0	0	100
random	6	1	22	1234892	6	1	1	1	0	765	1	4	0	168	22	0	0	100
random	6	1	23	1236218	4	2	2	1	0	725	1	4	0	176	23	0	0	100
random	6	1	24	1237929	1	4	4	1	0	844	1	4	0	192	24	0	0	100
random	6	1	25	1239511	4	3	0	1	2	0	3	4	0	184	24	0	1	96
random	6	1	26	1242954	2	1	1	1	0	983	1	4	0	168	25	0	1	96
random	6	1	27	1244760	5	2	2	1	0	1043	1	4	0	176	26	0	1	96
random	6	1	28	1246100	6	4	4	1	0	762	1	4	0	192	27	0	1	96
random	6	1	29	1247739	1	3	3	1	0	901	1	4	0	184	28	0	1	97
random	6	1	30	1249329	5	2	2	1	0	962	1	4	0	176	29	0	1	97
random	6	1	31	1250920	2	1	1	1	0	1174	1	4	0	168	30	0	1	97
random	6	1	32	1252745	3	3	3	1	0	945	1	4	0	184	31	0	1	97
random	6	1	33	1254565	6	4	4	1	0	732	1	4	0	192	32	0	1	97
random	6	1	34	1256306	4	2	2	1	0	618	1	4	0	176	33	0	1	97
random	6	1	35	1257698	3	4	4	1	0	599	1	4	0	192	34	0	1	97
random	6	1	36	1258769	1	1	1	1	0	754	1	4	0	168	35	0	1	97
random	6	1	37	1260128	3	4	0	1	2	0	3	4	0	192	35	0	2	95
random	6	1	38	1263178	5	3	3	1	0	1079	1	4	0	184	36	0	2	95
random	6	1	39	1264788	6	1	1	1	0	1147	1	4	0	168	37	0	2	95
random	6	1	40	1266800	1	2	2	1	0	774	1	4	0	176	38	0	2	95
random	6	1	41	1268144	2	3	3	1	0	797	1	4	0	184	39	0	2	95
random	6	1	42	1269304	4	4	4	1	0	748	1	4	0	192	40	0	2	95
random	6	1	43	1270554	1	2	2	1	0	918	1	4	0	176	41	0	2	95
random	6	1	44	1271977	6	3	3	1	0	650	1	4	0	184	42	0	2	95
random	6	1	45	1273460	3	1	1	1	0	755	1	4	0	168	43	0	2	96
random	6	1	46	1274912	4	4	4	2	0	958	2	4	0	192	44	0	2	96
random	6	1	47	1276524	2	2	2	1	0	810	1	4	0	176	45	0	2	96
random	6	1	48	1277664	5	1	1	1	0	890	1	4	0	168	46	0	2	96
random	6	1	49	1279676	2	3	3	1	0	1324	1	4	0	184	47	0	2	96
random	6	1	50	1282025	3	1	1	1	0	761	1	4	0	168	48	0	2	96
random	6	1	51	1283207	1	4	4	1	0	695	1	4	0	192	49	0	2	96
random	6	1	52	1284573	5	3	3	1	0	1029	1	4	0	184	50	0	2	96
random	6	1	53	1285992	3	2	2	2	0	993	2	4	0	176	51	0	2	96
random	6	1	54	1287753	6	4	4	1	0	774	1	4	0	192	52	0	2	96
random	6	1	55	1289392	4	2	2	1	0	1689	1	4	0	176	53	0	2	96
random	6	1	56	1291413	1	1	1	1	0	763	1	4	0	168	54	0	2	96
random	6	1	57	1293082	5	4	4	1	0	693	1	4	0	192	55	0	2	96
random	6	1	58	1294261	2	1	1	1	0	682	1	4	0	168	56	0	2	97
random	6	1	59	1295328	6	2	2	1	0	1126	1	4	0	176	57	0	2	97
random	6	1	60	1297065	4	3	3	1	0	892	1	4	0	184	58	0	2	97
random	6	1	61	1298572	1	2	2	1	0	780	1	4	0	176	59	0	2	97
random	6	1	62	1299935	6	4	4	1	0	674	1	4	0	192	60	0	2	97
random	6	1	63	1301464	4	1	1	1	0	793	1	4	0	168	61	0	2	97
random	6	1	64	1302662	2	2	2	1	0	1231	1	4	0	176	62	0	2	97
random	6	1	65	1304440	4	3	3	1	0	723	1	4	0	184	63	0	2	97
random	6	1	66	1306201	3	1	1	1	0	873	1	4	0	168	64	0	2	97
random	6	1	67	1307930	1	3	3	1	0	927	1	4	0	184	65	0	2	97
random	6	1	68	1309814	5	4	4	1	0	759	1	4	0	192	66	0	2	97
random	6	1	69	1311409	2	2	2	1	0	1028	1	4	0	176	67	0	2	97
random	6	1	70	1312773	3	1	1	1	0	1210	1	4	0	168	68	0	2	97
random	6	1	71	1314369	5	4	4	1	0	767	1	4	0	192	69	0	2	97
random	6	1	72	1315832	6	3	3	1	0	833	1	4	0	184	70	0	2	97
random	6	1	73	1317569	2	1	1	1	0	799	1	4	0	168	71	0	2	97
random	6	1	74	1319249	5	3	3	1	0	936	1	4	0	184	72	0	2	97
random	6	1	75	1320692	1	4	4	1	0	715	1	4	0	192	73	0	2	97
random	6	1	76	1322060	6	2	2	1	0	721	1	4	0	176	74	0	2	97
random	6	1	77	1323277	2	1	1	2	0	1502	2	4	0	168	75	0	2	97
random	6	1	78	1325695	4	4	4	1	0	727	1	4	0	192	76	0	2	97
random	6	1	79	1327325	3	2	2	1	0	938	1	4	0	176	77	0	2	97
random	6	1	80	1328955	4	3	3	1	0	877	1	4	0	184	78	0	2	98
random	6	1	81	1330517	1	4	4	1	0	667	1	4	0	192	79	0	2	98
random	6	1	82	1332119	5	1	1	1	0	543	1	4	0	168	80	0	2	98
random	6	1	83	1332957	3	2	2	1	0	1179	1	4	0	176	81	0	2	98
random	6	1	84	1334429	6	3	3	1	0	797	1	4	0	184	82	0	2	98
random	6	1	85	1335931	3	2	2	1	0	1053	1	4	0	176	83	0	2	98
random	6	1	86	1337463	1	3	3	1	0	637	1	4	0	184	84	0	2	98
random	6	1	87	1338709	4	4	4	1	0	808	1	4	0	192	85	0	2	98
random	6	1	88	1339850	2	1	1	1	0	656	1	4	0	168	86	0	2	98
random	6	1	89	1341091	6	4	4	1	0	739	1	4	0	192	87	0	2	98
random	6	1	90	1342385	3	3	3	1	0	1004	1	4	0	184	88	0	2	98
random	6	1	91	1343746	5	4	4	1	0	771	1	4	0	192	89	0	2	98
random	6	1	92	1345471	1	2	2	1	0	1017	1	4	0	176	90	0	2	98
random	6	1	93	1347452	5	1	1	1	0	1366	1	4	0	168	91	0	2	98
random	6	1	94	1349669	4	3	3	1	0	848	1	4	0	184	92	0	2	98
random	6	1	95	1351432	6	1	1	1	0	997	1	4	0	168	93	0	2	98
random	6	1	96	1352947	2	2	2	1	0	1077	1	4	0	176	94	0	2	98
random	6	1	97	1354576	4	3	3	1	0	832	1	4	0	184	95	0	2	98
random	6	1	98	1355758	3	2	2	1	0	750	1	4	0	176	96	0	2	98
random	6	1	99	1356997	6	3	0	1	2	0	3	4	0	184	96	0	3	97
random	6	1	100	1360320	1	4	4	1	0	693	1	4	0	192	97	0	3	97
random	6	1	101	1361531	4	1	1	2	0	2313	2	4	0	168	98	0	3	97
random	6	1	102	1364604	5	2	2	1	0	1159	1	4	0	176	99	0	3	97
random	6	1	103	1366421	2	4	4	1	0	714	1	4	0	192	100	0	3	97
random	6	1	104	1367857	3	1	1	1	0	829	1	4	0	168	101	0	3	97
random	6	1	105	1369611	1	3	3	1	0	1115	1	4	0	184	102	0	3	97
random	6	1	106	1371713	2	2	2	1	0	898	1	4	0	176	103	0	3	97
random	6	1	107	1373228	5	4	4	1	0	682	1	4	0	192	104	0	3	97
random	6	1	108	1374760	6	1	1	2	0	1337	2	4	0	168	105	0	3	97
random	6	1	109	1376848	5	4	4	1	0	792	1	4	0	192	106	0	3	97
random	6	1	110	1378060	6	3	3	1	0	1037	1	4	0	184	107	0	3	97
random	6	1	111	1379544	2	2	2	1	0	894	1	4	0	176	108	0	3	97
random	6	1	112	1380824	3	1	1	1	0	912	1	4	0	168	109	0	3	97
random	6	1	113	1382395	1	2	2	1	0	877	1	4	0	176	110	0	3	97
random	6	1	114	1384128	2	3	3	2	0	1341	2	4	0	184	111	0	3	97
random	6	1	115	1386412	3	1	1	1	0	884	1	4	0	168	112	0	3	97
random	6	1	116	1388051	4	4	4	1	0	718	1	4	0	192	113	0	3	97
random	6	1	117	1389210	6	1	1	1	0	965	1	4	0	168	114	0	3	97
random	6	1	118	1390855	5	3	3	1	0	919	1	4	0	184	115	0	3	97
random	6	1	119	1392532	1	4	4	1	0	737	1	4	0	192	116	0	3	97
random	6	1	120	1393955	4	2	2	1	0	772	1	4	0	176	117	0	3	98
fixed	7	1	1	1395809	4	1	1	1	0	621	1	4	0	200	1	0	0	100
fixed	7	1	2	1396989	1	2	2	1	0	956	1	4	0	208	2	0	0	100
fixed	7	1	3	1398806	6	4	4	1	0	615	1	4	0	224	3	0	0	100
fixed	7	1	4	1400071	2	1	1	1	0	737	1	4	0	200	4	0	0	100
fixed	7	1	5	1401249	5	3	3	1	0	903	1	4	0	216	5	0	0	100
fixed	7	1	6	1402533	6	4	4	1	0	745	1	4	0	224	6	0	0	100
fixed	7	1	7	1404127	3	1	1	1	0	846	1	4	0	200	7	0	0	100
fixed	7	1	8	1405599	2	3	3	1	0	999	1	4	0	216	8	0	0	100
fixed	7	1	9	1407387	3	2	2	1	0	803	1	4	0	208	9	0	0	100
fixed	7	1	10	1408867	1	4	4	1	0	725	1	4	0	224	10	0	0	100
fixed	7	1	11	1410590	5	2	2	1	0	852	1	4	0	208	11	0	0	100
fixed	7	1	12	1412273	4	3	3	1	0	908	1	4	0	216	12	0	0	100
fixed	7	2	1	1414006	4	1	1	1	0	723	1	4	0	200	1	0	0	8
fixed	7	2	2	1415256	1	2	2	1	0	974	1	4	0	208	2	0	0	14
fixed	7	2	3	1416860	6	4	4	1	0	682	1	4	0	224	3	0	0	20
fixed	7	2	4	1418318	2	1	1	1	0	724	1	4	0	200	4	0	0	25
fixed	7	2	5	1419464	5	3	3	1	0	892	1	4	0	216	5	0	0	29
fixed	7	2	6	1421216	6	4	4	1	0	778	1	4	0	224	6	0	0	33
fixed	7	2	7	1422472	3	1	1	1	0	765	1	4	0	200	7	0	0	37
fixed	7	2	8	1424215	2	3	3	1	0	1042	1	4	0	216	8	0	0	40
fixed	7	2	9	1426224	3	2	2	1	0	829	1	4	0	208	9	0	0	43
fixed	7	2	10	1427511	1	4	4	1	0	759	1	4	0	224	10	0	0	45
fixed	7	2	11	1428805	5	2	2	1	0	1080	1	4	0	208	11	0	0	48
fixed	7	2	12	1430603	4	3	3	1	0	1028	1	4	0	216	12	0	0	50
fixed	7	3	1	1432300	4	1	1	1	0	692	1	4	0	200	1	0	0	4
fixed	7	3	2	1433795	1	2	0	1	2	0	3	4	0	208	1	0	1	4
fixed	7	3	3	1436621	6	4	4	1	0	765	1	4	0	224	2	0	1	7
fixed	7	3	4	1437681	2	1	1	1	0	872	1	4	0	200	3	0	1	11
fixed	7	3	5	1438939	5	3	3	1	0	1835	1	4	0	216	4	0	1	14
fixed	7	3	6	1441168	6	4	4	1	0	1301	1	4	0	224	5	0	1	17
fixed	7	3	7	1443398	3	1	1	1	0	830	1	4	0	200	6	0	1	19
fixed	7	3	8	1444534	2	3	3	1	0	830	1	4	0	216	7	0	1	22
fixed	7	3	9	1446243	3	2	2	1	0	534	1	4	0	208	8	0	1	24
fixed	7	3	10	1447612	1	4	4	1	0	659	1	4	0	224	9	0	1	26
fixed	7	3	11	1448813	5	2	2	1	0	993	1	4	0	208	10	0	1	29
fixed	7	3	12	1450338	4	3	3	1	0	872	1	4	0	216	11	0	1	31
fixed	7	4	1	1451982	4	1	1	1	0	714	1	4	0	200	1	0	0	3
fixed	7	4	2	1453694	1	2	2	1	0	746	1	4	0	208	2	0	0	5
fixed	7	4	3	1455329	6	4	4	1	0	965	1	4	0	224	3	0	0	8
fixed	7	4	4	1457048	2	1	1	1	0	732	1	4	0	200	4	0	0	10
fixed	7	4	5	1458194	5	3	3	1	0	852	1	4	0	216	5	0	0	12
fixed	7	4	6	1459525	6	4	4	1	0	763	1	4	0	224	6	0	0	14
fixed	7	4	7	1461186	3	1	1	1	0	1148	1	4	0	200	7	0	0	16
fixed	7	4	8	1463002	2	3	3	1	0	1368	1	4	0	216	8	0	0	18
fixed	7	4	9	1464896	3	2	2	1	0	631	1	4	0	208	9	0	0	20
fixed	7	4	10	1466384	1	4	4	1	0	600	1	4	0	224	10	0	0	22
fixed	7	4	11	1467569	5	2	2	1	0	830	1	4	0	208	11	0	0	23
fixed	7	4	12	1468814	4	3	3	1	0	769	1	4	0	216	12	0	0	25
fixed	7	5	1	1470511	4	1	1	1	0	905	1	4	0	200	1	0	0	2
fixed	7	5	2	1472397	1	2	2	1	0	801	1	4	0	208	2	0	0	4
fixed	7	5	3	1474094	6	4	4	1	0	722	1	4	0	224	3	0	0	6
fixed	7	5	4	1475725	2	1	1	2	0	805	2	4	0	200	4	0	0	8
fixed	7	5	5	1477475	5	3	3	1	0	1130	1	4	0	216	5	0	0	9
fixed	7	5	6	1479520	6	4	4	1	0	852	1	4	0	224	6	0	0	11
fixed	7	5	7	1480841	3	1	1	1	0	1412	1	4	0	200	7	0	0	13
fixed	7	5	8	1483045	2	3	3	1	0	951	1	4	0	216	8	0	0	14
fixed	7	5	9	1484780	3	2	2	1	0	773	1	4	0	208	9	0	0	16
fixed	7	5	10	1486493	1	4	4	1	0	797	1	4	0	224	10	0	0	17
fixed	7	5	11	1488116	5	2	2	1	0	1144	1	4	0	208	11	0	0	19
fixed	7	5	12	1489941	4	3	3	1	0	938	1	4	0	216	12	0	0	20
fixed	7	6	1	1492147	4	1	1	1	0	781	1	4	0	200	1	0	0	2
fixed	7	6	2	1493239	1	2	2	2	0	1583	2	4	0	208	2	0	0	3
fixed	7	6	3	1495139	6	4	4	1	0	694	1	4	0	224	3	0	0	5
fixed	7	6	4	1496331	2	1	1	1	0	932	1	4	0	200	4	0	0	6
fixed	7	6	5	1498274	5	3	3	1	0	818	1	4	0	216	5	0	0	8
fixed	7	6	6	1499809	6	4	4	1	0	657	1	4	0	224	6	0	0	9
fixed	7	6	7	1501132	3	1	1	1	0	665	1	4	0	200	7	0	0	10
fixed	7	6	8	1502127	2	3	3	1	0	950	1	4	0	216	8	0	0	12
fixed	7	6	9	1503845	3	2	2	1	0	758	1	4	0	208	9	0	0	13
fixed	7	6	10	1505113	1	4	4	1	0	704	1	4	0	224	10	0	0	14
fixed	7	6	11	1506209	5	2	2	1	0	1714	1	4	0	208	11	0	0	15
fixed	7	6	12	1508785	4	3	3	1	0	844	1	4	0	216	12	0	0	17
fixed	7	7	1	1510409	4	1	1	1	0	831	1	4	0	200	1	0	0	1
fixed	7	7	2	1511906	1	2	2	1	0	1336	1	4	0	208	2	0	0	3
fixed	7	7	3	1514128	6	4	4	1	0	722	1	4	0	224	3	0	0	4
fixed	7	7	4	1515614	2	1	1	1	0	771	1	4	0	200	4	0	0	5
fixed	7	7	5	1517275	5	3	3	1	0	1589	1	4	0	216	5	0	0	6
fixed	7	7	6	1519438	6	4	4	1	0	753	1	4	0	224	6	0	0	8
fixed	7	7	7	1520659	3	1	1	1	0	742	1	4	0	200	7	0	0	9
fixed	7	7	8	1522230	2	3	3	1	0	955	1	4	0	216	8	0	0	10
fixed	7	7	9	1523561	3	2	2	1	0	635	1	4	0	208	9	0	0	11
fixed	7	7	10	1524594	1	4	4	1	0	727	1	4	0	224	10	0	0	12
fixed	7	7	11	1525999	5	2	2	1	0	683	1	4	0	208	11	0	0	13
fixed	7	7	12	1527509	4	3	3	1	0	836	1	4	0	216	12	0	0	14
fixed	7	8	1	1529405	4	1	1	1	0	747	1	4	0	200	1	0	0	1
fixed	7	8	2	1531187	1	2	2	1	0	776	1	4	0	208	2	0	0	2
fixed	7	8	3	1532722	6	4	4	1	0	663	1	4	0	224	3	0	0	3
fixed	7	8	4	1534106	2	1	1	1	0	748	1	4	0	200	4	0	0	5
fixed	7	8	5	1535750	5	3	3	1	0	1303	1	4	0	216	5	0	0	6
fixed	7	8	6	1537784	6	4	4	1	0	696	1	4	0	224	6	0	0	7
fixed	7	8	7	1539121	3	1	1	1	0	744	1	4	0	200	7	0	0	8
fixed	7	8	8	1540332	2	3	3	1	0	940	1	4	0	216	8	0	0	9
fixed	7	8	9	1541611	3	2	2	1	0	646	1	4	0	208	9	0	0	10
fixed	7	8	10	1543107	1	4	4	1	0	823	1	4	0	224	10	0	0	11
fixed	7	8	11	1544310	5	2	2	1	0	908	1	4	0	208	11	0	0	12
fixed	7	8	12	1546187	4	3	3	1	0	908	1	4	0	216	12	0	0	13
fixed	7	9	1	1548285	4	1	1	1	0	907	1	4	0	200	1	0	0	1
fixed	7	9	2	1550193	1	2	2	1	0	1323	1	4	0	208	2	0	0	2
fixed	7	9	3	1551950	6	4	4	1	0	856	1	4	0	224	3	0	0	3
fixed	7	9	4	1553422	2	1	1	1	0	666	1	4	0	200	4	0	0	4
fixed	7	9	5	1554622	5	3	3	1	0	823	1	4	0	216	5	0	0	5
fixed	7	9	6	1555829	6	4	4	2	0	2364	2	4	0	224	6	0	0	6
fixed	7	9	7	1559191	3	1	1	1	0	1470	1	4	0	200	7	0	0	7
fixed	7	9	8	1561092	2	3	3	1	0	1045	1	4	0	216	8	0	0	8
fixed	7	9	9	1562909	3	2	2	1	0	768	1	4	0	208	9	0	0	9
fixed	7	9	10	1564436	1	4	4	1	0	768	1	4	0	224	10	0	0	9
fixed	7	9	11	1565626	5	2	2	1	0	1021	1	4	0	208	11	0	0	10
fixed	7	9	12	1567445	4	3	3	1	0	920	1	4	0	216	12	0	0	11
fixed	7	10	1	1569337	4	1	1	1	0	848	1	4	0	200	1	0	0	1
fixed	7	10	2	1571027	1	2	2	1	0	872	1	4	0	208	2	0	0	2
fixed	7	10	3	1572364	6	4	4	1	0	791	1	4	0	224	3	0	0	3
fixed	7	10	4	1573923	2	1	1	1	0	678	1	4	0	200	4	0	0	4
fixed	7	10	5	1575108	5	3	3	1	0	796	1	4	0	216	5	0	0	4
fixed	7	10	6	1576860	6	4	4	1	0	817	1	4	0	224	6	0	0	5
fixed	7	10	7	1578241	3	1	1	2	0	1342	2	4	0	200	7	0	0	6
fixed	7	10	8	1580225	2	3	3	1	0	1291	1	4	0	216	8	0	0	7
fixed	7	10	9	1582272	3	2	2	1	0	1404	1	4	0	208	9	0	0	8
fixed	7	10	10	1584053	1	4	4	1	0	705	1	4	0	224	10	0	0	8
fixed	7	10	11	1585750	5	2	2	1	0	801	1	4	0	208	11	0	0	9
fixed	7	10	12	1587222	4	3	3	2	0	1210	2	4	0	216	12	0	0	10
