type	block	sequ.	trial	time	Pos.	Color	Button	NumRsp	Resp_1	RT_1	R_Code	Resp_2	RT_2	Trigg.	n_hit	n_inc	n_miss	score_%

random	1	1	1	1903	6	1	1	1	0	1431	1	4	0	8	1	0	0	100
random	1	1	2	3674	4	4	4	1	0	1444	1	4	0	32	2	0	0	100
random	1	1	3	6015	2	2	0	1	2	0	3	4	0	16	2	0	1	67
random	1	1	4	9309	3	3	0	1	2	0	3	4	0	24	2	0	2	50
random	1	1	5	12275	5	2	0	0	2	0	3	4	0	16	2	0	3	40
random	1	1	6	15499	1	4	4	1	0	2072	1	4	0	32	3	0	3	50
random	1	1	7	18091	6	1	1	1	0	1194	1	4	0	8	4	0	3	57
random	1	1	8	19954	2	3	0	0	2	0	3	4	0	24	4	0	4	50
random	1	1	9	23084	4	2	0	1	2	0	3	4	0	16	4	0	5	44
random	1	1	10	25953	1	1	1	1	0	741	1	4	0	8	5	0	5	50
random	1	1	11	26987	5	4	4	1	0	1041	1	4	0	32	6	0	5	55
random	1	1	12	28542	3	3	3	1	0	991	1	4	0	24	7	0	5	58
random	1	1	13	30591	5	2	2	1	0	1416	1	4	0	16	8	0	5	62
random	1	1	14	32920	1	4	4	1	0	742	1	4	0	32	9	0	5	64
random	1	1	15	34192	3	1	1	1	0	864	1	4	0	8	10	0	5	67
random	1	1	16	35727	4	3	3	1	0	1207	1	4	0	24	11	0	5	69
random	1	1	17	37782	6	4	4	1	0	856	1	4	0	32	12	0	5	71
random	1	1	18	38958	2	1	1	1	0	982	1	4	0	8	13	0	5	72
random	1	1	19	40496	5	3	0	1	2	0	3	4	0	24	13	0	6	68
random	1	1	20	43798	2	2	0	1	2	0	3	4	0	16	13	0	7	65
random	1	1	21	46890	3	3	0	0	2	0	3	4	0	24	13	0	8	62
random	1	1	22	49755	6	1	1	1	0	1036	1	4	0	8	14	0	8	64
random	1	1	23	51632	4	2	0	1	2	0	3	4	0	16	14	0	9	61
random	1	1	24	54971	1	4	4	1	0	720	1	4	0	32	15	0	9	63
random	1	1	25	56890	4	3	3	1	0	1422	1	4	0	24	16	0	9	64
random	1	1	26	59040	2	1	1	1	0	756	1	4	0	8	17	0	9	65
random	1	1	27	60657	5	2	0	1	2	0	3	4	0	16	17	0	10	63
random	1	1	28	63775	6	4	4	1	0	699	1	4	0	32	18	0	10	64
random	1	1	29	64895	1	3	3	1	0	859	1	4	0	24	19	0	10	66
random	1	1	30	66784	5	2	0	1	2	0	3	4	0	16	19	0	11	63
random	1	1	31	70172	2	1	1	1	0	916	1	4	0	8	20	0	11	65
random	1	1	32	71389	3	3	3	1	0	2241	1	4	0	24	21	0	11	66
random	1	1	33	74005	6	4	4	1	0	1082	1	4	0	32	22	0	11	67
random	1	1	34	75877	4	2	0	1	2	0	3	4	0	16	22	0	12	65
random	1	1	35	78729	3	4	4	1	0	785	1	4	0	32	23	0	12	66
random	1	1	36	80358	1	1	1	1	0	813	1	4	0	8	24	0	12	67
random	1	1	37	82052	3	4	4	1	0	1140	1	4	0	32	25	0	12	68
random	1	1	38	83694	5	3	3	1	0	911	1	4	0	24	26	0	12	68
random	1	1	39	85500	6	1	1	1	0	795	1	4	0	8	27	0	12	69
random	1	1	40	87171	1	2	2	1	0	532	1	4	0	16	28	0	12	70
random	1	1	41	88289	2	3	3	1	0	1109	1	4	0	24	29	0	12	71
random	1	1	42	90197	4	4	4	1	0	588	1	4	0	32	30	0	12	71
random	1	1	43	91288	1	2	0	1	2	0	3	4	0	16	30	0	13	70
random	1	1	44	94679	6	3	3	1	0	1374	1	4	0	24	31	0	13	70
random	1	1	45	96866	3	1	1	1	0	722	1	4	0	8	32	0	13	71
random	1	1	46	98231	4	4	4	1	0	623	1	4	0	32	33	0	13	72
random	1	1	47	99777	2	2	0	1	2	0	3	4	0	16	33	0	14	70
random	1	1	48	103134	5	1	1	1	0	607	1	4	0	8	34	0	14	71
random	1	1	49	104891	2	3	3	1	0	2277	1	4	0	24	35	0	14	71
random	1	1	50	108158	3	1	1	1	0	699	1	4	0	8	36	0	14	72
random	1	1	51	109687	1	4	4	1	0	546	1	4	0	32	37	0	14	73
random	1	1	52	111244	5	3	3	1	0	840	1	4	0	24	38	0	14	73
random	1	1	53	112383	3	2	2	2	0	1528	2	4	0	16	39	0	14	74
random	1	1	54	114204	6	4	4	1	0	835	1	4	0	32	40	0	14	74
random	1	1	55	115845	4	2	2	1	0	774	1	4	0	16	41	0	14	75
random	1	1	56	117144	1	1	1	1	0	870	1	4	0	8	42	0	14	75
random	1	1	57	118470	5	4	4	1	0	655	1	4	0	32	43	0	14	75
random	1	1	58	119687	2	1	1	1	0	747	1	4	0	8	44	0	14	76
random	1	1	59	120935	6	2	2	1	0	1190	1	4	0	16	45	0	14	76
random	1	1	60	122648	4	3	3	1	0	862	1	4	0	24	46	0	14	77
random	1	1	61	124723	1	2	2	1	0	1125	1	4	0	16	47	0	14	77
random	1	1	62	126880	6	4	4	1	0	546	1	4	0	32	48	0	14	77
random	1	1	63	128186	4	1	1	1	0	891	1	4	0	8	49	0	14	78
random	1	1	64	130070	2	2	0	1	2	0	3	4	0	16	49	0	15	77
random	1	1	65	133105	4	3	3	1	0	2027	1	4	0	24	50	0	15	77
random	1	1	66	135744	3	1	1	1	0	691	1	4	0	8	51	0	15	77
random	1	1	67	137191	1	3	3	1	0	893	1	4	0	24	52	0	15	78
random	1	1	68	138619	5	4	4	1	0	673	1	4	0	32	53	0	15	78
random	1	1	69	140132	2	2	2	1	0	849	1	4	0	16	54	0	15	78
random	1	1	70	141965	3	1	1	1	0	547	1	4	0	8	55	0	15	79
random	1	1	71	143114	5	4	4	1	0	707	1	4	0	32	56	0	15	79
random	1	1	72	144844	6	3	3	1	0	1121	1	4	0	24	57	0	15	79
random	1	1	73	146577	2	1	1	1	0	824	1	4	0	8	58	0	15	79
random	1	1	74	148372	5	3	3	1	0	1268	1	4	0	24	59	0	15	80
random	1	1	75	150336	1	4	4	1	0	728	1	4	0	32	60	0	15	80
random	1	1	76	151712	6	2	2	1	0	1390	1	4	0	16	61	0	15	80
random	1	1	77	153903	2	1	1	1	0	698	1	4	0	8	62	0	15	81
random	1	1	78	155536	4	4	4	1	0	700	1	4	0	32	63	0	15	81
random	1	1	79	157100	3	2	2	1	0	866	1	4	0	16	64	0	15	81
random	1	1	80	158292	4	3	3	1	0	839	1	4	0	24	65	0	15	81
random	1	1	81	159918	1	4	4	1	0	651	1	4	0	32	66	0	15	81
random	1	1	82	161600	5	1	1	1	0	739	1	4	0	8	67	0	15	82
random	1	1	83	162724	3	2	2	1	0	1084	1	4	0	16	68	0	15	82
random	1	1	84	164468	6	3	3	1	0	778	1	4	0	24	69	0	15	82
random	1	1	85	166459	3	2	2	1	0	1093	1	4	0	16	70	0	15	82
random	1	1	86	168560	1	3	3	1	0	661	1	4	0	24	71	0	15	83
random	1	1	87	169682	4	4	4	1	0	925	1	4	0	32	72	0	15	83
random	1	1	88	171580	2	1	1	1	0	773	1	4	0	8	73	0	15	83
random	1	1	89	173247	6	4	4	1	0	662	1	4	0	32	74	0	15	83
random	1	1	90	174559	3	3	3	1	0	967	1	4	0	24	75	0	15	83
random	1	1	91	175934	5	4	4	1	0	996	1	4	0	32	76	0	15	84
random	1	1	92	177872	1	2	2	1	0	1410	1	4	0	16	77	0	15	84
random	1	1	93	180057	5	1	1	1	0	725	1	4	0	8	78	0	15	84
random	1	1	94	181678	4	3	3	1	0	937	1	4	0	24	79	0	15	84
random	1	1	95	183438	6	1	1	1	0	758	1	4	0	8	80	0	15	84
random	1	1	96	185063	2	2	2	1	0	1522	1	4	0	16	81	0	15	84
random	1	1	97	187611	4	3	0	1	2	0	3	4	0	24	81	0	16	84
random	1	1	98	190542	3	2	0	1	2	0	3	4	0	16	81	0	17	83
random	1	1	99	193623	6	3	3	1	0	1735	1	4	0	24	82	0	17	83
random	1	1	100	195706	1	4	4	1	0	807	1	4	0	32	83	0	17	83
random	1	1	101	197238	4	1	1	1	0	654	1	4	0	8	84	0	17	83
random	1	1	102	198578	5	2	2	1	0	1397	1	4	0	16	85	0	17	83
random	1	1	103	200454	2	4	4	1	0	686	1	4	0	32	86	0	17	83
random	1	1	104	202164	3	1	1	1	0	973	1	4	0	8	87	0	17	84
random	1	1	105	203606	1	3	3	1	0	1136	1	4	0	24	88	0	17	84
random	1	1	106	205450	2	2	2	1	0	1018	1	4	0	16	89	0	17	84
random	1	1	107	207268	5	4	4	1	0	765	1	4	0	32	90	0	17	84
random	1	1	108	209025	6	1	1	1	0	1059	1	4	0	8	91	0	17	84
random	1	1	109	211353	5	4	4	1	0	872	1	4	0	32	92	0	17	84
random	1	1	110	213012	6	3	3	1	0	1250	1	4	0	24	93	0	17	85
random	1	1	111	214741	2	2	2	1	0	857	1	4	0	16	94	0	17	85
random	1	1	112	216412	3	1	1	1	0	658	1	4	0	8	95	0	17	85
random	1	1	113	217698	1	2	2	1	0	1012	1	4	0	16	96	0	17	85
random	1	1	114	219668	2	3	3	1	0	1176	1	4	0	24	97	0	17	85
random	1	1	115	221858	3	1	1	1	0	780	1	4	0	8	98	0	17	85
random	1	1	116	223012	4	4	4	1	0	802	1	4	0	32	99	0	17	85
random	1	1	117	224846	6	1	1	1	0	933	1	4	0	8	100	0	17	85
random	1	1	118	226509	5	3	3	1	0	870	1	4	0	24	101	0	17	86
random	1	1	119	227940	1	4	4	1	0	1042	1	4	0	32	102	0	17	86
random	1	1	120	229448	4	2	2	1	0	986	1	4	0	16	103	0	17	86
fixed	2	1	1	231951	4	1	1	1	0	799	1	4	0	40	1	0	0	100
fixed	2	1	2	233388	1	2	0	1	2	0	3	4	0	48	1	0	1	50
fixed	2	1	3	236458	6	4	4	1	0	713	1	4	0	64	2	0	1	67
fixed	2	1	4	237757	2	1	1	1	0	722	1	4	0	40	3	0	1	75
fixed	2	1	5	239354	5	3	3	1	0	830	1	4	0	56	4	0	1	80
fixed	2	1	6	240503	6	4	4	1	0	990	1	4	0	64	5	0	1	83
fixed	2	1	7	242420	3	1	1	1	0	972	1	4	0	40	6	0	1	86
fixed	2	1	8	243901	2	3	3	1	0	1093	1	4	0	56	7	0	1	88
fixed	2	1	9	245998	3	2	2	1	0	989	1	4	0	48	8	0	1	89
fixed	2	1	10	247826	1	4	4	1	0	583	1	4	0	64	9	0	1	90
fixed	2	1	11	249415	5	2	2	1	0	1092	1	4	0	48	10	0	1	91
fixed	2	1	12	251191	4	3	3	1	0	1529	1	4	0	56	11	0	1	92
fixed	2	2	1	253306	4	1	1	1	0	871	1	4	0	40	12	0	1	92
fixed	2	2	2	254736	1	2	0	1	2	0	3	4	0	48	12	0	2	86
fixed	2	2	3	257911	6	4	4	1	0	741	1	4	0	64	13	0	2	87
fixed	2	2	4	259236	2	1	1	1	0	692	1	4	0	40	14	0	2	88
fixed	2	2	5	260707	5	3	3	1	0	1142	1	4	0	56	15	0	2	88
fixed	2	2	6	262749	6	4	4	1	0	687	1	4	0	64	16	0	2	89
fixed	2	2	7	263995	3	1	1	1	0	1187	1	4	0	40	17	0	2	89
fixed	2	2	8	266124	2	3	3	1	0	912	1	4	0	56	18	0	2	90
fixed	2	2	9	267410	3	2	2	1	0	898	1	4	0	48	19	0	2	90
fixed	2	2	10	269176	1	4	4	1	0	711	1	4	0	64	20	0	2	91
fixed	2	2	11	270262	5	2	2	1	0	977	1	4	0	48	21	0	2	91
fixed	2	2	12	271924	4	3	3	1	0	1027	1	4	0	56	22	0	2	92
fixed	2	3	1	273806	4	1	1	1	0	739	1	4	0	40	23	0	2	92
fixed	2	3	2	275138	1	2	2	1	0	971	1	4	0	48	24	0	2	92
fixed	2	3	3	276521	6	4	4	1	0	776	1	4	0	64	25	0	2	93
fixed	2	3	4	277610	2	1	1	1	0	882	1	4	0	40	26	0	2	93
fixed	2	3	5	278825	5	3	0	1	2	0	3	4	0	56	26	0	3	90
fixed	2	3	6	282127	6	4	4	1	0	706	1	4	0	64	27	0	3	90
fixed	2	3	7	283597	3	1	1	1	0	908	1	4	0	40	28	0	3	90
fixed	2	3	8	285489	2	3	3	1	0	1100	1	4	0	56	29	0	3	91
fixed	2	3	9	287524	3	2	2	1	0	750	1	4	0	48	30	0	3	91
fixed	2	3	10	288899	1	4	4	1	0	708	1	4	0	64	31	0	3	91
fixed	2	3	11	290070	5	2	2	1	0	970	1	4	0	48	32	0	3	91
fixed	2	3	12	292057	4	3	0	1	2	0	3	4	0	56	32	0	4	89
fixed	2	4	1	295827	4	1	1	1	0	774	1	4	0	40	33	0	4	89
fixed	2	4	2	297449	1	2	0	1	2	0	3	4	0	48	33	0	5	87
fixed	2	4	3	300359	6	4	4	1	0	774	1	4	0	64	34	0	5	87
fixed	2	4	4	302094	2	1	1	1	0	757	1	4	0	40	35	0	5	88
fixed	2	4	5	303420	5	3	3	1	0	829	1	4	0	56	36	0	5	88
fixed	2	4	6	304659	6	4	4	1	0	808	1	4	0	64	37	0	5	88
fixed	2	4	7	306409	3	1	1	1	0	814	1	4	0	40	38	0	5	88
fixed	2	4	8	307705	2	3	3	1	0	1383	1	4	0	56	39	0	5	89
fixed	2	4	9	309799	3	2	2	1	0	695	1	4	0	48	40	0	5	89
fixed	2	4	10	311494	1	4	4	1	0	719	1	4	0	64	41	0	5	89
fixed	2	4	11	312742	5	2	2	1	0	898	1	4	0	48	42	0	5	89
fixed	2	4	12	314473	4	3	3	1	0	1248	1	4	0	56	43	0	5	90
fixed	2	5	1	316728	4	1	1	1	0	793	1	4	0	40	44	0	5	90
fixed	2	5	2	317998	1	2	0	1	2	0	3	4	0	48	44	0	6	88
fixed	2	5	3	321114	6	4	4	1	0	687	1	4	0	64	45	0	6	88
fixed	2	5	4	322692	2	1	1	1	0	796	1	4	0	40	46	0	6	88
fixed	2	5	5	324431	5	3	3	1	0	1059	1	4	0	56	47	0	6	89
fixed	2	5	6	326436	6	4	4	1	0	710	1	4	0	64	48	0	6	89
fixed	2	5	7	327533	3	1	1	1	0	920	1	4	0	40	49	0	6	89
fixed	2	5	8	329178	2	3	3	1	0	1098	1	4	0	56	50	0	6	89
fixed	2	5	9	331290	3	2	2	1	0	713	1	4	0	48	51	0	6	89
fixed	2	5	10	332821	1	4	4	1	0	711	1	4	0	64	52	0	6	90
fixed	2	5	11	334212	5	2	2	1	0	941	1	4	0	48	53	0	6	90
fixed	2	5	12	335635	4	3	3	1	0	993	1	4	0	56	54	0	6	90
fixed	2	6	1	337178	4	1	1	1	0	767	1	4	0	40	55	0	6	90
fixed	2	6	2	338814	1	2	0	1	2	0	3	4	0	48	55	0	7	89
fixed	2	6	3	341778	6	4	4	1	0	740	1	4	0	64	56	0	7	89
fixed	2	6	4	342973	2	1	1	1	0	817	1	4	0	40	57	0	7	89
fixed	2	6	5	344490	5	3	3	1	0	2129	1	4	0	56	58	0	7	89
fixed	2	6	6	347249	6	4	4	1	0	885	1	4	0	64	59	0	7	89
fixed	2	6	7	348538	3	1	1	1	0	725	1	4	0	40	60	0	7	90
fixed	2	6	8	350249	2	3	3	1	0	1349	1	4	0	56	61	0	7	90
fixed	2	6	9	352527	3	2	2	1	0	589	1	4	0	48	62	0	7	90
fixed	2	6	10	354114	1	4	4	1	0	834	1	4	0	64	63	0	7	90
fixed	2	6	11	355649	5	2	2	1	0	905	1	4	0	48	64	0	7	90
fixed	2	6	12	357031	4	3	3	1	0	1118	1	4	0	56	65	0	7	90
fixed	2	7	1	359182	4	1	1	1	0	747	1	4	0	40	66	0	7	90
fixed	2	7	2	360338	1	2	0	1	2	0	3	4	0	48	66	0	8	89
fixed	2	7	3	363793	6	4	4	1	0	808	1	4	0	64	67	0	8	89
fixed	2	7	4	365425	2	1	1	1	0	707	1	4	0	40	68	0	8	89
fixed	2	7	5	366663	5	3	3	1	0	910	1	4	0	56	69	0	8	90
fixed	2	7	6	367894	6	4	4	1	0	730	1	4	0	64	70	0	8	90
fixed	2	7	7	369437	3	1	1	1	0	1065	1	4	0	40	71	0	8	90
fixed	2	7	8	371510	2	3	3	1	0	953	1	4	0	56	72	0	8	90
fixed	2	7	9	373337	3	2	0	1	2	0	3	4	0	48	72	0	9	89
fixed	2	7	10	376244	1	4	4	1	0	600	1	4	0	64	73	0	9	89
fixed	2	7	11	377621	5	2	2	1	0	886	1	4	0	48	74	0	9	89
fixed	2	7	12	379546	4	3	3	1	0	1636	1	4	0	56	75	0	9	89
fixed	2	8	1	381838	4	1	1	1	0	771	1	4	0	40	76	0	9	89
fixed	2	8	2	383121	1	2	2	1	0	1445	1	4	0	48	77	0	9	90
fixed	2	8	3	385217	6	4	4	1	0	572	1	4	0	64	78	0	9	90
fixed	2	8	4	386272	2	1	1	1	0	744	1	4	0	40	79	0	9	90
fixed	2	8	5	387523	5	3	3	1	0	1187	1	4	0	56	80	0	9	90
fixed	2	8	6	389353	6	4	4	1	0	813	1	4	0	64	81	0	9	90
fixed	2	8	7	390485	3	1	1	1	0	941	1	4	0	40	82	0	9	90
fixed	2	8	8	392319	2	3	3	1	0	1976	1	4	0	56	83	0	9	90
fixed	2	8	9	395268	3	2	2	1	0	762	1	4	0	48	84	0	9	90
fixed	2	8	10	396974	1	4	4	1	0	690	1	4	0	64	85	0	9	90
fixed	2	8	11	398347	5	2	2	1	0	848	1	4	0	48	86	0	9	91
fixed	2	8	12	399942	4	3	3	1	0	1037	1	4	0	56	87	0	9	91
fixed	2	9	1	401820	4	1	1	1	0	669	1	4	0	40	88	0	9	91
fixed	2	9	2	402858	1	2	2	1	0	969	1	4	0	48	89	0	9	91
fixed	2	9	3	404763	6	4	4	1	0	744	1	4	0	64	90	0	9	91
fixed	2	9	4	406411	2	1	1	1	0	747	1	4	0	40	91	0	9	91
fixed	2	9	5	407895	5	3	3	1	0	892	1	4	0	56	92	0	9	91
fixed	2	9	6	409734	6	4	4	1	0	686	1	4	0	64	93	0	9	91
fixed	2	9	7	411082	3	1	1	1	0	805	1	4	0	40	94	0	9	91
fixed	2	9	8	412325	2	3	3	1	0	1392	1	4	0	56	95	0	9	91
fixed	2	9	9	414348	3	2	2	1	0	922	1	4	0	48	96	0	9	91
fixed	2	9	10	416286	1	4	4	1	0	704	1	4	0	64	97	0	9	92
fixed	2	9	11	417707	5	2	2	1	0	1100	1	4	0	48	98	0	9	92
fixed	2	9	12	419715	4	3	3	1	0	807	1	4	0	56	99	0	9	92
fixed	2	10	1	421368	4	1	1	1	0	1273	1	4	0	40	100	0	9	92
fixed	2	10	2	423253	1	2	0	1	2	0	3	4	0	48	100	0	10	91
fixed	2	10	3	426630	6	4	4	1	0	610	1	4	0	64	101	0	10	91
fixed	2	10	4	427804	2	1	1	1	0	856	1	4	0	40	102	0	10	91
fixed	2	10	5	429646	5	3	3	1	0	835	1	4	0	56	103	0	10	91
fixed	2	10	6	430805	6	4	4	1	0	866	1	4	0	64	104	0	10	91
fixed	2	10	7	432166	3	1	1	1	0	728	1	4	0	40	105	0	10	91
fixed	2	10	8	433499	2	3	3	1	0	911	1	4	0	56	106	0	10	91
fixed	2	10	9	435062	3	2	2	1	0	845	1	4	0	48	107	0	10	91
fixed	2	10	10	436521	1	4	4	1	0	639	1	4	0	64	108	0	10	92
fixed	2	10	11	437879	5	2	2	1	0	926	1	4	0	48	109	0	10	92
fixed	2	10	12	439596	4	3	3	1	0	1013	1	4	0	56	110	0	10	92
fixed	3	1	1	441916	4	1	1	1	0	723	1	4	0	72	1	0	0	100
fixed	3	1	2	443059	1	2	2	1	0	1018	1	4	0	80	2	0	0	100
fixed	3	1	3	444786	6	4	4	1	0	794	1	4	0	96	3	0	0	100
fixed	3	1	4	446386	2	1	1	1	0	958	1	4	0	72	4	0	0	100
fixed	3	1	5	447640	5	3	3	1	0	960	1	4	0	88	5	0	0	100
fixed	3	1	6	449332	6	4	4	1	0	713	1	4	0	96	6	0	0	100
fixed	3	1	7	450500	3	1	1	1	0	848	1	4	0	72	7	0	0	100
fixed	3	1	8	452299	2	3	3	1	0	1243	1	4	0	88	8	0	0	100
fixed	3	1	9	454305	3	2	2	1	0	566	1	4	0	80	9	0	0	100
fixed	3	1	10	455473	1	4	4	1	0	885	1	4	0	96	10	0	0	100
fixed	3	1	11	457130	5	2	2	1	0	1039	1	4	0	80	11	0	0	100
fixed	3	1	12	458628	4	3	3	1	0	1055	1	4	0	88	12	0	0	100
fixed	3	2	1	460915	4	1	1	1	0	758	1	4	0	72	13	0	0	100
fixed	3	2	2	462514	1	2	0	1	2	0	3	4	0	80	13	0	1	93
fixed	3	2	3	465815	6	4	4	1	0	687	1	4	0	96	14	0	1	93
fixed	3	2	4	467477	2	1	1	1	0	737	1	4	0	72	15	0	1	94
fixed	3	2	5	469025	5	3	3	1	0	839	1	4	0	88	16	0	1	94
fixed	3	2	6	470400	6	4	4	1	0	701	1	4	0	96	17	0	1	94
fixed	3	2	7	471814	3	1	1	1	0	761	1	4	0	72	18	0	1	95
fixed	3	2	8	473210	2	3	3	1	0	1749	1	4	0	88	19	0	1	95
fixed	3	2	9	475810	3	2	2	1	0	543	1	4	0	80	20	0	1	95
fixed	3	2	10	477263	1	4	4	1	0	714	1	4	0	96	21	0	1	95
fixed	3	2	11	478551	5	2	2	1	0	979	1	4	0	80	22	0	1	96
fixed	3	2	12	480512	4	3	3	1	0	1064	1	4	0	88	23	0	1	96
fixed	3	3	1	482852	4	1	1	1	0	869	1	4	0	72	24	0	1	96
fixed	3	3	2	484391	1	2	2	1	0	1772	1	4	0	80	25	0	1	96
fixed	3	3	3	487211	6	4	4	1	0	660	1	4	0	96	26	0	1	96
fixed	3	3	4	488273	2	1	1	1	0	607	1	4	0	72	27	0	1	96
fixed	3	3	5	489595	5	3	3	1	0	976	1	4	0	88	28	0	1	97
fixed	3	3	6	491502	6	4	4	1	0	831	1	4	0	96	29	0	1	97
fixed	3	3	7	493129	3	1	1	1	0	794	1	4	0	72	30	0	1	97
fixed	3	3	8	494730	2	3	3	1	0	1070	1	4	0	88	31	0	1	97
fixed	3	3	9	496184	3	2	2	1	0	968	1	4	0	80	32	0	1	97
fixed	3	3	10	498115	1	4	4	1	0	687	1	4	0	96	33	0	1	97
fixed	3	3	11	499780	5	2	2	1	0	944	1	4	0	80	34	0	1	97
fixed	3	3	12	501154	4	3	3	1	0	1094	1	4	0	88	35	0	1	97
fixed	3	4	1	503068	4	1	1	1	0	645	1	4	0	72	36	0	1	97
fixed	3	4	2	504072	1	2	2	1	0	1042	1	4	0	80	37	0	1	97
fixed	3	4	3	505755	6	4	4	1	0	675	1	4	0	96	38	0	1	97
fixed	3	4	4	507276	2	1	1	1	0	786	1	4	0	72	39	0	1	98
fixed	3	4	5	509065	5	3	3	1	0	1062	1	4	0	88	40	0	1	98
fixed	3	4	6	511150	6	4	4	1	0	671	1	4	0	96	41	0	1	98
fixed	3	4	7	512735	3	1	1	1	0	764	1	4	0	72	42	0	1	98
fixed	3	4	8	514447	2	3	3	1	0	1139	1	4	0	88	43	0	1	98
fixed	3	4	9	515887	3	2	2	1	0	678	1	4	0	80	44	0	1	98
fixed	3	4	10	517233	1	4	4	1	0	597	1	4	0	96	45	0	1	98
fixed	3	4	11	518398	5	2	0	1	2	0	3	4	0	80	45	0	2	96
fixed	3	4	12	521682	4	3	3	1	0	1568	1	4	0	88	46	0	2	96
fixed	3	5	1	524053	4	1	1	1	0	772	1	4	0	72	47	0	2	96
fixed	3	5	2	525209	1	2	2	1	0	1339	1	4	0	80	48	0	2	96
fixed	3	5	3	527289	6	4	4	1	0	859	1	4	0	96	49	0	2	96
fixed	3	5	4	528607	2	1	1	1	0	1211	1	4	0	72	50	0	2	96
fixed	3	5	5	530270	5	3	3	1	0	916	1	4	0	88	51	0	2	96
fixed	3	5	6	531987	6	4	4	1	0	1100	1	4	0	96	52	0	2	96
fixed	3	5	7	534062	3	1	1	1	0	964	1	4	0	72	53	0	2	96
fixed	3	5	8	535391	2	3	0	1	2	0	3	4	0	88	53	0	3	95
fixed	3	5	9	538502	3	2	0	1	2	0	3	4	0	80	53	0	4	93
fixed	3	5	10	542004	1	4	4	1	0	748	1	4	0	96	54	0	4	93
fixed	3	5	11	543299	5	2	2	1	0	1077	1	4	0	80	55	0	4	93
fixed	3	5	12	544736	4	3	3	1	0	1152	1	4	0	88	56	0	4	93
fixed	3	6	1	547093	4	1	1	1	0	724	1	4	0	72	57	0	4	93
fixed	3	6	2	548194	1	2	2	1	0	1429	1	4	0	80	58	0	4	94
fixed	3	6	3	550028	6	4	4	1	0	728	1	4	0	96	59	0	4	94
fixed	3	6	4	551674	2	1	1	1	0	938	1	4	0	72	60	0	4	94
fixed	3	6	5	553513	5	3	3	1	0	996	1	4	0	88	61	0	4	94
fixed	3	6	6	555161	6	4	4	1	0	782	1	4	0	96	62	0	4	94
fixed	3	6	7	556252	3	1	1	1	0	1136	1	4	0	72	63	0	4	94
fixed	3	6	8	558391	2	3	0	1	2	0	3	4	0	88	63	0	5	93
fixed	3	6	9	561907	3	2	2	1	0	1145	1	4	0	80	64	0	5	93
fixed	3	6	10	563817	1	4	4	1	0	760	1	4	0	96	65	0	5	93
fixed	3	6	11	565311	5	2	2	1	0	1201	1	4	0	80	66	0	5	93
fixed	3	6	12	567256	4	3	3	1	0	1670	1	4	0	88	67	0	5	93
fixed	3	7	1	570049	4	1	1	1	0	712	1	4	0	72	68	0	5	93
fixed	3	7	2	571094	1	2	2	1	0	1076	1	4	0	80	69	0	5	93
fixed	3	7	3	572825	6	4	4	1	0	874	1	4	0	96	70	0	5	93
fixed	3	7	4	574101	2	1	1	1	0	956	1	4	0	72	71	0	5	93
fixed	3	7	5	575932	5	3	3	1	0	1238	1	4	0	88	72	0	5	94
fixed	3	7	6	577694	6	4	4	1	0	764	1	4	0	96	73	0	5	94
fixed	3	7	7	579021	3	1	1	1	0	852	1	4	0	72	74	0	5	94
fixed	3	7	8	580429	2	3	3	1	0	1360	1	4	0	88	75	0	5	94
fixed	3	7	9	582656	3	2	2	1	0	786	1	4	0	80	76	0	5	94
fixed	3	7	10	583973	1	4	4	1	0	770	1	4	0	96	77	0	5	94
fixed	3	7	11	585537	5	2	2	1	0	976	1	4	0	80	78	0	5	94
fixed	3	7	12	587035	4	3	3	1	0	1041	1	4	0	88	79	0	5	94
fixed	3	8	1	588979	4	1	1	1	0	718	1	4	0	72	80	0	5	94
fixed	3	8	2	590182	1	2	2	1	0	923	1	4	0	80	81	0	5	94
fixed	3	8	3	591619	6	4	4	1	0	814	1	4	0	96	82	0	5	94
fixed	3	8	4	593188	2	1	1	1	0	851	1	4	0	72	83	0	5	94
fixed	3	8	5	594442	5	3	3	1	0	918	1	4	0	88	84	0	5	94
fixed	3	8	6	595829	6	4	4	1	0	820	1	4	0	96	85	0	5	94
fixed	3	8	7	597427	3	1	1	1	0	776	1	4	0	72	86	0	5	95
fixed	3	8	8	599131	2	3	3	1	0	1240	1	4	0	88	87	0	5	95
fixed	3	8	9	601309	3	2	2	1	0	596	1	4	0	80	88	0	5	95
fixed	3	8	10	602446	1	4	4	1	0	1003	1	4	0	96	89	0	5	95
fixed	3	8	11	603776	5	2	2	1	0	1076	1	4	0	80	90	0	5	95
fixed	3	8	12	605136	4	3	3	1	0	1138	1	4	0	88	91	0	5	95
fixed	3	9	1	607491	4	1	1	1	0	702	1	4	0	72	92	0	5	95
fixed	3	9	2	609150	1	2	0	1	2	0	3	4	0	80	92	0	6	94
fixed	3	9	3	612475	6	4	4	1	0	715	1	4	0	96	93	0	6	94
fixed	3	9	4	613638	2	1	1	1	0	745	1	4	0	72	94	0	6	94
fixed	3	9	5	614911	5	3	3	1	0	1220	1	4	0	88	95	0	6	94
fixed	3	9	6	616584	6	4	4	1	0	749	1	4	0	96	96	0	6	94
fixed	3	9	7	618221	3	1	1	1	0	839	1	4	0	72	97	0	6	94
fixed	3	9	8	619847	2	3	3	1	0	1275	1	4	0	88	98	0	6	94
fixed	3	9	9	621854	3	2	2	1	0	854	1	4	0	80	99	0	6	94
fixed	3	9	10	623136	1	4	4	1	0	695	1	4	0	96	100	0	6	94
fixed	3	9	11	624449	5	2	2	1	0	943	1	4	0	80	101	0	6	94
fixed	3	9	12	625933	4	3	3	1	0	1049	1	4	0	88	102	0	6	94
fixed	3	10	1	627774	4	1	1	1	0	707	1	4	0	72	103	0	6	94
fixed	3	10	2	629103	1	2	0	1	2	0	3	4	0	80	103	0	7	94
fixed	3	10	3	632315	6	4	4	1	0	707	1	4	0	96	104	0	7	94
fixed	3	10	4	633590	2	1	1	1	0	716	1	4	0	72	105	0	7	94
fixed	3	10	5	634659	5	3	3	1	0	815	1	4	0	88	106	0	7	94
fixed	3	10	6	635841	6	4	4	1	0	685	1	4	0	96	107	0	7	94
fixed	3	10	7	637213	3	1	1	1	0	659	1	4	0	72	108	0	7	94
fixed	3	10	8	638719	2	3	3	1	0	1115	1	4	0	88	109	0	7	94
fixed	3	10	9	640156	3	2	2	1	0	750	1	4	0	80	110	0	7	94
fixed	3	10	10	641352	1	4	4	1	0	620	1	4	0	96	111	0	7	94
fixed	3	10	11	642343	5	2	2	1	0	746	1	4	0	80	112	0	7	94
fixed	3	10	12	643393	4	3	0	1	2	0	3	4	0	88	112	0	8	93
fixed	4	1	1	786695	4	1	1	1	0	808	1	4	0	104	1	0	0	100
fixed	4	1	2	787955	1	2	0	1	2	0	3	4	0	112	1	0	1	50
fixed	4	1	3	791223	6	4	4	1	0	744	1	4	0	128	2	0	1	67
fixed	4	1	4	792922	2	1	1	1	0	904	1	4	0	104	3	0	1	75
fixed	4	1	5	794178	5	3	3	1	0	899	1	4	0	120	4	0	1	80
fixed	4	1	6	796061	6	4	4	1	0	715	1	4	0	128	5	0	1	83
fixed	4	1	7	797749	3	1	1	1	0	812	1	4	0	104	6	0	1	86
fixed	4	1	8	798964	2	3	3	1	0	1120	1	4	0	120	7	0	1	88
fixed	4	1	9	800841	3	2	2	1	0	561	1	4	0	112	8	0	1	89
fixed	4	1	10	802161	1	4	4	1	0	617	1	4	0	128	9	0	1	90
fixed	4	1	11	803330	5	2	2	1	0	919	1	4	0	112	10	0	1	91
fixed	4	1	12	804620	4	3	0	1	2	0	3	4	0	120	10	0	2	83
fixed	4	2	1	808200	4	1	1	1	0	809	1	4	0	104	11	0	2	85
fixed	4	2	2	809881	1	2	0	1	2	0	3	4	0	112	11	0	3	79
fixed	4	2	3	813163	6	4	4	1	0	727	1	4	0	128	12	0	3	80
fixed	4	2	4	814557	2	1	1	1	0	724	1	4	0	104	13	0	3	81
fixed	4	2	5	815936	5	3	3	1	0	1217	1	4	0	120	14	0	3	82
fixed	4	2	6	817815	6	4	4	1	0	754	1	4	0	128	15	0	3	83
fixed	4	2	7	819421	3	1	1	1	0	782	1	4	0	104	16	0	3	84
fixed	4	2	8	820736	2	3	3	1	0	1134	1	4	0	120	17	0	3	85
fixed	4	2	9	822770	3	2	0	1	2	0	3	4	0	112	17	0	4	81
fixed	4	2	10	826136	1	4	4	1	0	681	1	4	0	128	18	0	4	82
fixed	4	2	11	827368	5	2	2	1	0	1053	1	4	0	112	19	0	4	83
fixed	4	2	12	829256	4	3	3	1	0	837	1	4	0	120	20	0	4	83
fixed	4	3	1	831207	4	1	1	1	0	746	1	4	0	104	21	0	4	84
fixed	4	3	2	832467	1	2	2	1	0	1213	1	4	0	112	22	0	4	85
fixed	4	3	3	834690	6	4	4	1	0	711	1	4	0	128	23	0	4	85
fixed	4	3	4	836389	2	1	1	1	0	775	1	4	0	104	24	0	4	86
fixed	4	3	5	837613	5	3	3	1	0	1139	1	4	0	120	25	0	4	86
fixed	4	3	6	839640	6	4	4	1	0	646	1	4	0	128	26	0	4	87
fixed	4	3	7	840701	3	1	1	1	0	760	1	4	0	104	27	0	4	87
fixed	4	3	8	841854	2	3	3	1	0	1088	1	4	0	120	28	0	4	88
fixed	4	3	9	843514	3	2	2	1	0	753	1	4	0	112	29	0	4	88
fixed	4	3	10	844571	1	4	4	1	0	764	1	4	0	128	30	0	4	88
fixed	4	3	11	846131	5	2	2	1	0	1298	1	4	0	112	31	0	4	89
fixed	4	3	12	847746	4	3	3	1	0	750	1	4	0	120	32	0	4	89
fixed	4	4	1	849284	4	1	1	1	0	773	1	4	0	104	33	0	4	89
fixed	4	4	2	850974	1	2	2	1	0	1557	1	4	0	112	34	0	4	89
fixed	4	4	3	853405	6	4	4	1	0	671	1	4	0	128	35	0	4	90
fixed	4	4	4	854771	2	1	1	1	0	741	1	4	0	104	36	0	4	90
fixed	4	4	5	856499	5	3	3	1	0	1035	1	4	0	120	37	0	4	90
fixed	4	4	6	858442	6	4	4	1	0	649	1	4	0	128	38	0	4	90
fixed	4	4	7	859554	3	1	1	1	0	794	1	4	0	104	39	0	4	91
fixed	4	4	8	861045	2	3	3	1	0	1162	1	4	0	120	40	0	4	91
fixed	4	4	9	862597	3	2	2	1	0	857	1	4	0	112	41	0	4	91
fixed	4	4	10	864159	1	4	4	1	0	655	1	4	0	128	42	0	4	91
fixed	4	4	11	865292	5	2	2	1	0	1095	1	4	0	112	43	0	4	91
fixed	4	4	12	866787	4	3	3	1	0	992	1	4	0	120	44	0	4	92
fixed	4	5	1	868381	4	1	1	1	0	676	1	4	0	104	45	0	4	92
fixed	4	5	2	869491	1	2	2	1	0	957	1	4	0	112	46	0	4	92
fixed	4	5	3	870797	6	4	4	1	0	742	1	4	0	128	47	0	4	92
fixed	4	5	4	872520	2	1	1	1	0	845	1	4	0	104	48	0	4	92
fixed	4	5	5	874057	5	3	3	1	0	892	1	4	0	120	49	0	4	92
fixed	4	5	6	875474	6	4	4	1	0	680	1	4	0	128	50	0	4	93
fixed	4	5	7	876799	3	1	1	1	0	751	1	4	0	104	51	0	4	93
fixed	4	5	8	878288	2	3	3	1	0	952	1	4	0	120	52	0	4	93
fixed	4	5	9	879848	3	2	2	1	0	806	1	4	0	112	53	0	4	93
fixed	4	5	10	881225	1	4	4	1	0	708	1	4	0	128	54	0	4	93
fixed	4	5	11	882796	5	2	2	1	0	1066	1	4	0	112	55	0	4	93
fixed	4	5	12	884265	4	3	0	1	2	0	3	4	0	120	55	0	5	92
fixed	4	6	1	887979	4	1	1	1	0	990	1	4	0	104	56	0	5	92
fixed	4	6	2	889452	1	2	2	1	0	1009	1	4	0	112	57	0	5	92
fixed	4	6	3	890920	6	4	4	1	0	1369	1	4	0	128	58	0	5	92
fixed	4	6	4	892622	2	1	1	1	0	977	1	4	0	104	59	0	5	92
fixed	4	6	5	894515	5	3	3	1	0	1257	1	4	0	120	60	0	5	92
fixed	4	6	6	896218	6	4	4	1	0	737	1	4	0	128	61	0	5	92
fixed	4	6	7	897512	3	1	1	1	0	794	1	4	0	104	62	0	5	93
fixed	4	6	8	899265	2	3	3	1	0	1056	1	4	0	120	63	0	5	93
fixed	4	6	9	901216	3	2	2	1	0	773	1	4	0	112	64	0	5	93
fixed	4	6	10	902285	1	4	4	1	0	624	1	4	0	128	65	0	5	93
fixed	4	6	11	903548	5	2	2	1	0	738	1	4	0	112	66	0	5	93
fixed	4	6	12	904721	4	3	3	1	0	849	1	4	0	120	67	0	5	93
fixed	4	7	1	906825	4	1	1	1	0	696	1	4	0	104	68	0	5	93
fixed	4	7	2	907888	1	2	2	1	0	819	1	4	0	112	69	0	5	93
fixed	4	7	3	909117	6	4	4	1	0	591	1	4	0	128	70	0	5	93
fixed	4	7	4	910067	2	1	1	1	0	886	1	4	0	104	71	0	5	93
fixed	4	7	5	911657	5	3	3	1	0	795	1	4	0	120	72	0	5	94
fixed	4	7	6	913308	6	4	4	1	0	621	1	4	0	128	73	0	5	94
fixed	4	7	7	914491	3	1	1	1	0	715	1	4	0	104	74	0	5	94
fixed	4	7	8	915484	2	3	3	1	0	1265	1	4	0	120	75	0	5	94
fixed	4	7	9	917481	3	2	2	1	0	597	1	4	0	112	76	0	5	94
fixed	4	7	10	918798	1	4	4	1	0	597	1	4	0	128	77	0	5	94
fixed	4	7	11	920290	5	2	2	2	0	1813	2	4	0	112	78	0	5	94
fixed	4	7	12	922934	4	3	3	1	0	893	1	4	0	120	79	0	5	94
fixed	4	8	1	924435	4	1	1	1	0	742	1	4	0	104	80	0	5	94
fixed	4	8	2	925748	1	2	2	2	0	1990	2	4	0	112	81	0	5	94
fixed	4	8	3	928040	6	4	4	1	0	821	1	4	0	128	82	0	5	94
fixed	4	8	4	929643	2	1	1	1	0	1162	1	4	0	104	83	0	5	94
fixed	4	8	5	931494	5	3	3	1	0	1363	1	4	0	120	84	0	5	94
fixed	4	8	6	933434	6	4	4	1	0	737	1	4	0	128	85	0	5	94
fixed	4	8	7	934683	3	1	1	1	0	788	1	4	0	104	86	0	5	95
fixed	4	8	8	935793	2	3	3	1	0	1269	1	4	0	120	87	0	5	95
fixed	4	8	9	937590	3	2	2	1	0	729	1	4	0	112	88	0	5	95
fixed	4	8	10	939162	1	4	4	1	0	606	1	4	0	128	89	0	5	95
fixed	4	8	11	940376	5	2	2	1	0	835	1	4	0	112	90	0	5	95
fixed	4	8	12	941792	4	3	3	2	0	2454	2	4	0	120	91	0	5	95
fixed	4	9	1	944835	4	1	1	1	0	742	1	4	0	104	92	0	5	95
fixed	4	9	2	946496	1	2	2	2	0	1664	2	4	0	112	93	0	5	95
fixed	4	9	3	949124	6	4	4	1	0	888	1	4	0	128	94	0	5	95
fixed	4	9	4	950871	2	1	1	1	0	854	1	4	0	104	95	0	5	95
fixed	4	9	5	952491	5	3	3	1	0	1337	1	4	0	120	96	0	5	95
fixed	4	9	6	954689	6	4	4	1	0	661	1	4	0	128	97	0	5	95
fixed	4	9	7	956204	3	1	1	1	0	764	1	4	0	104	98	0	5	95
fixed	4	9	8	957367	2	3	3	1	0	1067	1	4	0	120	99	0	5	95
fixed	4	9	9	959177	3	2	2	1	0	710	1	4	0	112	100	0	5	95
fixed	4	9	10	960452	1	4	4	1	0	729	1	4	0	128	101	0	5	95
fixed	4	9	11	961813	5	2	2	1	0	967	1	4	0	112	102	0	5	95
fixed	4	9	12	963714	4	3	3	1	0	1110	1	4	0	120	103	0	5	95
fixed	4	10	1	965970	4	1	1	1	0	679	1	4	0	104	104	0	5	95
fixed	4	10	2	967296	1	2	2	1	0	927	1	4	0	112	105	0	5	95
fixed	4	10	3	968977	6	4	4	1	0	647	1	4	0	128	106	0	5	95
fixed	4	10	4	970590	2	1	1	1	0	931	1	4	0	104	107	0	5	96
fixed	4	10	5	972300	5	3	3	1	0	1090	1	4	0	120	108	0	5	96
fixed	4	10	6	973968	6	4	4	1	0	676	1	4	0	128	109	0	5	96
fixed	4	10	7	975076	3	1	1	1	0	821	1	4	0	104	110	0	5	96
fixed	4	10	8	976474	2	3	3	1	0	962	1	4	0	120	111	0	5	96
fixed	4	10	9	978151	3	2	2	1	0	691	1	4	0	112	112	0	5	96
fixed	4	10	10	979369	1	4	4	1	0	647	1	4	0	128	113	0	5	96
fixed	4	10	11	980712	5	2	2	1	0	1582	1	4	0	112	114	0	5	96
fixed	4	10	12	983160	4	3	3	1	0	1006	1	4	0	120	115	0	5	96
fixed	5	1	1	985332	4	1	1	1	0	914	1	4	0	136	1	0	0	100
fixed	5	1	2	986876	1	2	2	1	0	1145	1	4	0	144	2	0	0	100
fixed	5	1	3	988314	6	4	4	1	0	708	1	4	0	160	3	0	0	100
fixed	5	1	4	989803	2	1	1	1	0	773	1	4	0	136	4	0	0	100
fixed	5	1	5	991271	5	3	3	1	0	815	1	4	0	152	5	0	0	100
fixed	5	1	6	992864	6	4	4	1	0	660	1	4	0	160	6	0	0	100
fixed	5	1	7	994330	3	1	1	1	0	950	1	4	0	136	7	0	0	100
fixed	5	1	8	995819	2	3	3	1	0	1023	1	4	0	152	8	0	0	100
fixed	5	1	9	997603	3	2	2	1	0	683	1	4	0	144	9	0	0	100
fixed	5	1	10	999202	1	4	4	1	0	775	1	4	0	160	10	0	0	100
fixed	5	1	11	1000362	5	2	2	1	0	1062	1	4	0	144	11	0	0	100
fixed	5	1	12	1002000	4	3	3	1	0	817	1	4	0	152	12	0	0	100
fixed	5	2	1	1003562	4	1	1	1	0	942	1	4	0	136	13	0	0	100
fixed	5	2	2	1004830	1	2	2	1	0	976	1	4	0	144	14	0	0	100
fixed	5	2	3	1006424	6	4	4	1	0	597	1	4	0	160	15	0	0	100
fixed	5	2	4	1007888	2	1	1	1	0	719	1	4	0	136	16	0	0	100
fixed	5	2	5	1009393	5	3	3	1	0	823	1	4	0	152	17	0	0	100
fixed	5	2	6	1010854	6	4	4	1	0	618	1	4	0	160	18	0	0	100
fixed	5	2	7	1012067	3	1	1	1	0	782	1	4	0	136	19	0	0	100
fixed	5	2	8	1013739	2	3	3	1	0	1151	1	4	0	152	20	0	0	100
fixed	5	2	9	1015823	3	2	2	1	0	743	1	4	0	144	21	0	0	100
fixed	5	2	10	1017356	1	4	4	1	0	646	1	4	0	160	22	0	0	100
fixed	5	2	11	1018854	5	2	2	1	0	1255	1	4	0	144	23	0	0	100
fixed	5	2	12	1020950	4	3	3	1	0	806	1	4	0	152	24	0	0	100
fixed	5	3	1	1022893	4	1	1	1	0	659	1	4	0	136	25	0	0	100
fixed	5	3	2	1024525	1	2	2	1	0	1047	1	4	0	144	26	0	0	100
fixed	5	3	3	1025924	6	4	4	1	0	923	1	4	0	160	27	0	0	100
fixed	5	3	4	1027806	2	1	1	1	0	779	1	4	0	136	28	0	0	100
fixed	5	3	5	1028914	5	3	3	1	0	837	1	4	0	152	29	0	0	100
fixed	5	3	6	1030415	6	4	4	1	0	581	1	4	0	160	30	0	0	100
fixed	5	3	7	1031428	3	1	1	1	0	746	1	4	0	136	31	0	0	100
fixed	5	3	8	1033067	2	3	3	1	0	1037	1	4	0	152	32	0	0	100
fixed	5	3	9	1034714	3	2	2	1	0	831	1	4	0	144	33	0	0	100
fixed	5	3	10	1036409	1	4	4	1	0	679	1	4	0	160	34	0	0	100
fixed	5	3	11	1038007	5	2	2	1	0	1244	1	4	0	144	35	0	0	100
fixed	5	3	12	1039995	4	3	3	1	0	912	1	4	0	152	36	0	0	100
fixed	5	4	1	1042124	4	1	1	1	0	693	1	4	0	136	37	0	0	100
fixed	5	4	2	1043251	1	2	2	1	0	1038	1	4	0	144	38	0	0	100
fixed	5	4	3	1044820	6	4	4	1	0	683	1	4	0	160	39	0	0	100
fixed	5	4	4	1045894	2	1	1	1	0	886	1	4	0	136	40	0	0	100
fixed	5	4	5	1047327	5	3	3	1	0	953	1	4	0	152	41	0	0	100
fixed	5	4	6	1049186	6	4	4	1	0	666	1	4	0	160	42	0	0	100
fixed	5	4	7	1050575	3	1	1	1	0	840	1	4	0	136	43	0	0	100
fixed	5	4	8	1052416	2	3	3	1	0	961	1	4	0	152	44	0	0	100
fixed	5	4	9	1054282	3	2	2	1	0	642	1	4	0	144	45	0	0	100
fixed	5	4	10	1055597	1	4	4	1	0	643	1	4	0	160	46	0	0	100
fixed	5	4	11	1057099	5	2	2	1	0	851	1	4	0	144	47	0	0	100
fixed	5	4	12	1058716	4	3	3	1	0	1078	1	4	0	152	48	0	0	100
fixed	5	5	1	1060803	4	1	1	1	0	630	1	4	0	136	49	0	0	100
fixed	5	5	2	1061850	1	2	2	2	0	2402	2	4	0	144	50	0	0	100
fixed	5	5	3	1065069	6	4	4	1	0	785	1	4	0	160	51	0	0	100
fixed	5	5	4	1066751	2	1	1	1	0	866	1	4	0	136	52	0	0	100
fixed	5	5	5	1067970	5	3	3	2	0	1694	2	4	0	152	53	0	0	100
fixed	5	5	6	1070641	6	4	4	1	0	781	1	4	0	160	54	0	0	100
fixed	5	5	7	1072378	3	1	1	1	0	764	1	4	0	136	55	0	0	100
fixed	5	5	8	1074128	2	3	3	1	0	1306	1	4	0	152	56	0	0	100
fixed	5	5	9	1076410	3	2	2	1	0	865	1	4	0	144	57	0	0	100
fixed	5	5	10	1078175	1	4	4	1	0	671	1	4	0	160	58	0	0	100
fixed	5	5	11	1079288	5	2	2	1	0	911	1	4	0	144	59	0	0	100
fixed	5	5	12	1080843	4	3	3	1	0	1109	1	4	0	152	60	0	0	100
fixed	5	6	1	1083124	4	1	1	1	0	700	1	4	0	136	61	0	0	100
fixed	5	6	2	1084309	1	2	2	1	0	866	1	4	0	144	62	0	0	100
fixed	5	6	3	1085642	6	4	4	1	0	602	1	4	0	160	63	0	0	100
fixed	5	6	4	1086807	2	1	1	1	0	881	1	4	0	136	64	0	0	100
fixed	5	6	5	1088254	5	3	3	1	0	883	1	4	0	152	65	0	0	100
fixed	5	6	6	1089541	6	4	4	1	0	629	1	4	0	160	66	0	0	100
fixed	5	6	7	1090998	3	1	1	1	0	735	1	4	0	136	67	0	0	100
fixed	5	6	8	1092376	2	3	3	1	0	1013	1	4	0	152	68	0	0	100
fixed	5	6	9	1093779	3	2	2	1	0	690	1	4	0	144	69	0	0	100
fixed	5	6	10	1095129	1	4	4	1	0	632	1	4	0	160	70	0	0	100
fixed	5	6	11	1096661	5	2	2	1	0	823	1	4	0	144	71	0	0	100
fixed	5	6	12	1098266	4	3	0	1	2	0	3	4	0	152	71	0	1	99
fixed	5	7	1	1101837	4	1	1	1	0	740	1	4	0	136	72	0	1	99
fixed	5	7	2	1103565	1	2	2	1	0	1019	1	4	0	144	73	0	1	99
fixed	5	7	3	1104960	6	4	4	1	0	831	1	4	0	160	74	0	1	99
fixed	5	7	4	1106241	2	1	1	1	0	810	1	4	0	136	75	0	1	99
fixed	5	7	5	1107493	5	3	3	1	0	789	1	4	0	152	76	0	1	99
fixed	5	7	6	1109002	6	4	4	1	0	724	1	4	0	160	77	0	1	99
fixed	5	7	7	1110651	3	1	1	1	0	703	1	4	0	136	78	0	1	99
fixed	5	7	8	1111790	2	3	3	1	0	895	1	4	0	152	79	0	1	99
fixed	5	7	9	1113168	3	2	2	1	0	732	1	4	0	144	80	0	1	99
fixed	5	7	10	1114674	1	4	4	1	0	860	1	4	0	160	81	0	1	99
fixed	5	7	11	1116298	5	2	2	1	0	856	1	4	0	144	82	0	1	99
fixed	5	7	12	1117752	4	3	3	1	0	1778	1	4	0	152	83	0	1	99
fixed	5	8	1	1120550	4	1	1	1	0	667	1	4	0	136	84	0	1	99
fixed	5	8	2	1122218	1	2	2	1	0	973	1	4	0	144	85	0	1	99
fixed	5	8	3	1123687	6	4	4	1	0	1103	1	4	0	160	86	0	1	99
fixed	5	8	4	1125818	2	1	1	1	0	724	1	4	0	136	87	0	1	99
fixed	5	8	5	1126858	5	3	3	1	0	705	1	4	0	152	88	0	1	99
fixed	5	8	6	1127860	6	4	4	1	0	694	1	4	0	160	89	0	1	99
fixed	5	8	7	1129483	3	1	1	1	0	697	1	4	0	136	90	0	1	99
fixed	5	8	8	1131004	2	3	3	1	0	865	1	4	0	152	91	0	1	99
fixed	5	8	9	1132259	3	2	2	1	0	699	1	4	0	144	92	0	1	99
fixed	5	8	10	1133450	1	4	4	1	0	657	1	4	0	160	93	0	1	99
fixed	5	8	11	1134955	5	2	2	1	0	889	1	4	0	144	94	0	1	99
fixed	5	8	12	1136804	4	3	0	1	2	0	3	4	0	152	94	0	2	98
fixed	5	9	1	1140148	4	1	1	1	0	797	1	4	0	136	95	0	2	98
fixed	5	9	2	1141409	1	2	0	2	2	0	3	4	0	144	95	0	3	97
fixed	5	9	3	1144770	6	4	4	1	0	1490	1	4	0	160	96	0	3	97
fixed	5	9	4	1146555	2	1	1	1	0	870	1	4	0	136	97	0	3	97
fixed	5	9	5	1148179	5	3	3	1	0	1834	1	4	0	152	98	0	3	97
fixed	5	9	6	1150832	6	4	4	1	0	817	1	4	0	160	99	0	3	97
fixed	5	9	7	1152291	3	1	1	1	0	803	1	4	0	136	100	0	3	97
fixed	5	9	8	1154012	2	3	3	1	0	1066	1	4	0	152	101	0	3	97
fixed	5	9	9	1155976	3	2	2	1	0	767	1	4	0	144	102	0	3	97
fixed	5	9	10	1157639	1	4	4	1	0	688	1	4	0	160	103	0	3	97
fixed	5	9	11	1158874	5	2	2	1	0	1916	1	4	0	144	104	0	3	97
fixed	5	9	12	1161390	4	3	3	1	0	1482	1	4	0	152	105	0	3	97
fixed	5	10	1	1163672	4	1	1	1	0	1289	1	4	0	136	106	0	3	97
fixed	5	10	2	1165974	1	2	0	1	2	0	3	4	0	144	106	0	4	96
fixed	5	10	3	1169362	6	4	4	1	0	992	1	4	0	160	107	0	4	96
fixed	5	10	4	1170819	2	1	1	1	0	819	1	4	0	136	108	0	4	96
fixed	5	10	5	1172525	5	3	3	1	0	930	1	4	0	152	109	0	4	96
fixed	5	10	6	1174458	6	4	4	1	0	712	1	4	0	160	110	0	4	96
fixed	5	10	7	1175647	3	1	1	1	0	1022	1	4	0	136	111	0	4	97
fixed	5	10	8	1177022	2	3	3	1	0	1035	1	4	0	152	112	0	4	97
fixed	5	10	9	1178896	3	2	2	1	0	740	1	4	0	144	113	0	4	97
fixed	5	10	10	1180230	1	4	4	1	0	644	1	4	0	160	114	0	4	97
fixed	5	10	11	1181713	5	2	2	1	0	909	1	4	0	144	115	0	4	97
fixed	5	10	12	1182909	4	3	3	1	0	722	1	4	0	152	116	0	4	97
random	6	1	1	1339434	6	1	1	1	0	1052	1	4	0	168	1	0	0	100
random	6	1	2	1341213	4	4	4	1	0	713	1	4	0	192	2	0	0	100
random	6	1	3	1342297	2	2	2	1	0	1051	1	4	0	176	3	0	0	100
random	6	1	4	1344247	3	3	3	1	0	681	1	4	0	184	4	0	0	100
random	6	1	5	1345845	5	2	2	1	0	877	1	4	0	176	5	0	0	100
random	6	1	6	1347389	1	4	4	1	0	684	1	4	0	192	6	0	0	100
random	6	1	7	1348451	6	1	1	1	0	815	1	4	0	168	7	0	0	100
random	6	1	8	1349647	2	3	3	1	0	756	1	4	0	184	8	0	0	100
random	6	1	9	1351211	4	2	2	1	0	770	1	4	0	176	9	0	0	100
random	6	1	10	1352679	1	1	1	1	0	780	1	4	0	168	10	0	0	100
random	6	1	11	1354378	5	4	4	1	0	716	1	4	0	192	11	0	0	100
random	6	1	12	1355735	3	3	3	1	0	834	1	4	0	184	12	0	0	100
random	6	1	13	1357614	5	2	0	1	2	0	3	4	0	176	12	0	1	92
random	6	1	14	1360581	1	4	4	1	0	741	1	4	0	192	13	0	1	93
random	6	1	15	1361807	3	1	1	1	0	793	1	4	0	168	14	0	1	93
random	6	1	16	1362920	4	3	3	1	0	922	1	4	0	184	15	0	1	94
random	6	1	17	1364183	6	4	4	1	0	788	1	4	0	192	16	0	1	94
random	6	1	18	1365977	2	1	1	1	0	793	1	4	0	168	17	0	1	94
random	6	1	19	1367502	5	3	3	1	0	840	1	4	0	184	18	0	1	95
random	6	1	20	1368637	2	2	2	1	0	720	1	4	0	176	19	0	1	95
random	6	1	21	1369708	3	3	3	1	0	994	1	4	0	184	20	0	1	95
random	6	1	22	1371033	6	1	1	1	0	754	1	4	0	168	21	0	1	95
random	6	1	23	1372501	4	2	2	2	0	1516	2	4	0	176	22	0	1	96
random	6	1	24	1375029	1	4	4	1	0	705	1	4	0	192	23	0	1	96
random	6	1	25	1376694	4	3	3	1	0	1274	1	4	0	184	24	0	1	96
random	6	1	26	1378752	2	1	1	1	0	739	1	4	0	168	25	0	1	96
random	6	1	27	1380172	5	2	2	2	0	1239	2	4	0	176	26	0	1	96
random	6	1	28	1381983	6	4	4	1	0	715	1	4	0	192	27	0	1	96
random	6	1	29	1383677	1	3	3	1	0	891	1	4	0	184	28	0	1	97
random	6	1	30	1385223	5	2	2	1	0	937	1	4	0	176	29	0	1	97
random	6	1	31	1386831	2	1	1	1	0	726	1	4	0	168	30	0	1	97
random	6	1	32	1388527	3	3	3	1	0	1301	1	4	0	184	31	0	1	97
random	6	1	33	1390199	6	4	4	1	0	711	1	4	0	192	32	0	1	97
random	6	1	34	1391439	4	2	2	1	0	866	1	4	0	176	33	0	1	97
random	6	1	35	1393328	3	4	4	1	0	722	1	4	0	192	34	0	1	97
random	6	1	36	1394958	1	1	1	1	0	821	1	4	0	168	35	0	1	97
random	6	1	37	1396994	3	4	4	1	0	967	1	4	0	192	36	0	1	97
random	6	1	38	1398611	5	3	3	1	0	979	1	4	0	184	37	0	1	97
random	6	1	39	1400499	6	1	1	1	0	787	1	4	0	168	38	0	1	97
random	6	1	40	1402313	1	2	2	1	0	910	1	4	0	176	39	0	1	98
random	6	1	41	1403986	2	3	3	1	0	919	1	4	0	184	40	0	1	98
random	6	1	42	1405397	4	4	4	1	0	643	1	4	0	192	41	0	1	98
random	6	1	43	1406895	1	2	2	1	0	1156	1	4	0	176	42	0	1	98
random	6	1	44	1408910	6	3	3	1	0	1438	1	4	0	184	43	0	1	98
random	6	1	45	1411393	3	1	1	1	0	893	1	4	0	168	44	0	1	98
random	6	1	46	1413055	4	4	4	1	0	703	1	4	0	192	45	0	1	98
random	6	1	47	1414468	2	2	2	1	0	802	1	4	0	176	46	0	1	98
random	6	1	48	1415656	5	1	1	1	0	888	1	4	0	168	47	0	1	98
random	6	1	49	1417211	2	3	3	1	0	1158	1	4	0	184	48	0	1	98
random	6	1	50	1418719	3	1	1	1	0	895	1	4	0	168	49	0	1	98
random	6	1	51	1419953	1	4	4	1	0	634	1	4	0	192	50	0	1	98
random	6	1	52	1420998	5	3	3	1	0	886	1	4	0	184	51	0	1	98
random	6	1	53	1422768	3	2	2	1	0	851	1	4	0	176	52	0	1	98
random	6	1	54	1424517	6	4	4	1	0	609	1	4	0	192	53	0	1	98
random	6	1	55	1426027	4	2	2	1	0	889	1	4	0	176	54	0	1	98
random	6	1	56	1427321	1	1	1	1	0	786	1	4	0	168	55	0	1	98
random	6	1	57	1429003	5	4	4	1	0	723	1	4	0	192	56	0	1	98
random	6	1	58	1430012	2	1	1	1	0	928	1	4	0	168	57	0	1	98
random	6	1	59	1431271	6	2	2	1	0	1051	1	4	0	176	58	0	1	98
random	6	1	60	1433009	4	3	3	1	0	650	1	4	0	184	59	0	1	98
random	6	1	61	1434236	1	2	2	1	0	885	1	4	0	176	60	0	1	98
random	6	1	62	1435639	6	4	4	1	0	626	1	4	0	192	61	0	1	98
random	6	1	63	1437158	4	1	1	1	0	737	1	4	0	168	62	0	1	98
random	6	1	64	1438840	2	2	2	1	0	907	1	4	0	176	63	0	1	98
random	6	1	65	1440181	4	3	3	1	0	1217	1	4	0	184	64	0	1	98
random	6	1	66	1441858	3	1	1	1	0	683	1	4	0	168	65	0	1	98
random	6	1	67	1443111	1	3	3	1	0	869	1	4	0	184	66	0	1	99
random	6	1	68	1444657	5	4	4	1	0	660	1	4	0	192	67	0	1	99
random	6	1	69	1446281	2	2	2	1	0	823	1	4	0	176	68	0	1	99
random	6	1	70	1447553	3	1	1	1	0	729	1	4	0	168	69	0	1	99
random	6	1	71	1448689	5	4	4	1	0	633	1	4	0	192	70	0	1	99
random	6	1	72	1450126	6	3	3	1	0	772	1	4	0	184	71	0	1	99
random	6	1	73	1451478	2	1	1	1	0	1027	1	4	0	168	72	0	1	99
random	6	1	74	1453263	5	3	3	1	0	903	1	4	0	184	73	0	1	99
random	6	1	75	1454798	1	4	4	1	0	599	1	4	0	192	74	0	1	99
random	6	1	76	1456262	6	2	2	1	0	777	1	4	0	176	75	0	1	99
random	6	1	77	1457407	2	1	1	1	0	880	1	4	0	168	76	0	1	99
random	6	1	78	1459058	4	4	4	1	0	746	1	4	0	192	77	0	1	99
random	6	1	79	1460272	3	2	2	1	0	711	1	4	0	176	78	0	1	99
random	6	1	80	1461741	4	3	3	1	0	1176	1	4	0	184	79	0	1	99
random	6	1	81	1463242	1	4	4	1	0	665	1	4	0	192	80	0	1	99
random	6	1	82	1464461	5	1	1	1	0	773	1	4	0	168	81	0	1	99
random	6	1	83	1465993	3	2	2	1	0	789	1	4	0	176	82	0	1	99
random	6	1	84	1467342	6	3	3	1	0	675	1	4	0	184	83	0	1	99
random	6	1	85	1468987	3	2	2	1	0	1029	1	4	0	176	84	0	1	99
random	6	1	86	1471024	1	3	3	1	0	783	1	4	0	184	85	0	1	99
random	6	1	87	1472790	4	4	4	1	0	725	1	4	0	192	86	0	1	99
random	6	1	88	1474470	2	1	1	1	0	781	1	4	0	168	87	0	1	99
random	6	1	89	1475660	6	4	4	1	0	731	1	4	0	192	88	0	1	99
random	6	1	90	1476816	3	3	3	2	0	834	2	4	0	184	89	0	1	99
random	6	1	91	1478169	5	4	4	1	0	697	1	4	0	192	90	0	1	99
random	6	1	92	1479156	1	2	2	1	0	1471	1	4	0	176	91	0	1	99
random	6	1	93	1481005	5	1	1	1	0	913	1	4	0	168	92	0	1	99
random	6	1	94	1482271	4	3	3	1	0	1155	1	4	0	184	93	0	1	99
random	6	1	95	1484026	6	1	1	1	0	896	1	4	0	168	94	0	1	99
random	6	1	96	1485592	2	2	2	1	0	1143	1	4	0	176	95	0	1	99
random	6	1	97	1487934	4	3	3	1	0	1187	1	4	0	184	96	0	1	99
random	6	1	98	1490003	3	2	2	1	0	771	1	4	0	176	97	0	1	99
random	6	1	99	1491152	6	3	3	1	0	1035	1	4	0	184	98	0	1	99
random	6	1	100	1492972	1	4	4	1	0	814	1	4	0	192	99	0	1	99
random	6	1	101	1494331	4	1	1	1	0	876	1	4	0	168	100	0	1	99
random	6	1	102	1496194	5	2	2	1	0	1125	1	4	0	176	101	0	1	99
random	6	1	103	1498034	2	4	4	1	0	831	1	4	0	192	102	0	1	99
random	6	1	104	1499364	3	1	1	1	0	871	1	4	0	168	103	0	1	99
random	6	1	105	1500640	1	3	3	1	0	1105	1	4	0	184	104	0	1	99
random	6	1	106	1502049	2	2	2	1	0	997	1	4	0	176	105	0	1	99
random	6	1	107	1503518	5	4	4	1	0	783	1	4	0	192	106	0	1	99
random	6	1	108	1505063	6	1	1	1	0	814	1	4	0	168	107	0	1	99
random	6	1	109	1506580	5	4	4	1	0	797	1	4	0	192	108	0	1	99
random	6	1	110	1507919	6	3	3	1	0	956	1	4	0	184	109	0	1	99
random	6	1	111	1509359	2	2	2	1	0	888	1	4	0	176	110	0	1	99
random	6	1	112	1510882	3	1	1	1	0	687	1	4	0	168	111	0	1	99
random	6	1	113	1512292	1	2	2	1	0	731	1	4	0	176	112	0	1	99
random	6	1	114	1513365	2	3	3	1	0	1006	1	4	0	184	113	0	1	99
random	6	1	115	1515172	3	1	1	1	0	737	1	4	0	168	114	0	1	99
random	6	1	116	1516771	4	4	4	1	0	669	1	4	0	192	115	0	1	99
random	6	1	117	1517801	6	1	1	1	0	1050	1	4	0	168	116	0	1	99
random	6	1	118	1519287	5	3	3	1	0	1099	1	4	0	184	117	0	1	99
random	6	1	119	1521206	1	4	4	1	0	690	1	4	0	192	118	0	1	99
random	6	1	120	1522246	4	2	2	1	0	966	1	4	0	176	119	0	1	99
fixed	7	1	1	1524505	4	1	1	1	0	934	1	4	0	200	1	0	0	100
fixed	7	1	2	1526153	1	2	2	1	0	1128	1	4	0	208	2	0	0	100
fixed	7	1	3	1528101	6	4	4	1	0	942	1	4	0	224	3	0	0	100
fixed	7	1	4	1529875	2	1	1	1	0	763	1	4	0	200	4	0	0	100
fixed	7	1	5	1531495	5	3	3	1	0	1054	1	4	0	216	5	0	0	100
fixed	7	1	6	1533563	6	4	4	1	0	614	1	4	0	224	6	0	0	100
fixed	7	1	7	1534690	3	1	1	1	0	879	1	4	0	200	7	0	0	100
fixed	7	1	8	1536033	2	3	3	2	0	862	2	4	0	216	8	0	0	100
fixed	7	1	9	1537286	3	2	2	1	0	1024	1	4	0	208	9	0	0	100
fixed	7	1	10	1539131	1	4	4	1	0	699	1	4	0	224	10	0	0	100
fixed	7	1	11	1540784	5	2	2	1	0	1149	1	4	0	208	11	0	0	100
fixed	7	1	12	1542750	4	3	3	1	0	1033	1	4	0	216	12	0	0	100
fixed	7	2	1	1544423	4	1	1	1	0	698	1	4	0	200	1	0	0	8
fixed	7	2	2	1546016	1	2	2	1	0	1055	1	4	0	208	2	0	0	14
fixed	7	2	3	1548101	6	4	4	1	0	767	1	4	0	224	3	0	0	20
fixed	7	2	4	1549387	2	1	1	1	0	1000	1	4	0	200	4	0	0	25
fixed	7	2	5	1551127	5	3	3	1	0	815	1	4	0	216	5	0	0	29
fixed	7	2	6	1552720	6	4	4	1	0	691	1	4	0	224	6	0	0	33
fixed	7	2	7	1554108	3	1	1	1	0	761	1	4	0	200	7	0	0	37
fixed	7	2	8	1555752	2	3	3	1	0	1002	1	4	0	216	8	0	0	40
fixed	7	2	9	1557314	3	2	2	1	0	705	1	4	0	208	9	0	0	43
fixed	7	2	10	1558499	1	4	4	1	0	630	1	4	0	224	10	0	0	45
fixed	7	2	11	1560049	5	2	2	1	0	765	1	4	0	208	11	0	0	48
fixed	7	2	12	1561291	4	3	3	1	0	800	1	4	0	216	12	0	0	50
fixed	7	3	1	1562951	4	1	1	1	0	746	1	4	0	200	1	0	0	4
fixed	7	3	2	1564428	1	2	2	1	0	931	1	4	0	208	2	0	0	8
fixed	7	3	3	1565727	6	4	4	1	0	756	1	4	0	224	3	0	0	11
fixed	7	3	4	1567004	2	1	1	1	0	830	1	4	0	200	4	0	0	14
fixed	7	3	5	1568788	5	3	3	1	0	819	1	4	0	216	5	0	0	17
fixed	7	3	6	1570164	6	4	4	1	0	697	1	4	0	224	6	0	0	20
fixed	7	3	7	1571742	3	1	1	1	0	757	1	4	0	200	7	0	0	23
fixed	7	3	8	1573300	2	3	3	1	0	787	1	4	0	216	8	0	0	25
fixed	7	3	9	1575129	3	2	2	1	0	678	1	4	0	208	9	0	0	27
fixed	7	3	10	1576217	1	4	4	1	0	648	1	4	0	224	10	0	0	29
fixed	7	3	11	1577835	5	2	2	1	0	1043	1	4	0	208	11	0	0	31
fixed	7	3	12	1579612	4	3	3	1	0	888	1	4	0	216	12	0	0	33
fixed	7	4	1	1581631	4	1	1	1	0	658	1	4	0	200	1	0	0	3
fixed	7	4	2	1583239	1	2	2	1	0	1078	1	4	0	208	2	0	0	5
fixed	7	4	3	1585272	6	4	4	1	0	640	1	4	0	224	3	0	0	8
fixed	7	4	4	1586572	2	1	1	1	0	698	1	4	0	200	4	0	0	10
fixed	7	4	5	1587942	5	3	3	1	0	728	1	4	0	216	5	0	0	12
fixed	7	4	6	1589159	6	4	4	1	0	620	1	4	0	224	6	0	0	14
fixed	7	4	7	1590199	3	1	1	1	0	711	1	4	0	200	7	0	0	16
fixed	7	4	8	1591922	2	3	3	1	0	846	1	4	0	216	8	0	0	18
fixed	7	4	9	1593467	3	2	2	1	0	1053	1	4	0	208	9	0	0	20
fixed	7	4	10	1595461	1	4	4	1	0	737	1	4	0	224	10	0	0	22
fixed	7	4	11	1596918	5	2	2	1	0	1227	1	4	0	208	11	0	0	23
fixed	7	4	12	1598619	4	3	3	1	0	915	1	4	0	216	12	0	0	25
fixed	7	5	1	1600393	4	1	1	1	0	648	1	4	0	200	1	0	0	2
fixed	7	5	2	1601955	1	2	2	1	0	998	1	4	0	208	2	0	0	4
fixed	7	5	3	1603446	6	4	4	1	0	655	1	4	0	224	3	0	0	6
fixed	7	5	4	1604828	2	1	1	1	0	1180	1	4	0	200	4	0	0	8
fixed	7	5	5	1606751	5	3	3	1	0	811	1	4	0	216	5	0	0	9
fixed	7	5	6	1608058	6	4	4	1	0	636	1	4	0	224	6	0	0	11
fixed	7	5	7	1609401	3	1	1	1	0	890	1	4	0	200	7	0	0	13
fixed	7	5	8	1610765	2	3	3	1	0	1009	1	4	0	216	8	0	0	14
fixed	7	5	9	1612772	3	2	2	1	0	707	1	4	0	208	9	0	0	16
fixed	7	5	10	1613878	1	4	4	1	0	677	1	4	0	224	10	0	0	17
fixed	7	5	11	1615208	5	2	2	1	0	845	1	4	0	208	11	0	0	19
fixed	7	5	12	1616808	4	3	3	1	0	945	1	4	0	216	12	0	0	20
fixed	7	6	1	1618688	4	1	1	1	0	697	1	4	0	200	1	0	0	2
fixed	7	6	2	1619985	1	2	2	1	0	954	1	4	0	208	2	0	0	3
fixed	7	6	3	1621356	6	4	4	1	0	712	1	4	0	224	3	0	0	5
fixed	7	6	4	1622612	2	1	1	1	0	674	1	4	0	200	4	0	0	6
fixed	7	6	5	1623819	5	3	3	1	0	968	1	4	0	216	5	0	0	8
fixed	7	6	6	1625653	6	4	4	1	0	714	1	4	0	224	6	0	0	9
fixed	7	6	7	1626920	3	1	1	1	0	861	1	4	0	200	7	0	0	10
fixed	7	6	8	1628080	2	3	3	1	0	955	1	4	0	216	8	0	0	12
fixed	7	6	9	1629864	3	2	2	1	0	767	1	4	0	208	9	0	0	13
fixed	7	6	10	1631080	1	4	4	1	0	644	1	4	0	224	10	0	0	14
fixed	7	6	11	1632439	5	2	2	1	0	762	1	4	0	208	11	0	0	15
fixed	7	6	12	1633809	4	3	3	1	0	1240	1	4	0	216	12	0	0	17
fixed	7	7	1	1635813	4	1	1	1	0	739	1	4	0	200	1	0	0	1
fixed	7	7	2	1637499	1	2	2	1	0	1068	1	4	0	208	2	0	0	3
fixed	7	7	3	1639298	6	4	4	1	0	664	1	4	0	224	3	0	0	4
fixed	7	7	4	1640410	2	1	1	1	0	737	1	4	0	200	4	0	0	5
fixed	7	7	5	1641573	5	3	3	1	0	728	1	4	0	216	5	0	0	6
fixed	7	7	6	1643187	6	4	4	1	0	675	1	4	0	224	6	0	0	8
fixed	7	7	7	1644794	3	1	1	1	0	783	1	4	0	200	7	0	0	9
fixed	7	7	8	1645949	2	3	3	1	0	767	1	4	0	216	8	0	0	10
fixed	7	7	9	1647358	3	2	2	1	0	850	1	4	0	208	9	0	0	11
fixed	7	7	10	1648643	1	4	4	1	0	676	1	4	0	224	10	0	0	12
fixed	7	7	11	1650115	5	2	2	1	0	862	1	4	0	208	11	0	0	13
fixed	7	7	12	1651899	4	3	3	1	0	819	1	4	0	216	12	0	0	14
fixed	7	8	1	1653574	4	1	1	1	0	691	1	4	0	200	1	0	0	1
fixed	7	8	2	1655060	1	2	2	1	0	1108	1	4	0	208	2	0	0	2
fixed	7	8	3	1657103	6	4	4	1	0	886	1	4	0	224	3	0	0	3
fixed	7	8	4	1658878	2	1	1	1	0	723	1	4	0	200	4	0	0	5
fixed	7	8	5	1660344	5	3	3	1	0	981	1	4	0	216	5	0	0	6
fixed	7	8	6	1661987	6	4	4	1	0	687	1	4	0	224	6	0	0	7
fixed	7	8	7	1663001	3	1	1	1	0	772	1	4	0	200	7	0	0	8
fixed	7	8	8	1664509	2	3	3	1	0	868	1	4	0	216	8	0	0	9
fixed	7	8	9	1666320	3	2	2	1	0	759	1	4	0	208	9	0	0	10
fixed	7	8	10	1667483	1	4	4	1	0	774	1	4	0	224	10	0	0	11
fixed	7	8	11	1669242	5	2	2	1	0	868	1	4	0	208	11	0	0	12
fixed	7	8	12	1671002	4	3	3	1	0	777	1	4	0	216	12	0	0	13
fixed	7	9	1	1672988	4	1	1	1	0	677	1	4	0	200	1	0	0	1
fixed	7	9	2	1674506	1	2	2	1	0	933	1	4	0	208	2	0	0	2
fixed	7	9	3	1676225	6	4	4	1	0	668	1	4	0	224	3	0	0	3
fixed	7	9	4	1677526	2	1	1	1	0	693	1	4	0	200	4	0	0	4
fixed	7	9	5	1678508	5	3	3	1	0	675	1	4	0	216	5	0	0	5
fixed	7	9	6	1680079	6	4	4	1	0	665	1	4	0	224	6	0	0	6
fixed	7	9	7	1681306	3	1	1	1	0	981	1	4	0	200	7	0	0	7
fixed	7	9	8	1683215	2	3	3	2	0	1940	2	4	0	216	8	0	0	8
fixed	7	9	9	1685455	3	2	2	1	0	869	1	4	0	208	9	0	0	9
fixed	7	9	10	1686819	1	4	4	1	0	611	1	4	0	224	10	0	0	9
fixed	7	9	11	1688357	5	2	2	1	0	786	1	4	0	208	11	0	0	10
fixed	7	9	12	1689706	4	3	3	1	0	729	1	4	0	216	12	0	0	11
fixed	7	10	1	1690999	4	1	1	1	0	626	1	4	0	200	1	0	0	1
fixed	7	10	2	1692463	1	2	2	1	0	853	1	4	0	208	2	0	0	2
fixed	7	10	3	1694025	6	4	4	1	0	666	1	4	0	224	3	0	0	3
fixed	7	10	4	1695646	2	1	1	1	0	701	1	4	0	200	4	0	0	4
fixed	7	10	5	1696700	5	3	3	1	0	817	1	4	0	216	5	0	0	4
fixed	7	10	6	1698315	6	4	4	1	0	636	1	4	0	224	6	0	0	5
fixed	7	10	7	1699918	3	1	1	1	0	800	1	4	0	200	7	0	0	6
fixed	7	10	8	1701085	2	3	3	1	0	1047	1	4	0	216	8	0	0	7
fixed	7	10	9	1703032	3	2	2	1	0	725	1	4	0	208	9	0	0	8
fixed	7	10	10	1704305	1	4	4	1	0	591	1	4	0	224	10	0	0	8
fixed	7	10	11	1705195	5	2	2	1	0	1153	1	4	0	208	11	0	0	9
fixed	7	10	12	1706867	4	3	3	1	0	1283	1	4	0	216	12	0	0	10
