type	block	sequ.	trial	time	Pos.	Color	Button	NumRsp	Resp_1	RT_1	R_Code	Resp_2	RT_2	Trigg.	n_hit	n_inc	n_miss	score_%

random	1	1	1	2801	6	1	1	1	0	997	1	4	0	8	1	0	0	100
random	1	1	2	4246	4	4	4	1	0	640	1	4	0	32	2	0	0	100
random	1	1	3	5815	2	2	2	1	0	886	1	4	0	16	3	0	0	100
random	1	1	4	7130	3	3	3	1	0	526	1	4	0	24	4	0	0	100
random	1	1	5	8274	5	2	2	1	0	1030	1	4	0	16	5	0	0	100
random	1	1	6	10146	1	4	4	1	0	711	1	4	0	32	6	0	0	100
random	1	1	7	11200	6	1	1	1	0	866	1	4	0	8	7	0	0	100
random	1	1	8	12645	2	3	3	1	0	837	1	4	0	24	8	0	0	100
random	1	1	9	13891	4	2	2	1	0	576	1	4	0	16	9	0	0	100
random	1	1	10	15018	1	1	1	1	0	824	1	4	0	8	10	0	0	100
random	1	1	11	16642	5	4	4	1	0	563	1	4	0	32	11	0	0	100
random	1	1	12	17903	3	3	3	1	0	862	1	4	0	24	12	0	0	100
random	1	1	13	19860	5	2	2	1	0	707	1	4	0	16	13	0	0	100
random	1	1	14	21089	1	4	4	1	0	591	1	4	0	32	14	0	0	100
random	1	1	15	22451	3	1	1	1	0	853	1	4	0	8	15	0	0	100
random	1	1	16	24036	4	3	3	1	0	602	1	4	0	24	16	0	0	100
random	1	1	17	25638	6	4	4	1	0	695	1	4	0	32	17	0	0	100
random	1	1	18	27129	2	1	1	1	0	775	1	4	0	8	18	0	0	100
random	1	1	19	28311	5	3	3	1	0	757	1	4	0	24	19	0	0	100
random	1	1	20	29637	2	2	2	1	0	845	1	4	0	16	20	0	0	100
random	1	1	21	31404	3	3	3	1	0	794	1	4	0	24	21	0	0	100
random	1	1	22	32611	6	1	1	1	0	791	1	4	0	8	22	0	0	100
random	1	1	23	33925	4	2	2	1	0	904	1	4	0	16	23	0	0	100
random	1	1	24	35218	1	4	4	1	0	704	1	4	0	32	24	0	0	100
random	1	1	25	36703	4	3	3	1	0	1177	1	4	0	24	25	0	0	100
random	1	1	26	38360	2	1	1	1	0	827	1	4	0	8	26	0	0	100
random	1	1	27	39710	5	2	2	1	0	2394	1	4	0	16	27	0	0	100
random	1	1	28	42488	6	4	4	1	0	701	1	4	0	32	28	0	0	100
random	1	1	29	44088	1	3	3	1	0	713	1	4	0	24	29	0	0	100
random	1	1	30	45264	5	2	2	1	0	679	1	4	0	16	30	0	0	100
random	1	1	31	46603	2	1	1	1	0	583	1	4	0	8	31	0	0	100
random	1	1	32	48076	3	3	3	1	0	824	1	4	0	24	32	0	0	100
random	1	1	33	49301	6	4	4	1	0	828	1	4	0	32	33	0	0	100
random	1	1	34	51157	4	2	2	1	0	733	1	4	0	16	34	0	0	100
random	1	1	35	52758	3	4	4	1	0	593	1	4	0	32	35	0	0	100
random	1	1	36	54089	1	1	1	1	0	682	1	4	0	8	36	0	0	100
random	1	1	37	55466	3	4	4	1	0	911	1	4	0	32	37	0	0	100
random	1	1	38	57252	5	3	3	1	0	907	1	4	0	24	38	0	0	100
random	1	1	39	58983	6	1	1	1	0	730	1	4	0	8	39	0	0	100
random	1	1	40	60526	1	2	2	1	0	616	1	4	0	16	40	0	0	100
random	1	1	41	61656	2	3	3	1	0	993	1	4	0	24	41	0	0	100
random	1	1	42	63317	4	4	4	1	0	626	1	4	0	32	42	0	0	100
random	1	1	43	64262	1	2	2	1	0	1003	1	4	0	16	43	0	0	100
random	1	1	44	66023	6	3	3	1	0	1480	1	4	0	24	44	0	0	100
random	1	1	45	68304	3	1	1	1	0	751	1	4	0	8	45	0	0	100
random	1	1	46	69774	4	4	4	1	0	529	1	4	0	32	46	0	0	100
random	1	1	47	70643	2	2	2	1	0	1044	1	4	0	16	47	0	0	100
random	1	1	48	72232	5	1	1	1	0	793	1	4	0	8	48	0	0	100
random	1	1	49	73744	2	3	3	2	0	1905	2	4	0	24	49	0	0	100
random	1	1	50	76540	3	1	1	1	0	754	1	4	0	8	50	0	0	100
random	1	1	51	78213	1	4	4	1	0	660	1	4	0	32	51	0	0	100
random	1	1	52	79596	5	3	3	1	0	921	1	4	0	24	52	0	0	100
random	1	1	53	80987	3	2	2	1	0	518	1	4	0	16	53	0	0	100
random	1	1	54	81903	6	4	4	1	0	623	1	4	0	32	54	0	0	100
random	1	1	55	83166	4	2	2	1	0	714	1	4	0	16	55	0	0	100
random	1	1	56	84720	1	1	1	1	0	720	1	4	0	8	56	0	0	100
random	1	1	57	86192	5	4	4	1	0	649	1	4	0	32	57	0	0	100
random	1	1	58	87149	2	1	1	1	0	977	1	4	0	8	58	0	0	100
random	1	1	59	88608	6	2	2	1	0	748	1	4	0	16	59	0	0	100
random	1	1	60	89785	4	3	3	1	0	1129	1	4	0	24	60	0	0	100
random	1	1	61	92189	1	2	2	1	0	819	1	4	0	16	61	0	0	100
random	1	1	62	93593	6	4	4	1	0	552	1	4	0	32	62	0	0	100
random	1	1	63	95015	4	1	1	1	0	876	1	4	0	8	63	0	0	100
random	1	1	64	96458	2	2	2	1	0	823	1	4	0	16	64	0	0	100
random	1	1	65	97802	4	3	3	1	0	718	1	4	0	24	65	0	0	100
random	1	1	66	98911	3	1	1	1	0	711	1	4	0	8	66	0	0	100
random	1	1	67	100449	1	3	3	1	0	870	1	4	0	24	67	0	0	100
random	1	1	68	102093	5	4	4	1	0	600	1	4	0	32	68	0	0	100
random	1	1	69	103676	2	2	2	1	0	725	1	4	0	16	69	0	0	100
random	1	1	70	105005	3	1	1	1	0	757	1	4	0	8	70	0	0	100
random	1	1	71	106090	5	4	4	1	0	639	1	4	0	32	71	0	0	100
random	1	1	72	107426	6	3	3	1	0	790	1	4	0	24	72	0	0	100
random	1	1	73	109247	2	1	1	1	0	929	1	4	0	8	73	0	0	100
random	1	1	74	110524	5	3	3	1	0	763	1	4	0	24	74	0	0	100
random	1	1	75	112091	1	4	4	1	0	769	1	4	0	32	75	0	0	100
random	1	1	76	113757	6	2	2	2	0	1466	2	4	0	16	76	0	0	100
random	1	1	77	115895	2	1	1	1	0	679	1	4	0	8	77	0	0	100
random	1	1	78	117101	4	4	4	1	0	524	1	4	0	32	78	0	0	100
random	1	1	79	118209	3	2	2	1	0	1006	1	4	0	16	79	0	0	100
random	1	1	80	120004	4	3	3	1	0	546	1	4	0	24	80	0	0	100
random	1	1	81	121147	1	4	4	1	0	609	1	4	0	32	81	0	0	100
random	1	1	82	122185	5	1	1	1	0	765	1	4	0	8	82	0	0	100
random	1	1	83	123915	3	2	2	1	0	812	1	4	0	16	83	0	0	100
random	1	1	84	125628	6	3	3	1	0	779	1	4	0	24	84	0	0	100
random	1	1	85	127041	3	2	2	1	0	775	1	4	0	16	85	0	0	100
random	1	1	86	128164	1	3	3	1	0	792	1	4	0	24	86	0	0	100
random	1	1	87	129813	4	4	4	1	0	642	1	4	0	32	87	0	0	100
random	1	1	88	131432	2	1	1	1	0	701	1	4	0	8	88	0	0	100
random	1	1	89	133183	6	4	4	1	0	580	1	4	0	32	89	0	0	100
random	1	1	90	134627	3	3	3	1	0	766	1	4	0	24	90	0	0	100
random	1	1	91	136059	5	4	4	1	0	714	1	4	0	32	91	0	0	100
random	1	1	92	137269	1	2	2	1	0	1142	1	4	0	16	92	0	0	100
random	1	1	93	138880	5	1	1	1	0	730	1	4	0	8	93	0	0	100
random	1	1	94	140141	4	3	3	1	0	1724	1	4	0	24	94	0	0	100
random	1	1	95	142883	6	1	1	1	0	720	1	4	0	8	95	0	0	100
random	1	1	96	144171	2	2	2	1	0	794	1	4	0	16	96	0	0	100
random	1	1	97	146021	4	3	3	1	0	1035	1	4	0	24	97	0	0	100
random	1	1	98	147775	3	2	2	1	0	585	1	4	0	16	98	0	0	100
random	1	1	99	149287	6	3	3	1	0	921	1	4	0	24	99	0	0	100
random	1	1	100	151245	1	4	4	1	0	591	1	4	0	32	100	0	0	100
random	1	1	101	152710	4	1	1	1	0	752	1	4	0	8	101	0	0	100
random	1	1	102	154372	5	2	2	1	0	882	1	4	0	16	102	0	0	100
random	1	1	103	156093	2	4	4	1	0	609	1	4	0	32	103	0	0	100
random	1	1	104	157308	3	1	1	1	0	814	1	4	0	8	104	0	0	100
random	1	1	105	158590	1	3	3	1	0	1231	1	4	0	24	105	0	0	100
random	1	1	106	160580	2	2	2	1	0	579	1	4	0	16	106	0	0	100
random	1	1	107	161804	5	4	4	1	0	591	1	4	0	32	107	0	0	100
random	1	1	108	162869	6	1	1	1	0	874	1	4	0	8	108	0	0	100
random	1	1	109	164617	5	4	4	1	0	752	1	4	0	32	109	0	0	100
random	1	1	110	166038	6	3	3	1	0	772	1	4	0	24	110	0	0	100
random	1	1	111	167319	2	2	2	1	0	726	1	4	0	16	111	0	0	100
random	1	1	112	168673	3	1	1	1	0	740	1	4	0	8	112	0	0	100
random	1	1	113	170150	1	2	2	1	0	1006	1	4	0	16	113	0	0	100
random	1	1	114	172083	2	3	3	1	0	867	1	4	0	24	114	0	0	100
random	1	1	115	173863	3	1	1	1	0	760	1	4	0	8	115	0	0	100
random	1	1	116	174919	4	4	4	1	0	644	1	4	0	32	116	0	0	100
random	1	1	117	176323	6	1	1	2	0	1336	2	4	0	8	117	0	0	100
random	1	1	118	178205	5	3	3	1	0	856	1	4	0	24	118	0	0	100
random	1	1	119	179814	1	4	4	1	0	708	1	4	0	32	119	0	0	100
random	1	1	120	181354	4	2	2	1	0	723	1	4	0	16	120	0	0	100
fixed	2	1	1	182943	4	1	1	1	0	823	1	4	0	40	1	0	0	100
fixed	2	1	2	184631	1	2	2	1	0	784	1	4	0	48	2	0	0	100
fixed	2	1	3	186267	6	4	4	1	0	571	1	4	0	64	3	0	0	100
fixed	2	1	4	187345	2	1	1	1	0	789	1	4	0	40	4	0	0	100
fixed	2	1	5	188592	5	3	3	1	0	856	1	4	0	56	5	0	0	100
fixed	2	1	6	189818	6	4	4	1	0	741	1	4	0	64	6	0	0	100
fixed	2	1	7	191458	3	1	1	1	0	759	1	4	0	40	7	0	0	100
fixed	2	1	8	193034	2	3	3	1	0	1004	1	4	0	56	8	0	0	100
fixed	2	1	9	194842	3	2	2	1	0	808	1	4	0	48	9	0	0	100
fixed	2	1	10	196426	1	4	4	1	0	724	1	4	0	64	10	0	0	100
fixed	2	1	11	197458	5	2	2	1	0	921	1	4	0	48	11	0	0	100
fixed	2	1	12	198781	4	3	3	1	0	857	1	4	0	56	12	0	0	100
fixed	2	2	1	200672	4	1	1	1	0	729	1	4	0	40	13	0	0	100
fixed	2	2	2	202274	1	2	2	1	0	917	1	4	0	48	14	0	0	100
fixed	2	2	3	204182	6	4	4	1	0	572	1	4	0	64	15	0	0	100
fixed	2	2	4	205109	2	1	1	1	0	869	1	4	0	40	16	0	0	100
fixed	2	2	5	206383	5	3	3	1	0	759	1	4	0	56	17	0	0	100
fixed	2	2	6	208163	6	4	4	1	0	612	1	4	0	64	18	0	0	100
fixed	2	2	7	209384	3	1	1	1	0	720	1	4	0	40	19	0	0	100
fixed	2	2	8	210813	2	3	3	1	0	803	1	4	0	56	20	0	0	100
fixed	2	2	9	212620	3	2	2	1	0	1015	1	4	0	48	21	0	0	100
fixed	2	2	10	214311	1	4	4	1	0	567	1	4	0	64	22	0	0	100
fixed	2	2	11	215819	5	2	2	1	0	783	1	4	0	48	23	0	0	100
fixed	2	2	12	217278	4	3	3	1	0	673	1	4	0	56	24	0	0	100
fixed	2	3	1	218900	4	1	1	1	0	709	1	4	0	40	25	0	0	100
fixed	2	3	2	220228	1	2	2	1	0	1045	1	4	0	48	26	0	0	100
fixed	2	3	3	221901	6	4	4	1	0	550	1	4	0	64	27	0	0	100
fixed	2	3	4	223187	2	1	1	1	0	719	1	4	0	40	28	0	0	100
fixed	2	3	5	224608	5	3	3	1	0	811	1	4	0	56	29	0	0	100
fixed	2	3	6	225872	6	4	4	1	0	621	1	4	0	64	30	0	0	100
fixed	2	3	7	227059	3	1	1	1	0	739	1	4	0	40	31	0	0	100
fixed	2	3	8	228193	2	3	3	1	0	931	1	4	0	56	32	0	0	100
fixed	2	3	9	229804	3	2	2	1	0	463	1	4	0	48	33	0	0	100
fixed	2	3	10	230716	1	4	4	1	0	632	1	4	0	64	34	0	0	100
fixed	2	3	11	231720	5	2	2	1	0	782	1	4	0	48	35	0	0	100
fixed	2	3	12	233319	4	3	3	1	0	738	1	4	0	56	36	0	0	100
fixed	2	4	1	235173	4	1	1	1	0	667	1	4	0	40	37	0	0	100
fixed	2	4	2	236156	1	2	2	1	0	922	1	4	0	48	38	0	0	100
fixed	2	4	3	237889	6	4	4	1	0	553	1	4	0	64	39	0	0	100
fixed	2	4	4	239203	2	1	1	1	0	681	1	4	0	40	40	0	0	100
fixed	2	4	5	240339	5	3	3	1	0	729	1	4	0	56	41	0	0	100
fixed	2	4	6	241766	6	4	4	1	0	565	1	4	0	64	42	0	0	100
fixed	2	4	7	242634	3	1	1	1	0	864	1	4	0	40	43	0	0	100
fixed	2	4	8	244178	2	3	3	1	0	870	1	4	0	56	44	0	0	100
fixed	2	4	9	245986	3	2	2	1	0	545	1	4	0	48	45	0	0	100
fixed	2	4	10	247110	1	4	4	1	0	594	1	4	0	64	46	0	0	100
fixed	2	4	11	248246	5	2	2	1	0	706	1	4	0	48	47	0	0	100
fixed	2	4	12	249742	4	3	3	1	0	882	1	4	0	56	48	0	0	100
fixed	2	5	1	251379	4	1	1	1	0	677	1	4	0	40	49	0	0	100
fixed	2	5	2	252738	1	2	2	1	0	1124	1	4	0	48	50	0	0	100
fixed	2	5	3	254638	6	4	4	1	0	571	1	4	0	64	51	0	0	100
fixed	2	5	4	255771	2	1	1	1	0	755	1	4	0	40	52	0	0	100
fixed	2	5	5	256987	5	3	3	1	0	1088	1	4	0	56	53	0	0	100
fixed	2	5	6	258734	6	4	4	1	0	662	1	4	0	64	54	0	0	100
fixed	2	5	7	259850	3	1	1	1	0	910	1	4	0	40	55	0	0	100
fixed	2	5	8	261166	2	3	3	1	0	1039	1	4	0	56	56	0	0	100
fixed	2	5	9	263101	3	2	2	1	0	741	1	4	0	48	57	0	0	100
fixed	2	5	10	264328	1	4	4	1	0	672	1	4	0	64	58	0	0	100
fixed	2	5	11	265429	5	2	2	1	0	866	1	4	0	48	59	0	0	100
fixed	2	5	12	267294	4	3	3	1	0	947	1	4	0	56	60	0	0	100
fixed	2	6	1	268889	4	1	1	1	0	727	1	4	0	40	61	0	0	100
fixed	2	6	2	270076	1	2	2	1	0	781	1	4	0	48	62	0	0	100
fixed	2	6	3	271626	6	4	4	1	0	555	1	4	0	64	63	0	0	100
fixed	2	6	4	272635	2	1	1	1	0	825	1	4	0	40	64	0	0	100
fixed	2	6	5	274073	5	3	3	1	0	732	1	4	0	56	65	0	0	100
fixed	2	6	6	275268	6	4	4	1	0	706	1	4	0	64	66	0	0	100
fixed	2	6	7	276659	3	1	1	1	0	750	1	4	0	40	67	0	0	100
fixed	2	6	8	277975	2	3	3	2	0	782	2	4	0	56	68	0	0	100
fixed	2	6	9	279059	3	2	2	1	0	657	1	4	0	48	69	0	0	100
fixed	2	6	10	280354	1	4	4	1	0	506	1	4	0	64	70	0	0	100
fixed	2	6	11	281191	5	2	2	1	0	766	1	4	0	48	71	0	0	100
fixed	2	6	12	282338	4	3	3	1	0	710	1	4	0	56	72	0	0	100
fixed	2	7	1	283776	4	1	1	1	0	713	1	4	0	40	73	0	0	100
fixed	2	7	2	285006	1	2	2	1	0	797	1	4	0	48	74	0	0	100
fixed	2	7	3	286510	6	4	4	1	0	573	1	4	0	64	75	0	0	100
fixed	2	7	4	288048	2	1	1	1	0	756	1	4	0	40	76	0	0	100
fixed	2	7	5	289474	5	3	3	2	0	1511	2	4	0	56	77	0	0	100
fixed	2	7	6	291488	6	4	4	1	0	659	1	4	0	64	78	0	0	100
fixed	2	7	7	292952	3	1	1	1	0	780	1	4	0	40	79	0	0	100
fixed	2	7	8	294544	2	3	3	1	0	889	1	4	0	56	80	0	0	100
fixed	2	7	9	296364	3	2	2	1	0	532	1	4	0	48	81	0	0	100
fixed	2	7	10	297473	1	4	4	1	0	573	1	4	0	64	82	0	0	100
fixed	2	7	11	298415	5	2	2	1	0	1101	1	4	0	48	83	0	0	100
fixed	2	7	12	299821	4	3	3	1	0	561	1	4	0	56	84	0	0	100
fixed	2	8	1	301235	4	1	1	1	0	733	1	4	0	40	85	0	0	100
fixed	2	8	2	302924	1	2	2	1	0	926	1	4	0	48	86	0	0	100
fixed	2	8	3	304666	6	4	4	1	0	572	1	4	0	64	87	0	0	100
fixed	2	8	4	306157	2	1	1	1	0	733	1	4	0	40	88	0	0	100
fixed	2	8	5	307790	5	3	3	1	0	792	1	4	0	56	89	0	0	100
fixed	2	8	6	309337	6	4	4	1	0	670	1	4	0	64	90	0	0	100
fixed	2	8	7	310776	3	1	1	1	0	665	1	4	0	40	91	0	0	100
fixed	2	8	8	311791	2	3	3	1	0	855	1	4	0	56	92	0	0	100
fixed	2	8	9	313309	3	2	2	1	0	694	1	4	0	48	93	0	0	100
fixed	2	8	10	314310	1	4	4	1	0	652	1	4	0	64	94	0	0	100
fixed	2	8	11	315344	5	2	2	1	0	712	1	4	0	48	95	0	0	100
fixed	2	8	12	316385	4	3	3	1	0	636	1	4	0	56	96	0	0	100
fixed	2	9	1	318227	4	1	1	1	0	670	1	4	0	40	97	0	0	100
fixed	2	9	2	319925	1	2	2	1	0	1014	1	4	0	48	98	0	0	100
fixed	2	9	3	321337	6	4	4	1	0	562	1	4	0	64	99	0	0	100
fixed	2	9	4	322260	2	1	1	1	0	851	1	4	0	40	100	0	0	100
fixed	2	9	5	323793	5	3	3	1	0	834	1	4	0	56	101	0	0	100
fixed	2	9	6	325519	6	4	4	1	0	665	1	4	0	64	102	0	0	100
fixed	2	9	7	327111	3	1	1	1	0	750	1	4	0	40	103	0	0	100
fixed	2	9	8	328345	2	3	3	1	0	1113	1	4	0	56	104	0	0	100
fixed	2	9	9	330306	3	2	2	1	0	582	1	4	0	48	105	0	0	100
fixed	2	9	10	331707	1	4	4	1	0	787	1	4	0	64	106	0	0	100
fixed	2	9	11	333003	5	2	2	1	0	844	1	4	0	48	107	0	0	100
fixed	2	9	12	334369	4	3	3	1	0	810	1	4	0	56	108	0	0	100
fixed	2	10	1	335903	4	1	1	1	0	673	1	4	0	40	109	0	0	100
fixed	2	10	2	336976	1	2	2	1	0	1164	1	4	0	48	110	0	0	100
fixed	2	10	3	338518	6	4	4	1	0	611	1	4	0	64	111	0	0	100
fixed	2	10	4	339774	2	1	1	1	0	701	1	4	0	40	112	0	0	100
fixed	2	10	5	340936	5	3	3	1	0	700	1	4	0	56	113	0	0	100
fixed	2	10	6	342180	6	4	4	1	0	616	1	4	0	64	114	0	0	100
fixed	2	10	7	343312	3	1	1	1	0	623	1	4	0	40	115	0	0	100
fixed	2	10	8	344396	2	3	3	1	0	793	1	4	0	56	116	0	0	100
fixed	2	10	9	345511	3	2	2	1	0	850	1	4	0	48	117	0	0	100
fixed	2	10	10	347154	1	4	4	1	0	573	1	4	0	64	118	0	0	100
fixed	2	10	11	348714	5	2	2	1	0	915	1	4	0	48	119	0	0	100
fixed	2	10	12	350603	4	3	3	1	0	746	1	4	0	56	120	0	0	100
fixed	3	1	1	352224	4	1	1	1	0	678	1	4	0	72	1	0	0	100
fixed	3	1	2	353623	1	2	2	1	0	1115	1	4	0	80	2	0	0	100
fixed	3	1	3	355617	6	4	4	1	0	566	1	4	0	96	3	0	0	100
fixed	3	1	4	356966	2	1	1	1	0	733	1	4	0	72	4	0	0	100
fixed	3	1	5	358126	5	3	3	1	0	772	1	4	0	88	5	0	0	100
fixed	3	1	6	359913	6	4	4	1	0	704	1	4	0	96	6	0	0	100
fixed	3	1	7	360942	3	1	1	1	0	845	1	4	0	72	7	0	0	100
fixed	3	1	8	362818	2	3	3	1	0	1005	1	4	0	88	8	0	0	100
fixed	3	1	9	364594	3	2	2	1	0	706	1	4	0	80	9	0	0	100
fixed	3	1	10	366284	1	4	4	1	0	610	1	4	0	96	10	0	0	100
fixed	3	1	11	367756	5	2	2	1	0	988	1	4	0	80	11	0	0	100
fixed	3	1	12	369671	4	3	3	1	0	835	1	4	0	88	12	0	0	100
fixed	3	2	1	371374	4	1	1	1	0	643	1	4	0	72	13	0	0	100
fixed	3	2	2	372423	1	2	2	1	0	1030	1	4	0	80	14	0	0	100
fixed	3	2	3	374129	6	4	4	1	0	670	1	4	0	96	15	0	0	100
fixed	3	2	4	375628	2	1	1	1	0	911	1	4	0	72	16	0	0	100
fixed	3	2	5	377094	5	3	3	1	0	809	1	4	0	88	17	0	0	100
fixed	3	2	6	378799	6	4	4	1	0	824	1	4	0	96	18	0	0	100
fixed	3	2	7	380057	3	1	1	1	0	827	1	4	0	72	19	0	0	100
fixed	3	2	8	381683	2	3	3	1	0	878	1	4	0	88	20	0	0	100
fixed	3	2	9	383346	3	2	2	1	0	536	1	4	0	80	21	0	0	100
fixed	3	2	10	384683	1	4	4	1	0	583	1	4	0	96	22	0	0	100
fixed	3	2	11	385690	5	2	2	1	0	828	1	4	0	80	23	0	0	100
fixed	3	2	12	387546	4	3	3	1	0	782	1	4	0	88	24	0	0	100
fixed	3	3	1	389201	4	1	1	1	0	656	1	4	0	72	25	0	0	100
fixed	3	3	2	390153	1	2	2	1	0	823	1	4	0	80	26	0	0	100
fixed	3	3	3	391298	6	4	4	1	0	583	1	4	0	96	27	0	0	100
fixed	3	3	4	392459	2	1	1	1	0	806	1	4	0	72	28	0	0	100
fixed	3	3	5	393736	5	3	3	1	0	848	1	4	0	88	29	0	0	100
fixed	3	3	6	395381	6	4	4	1	0	538	1	4	0	96	30	0	0	100
fixed	3	3	7	396305	3	1	1	1	0	819	1	4	0	72	31	0	0	100
fixed	3	3	8	397621	2	3	3	1	0	747	1	4	0	88	32	0	0	100
fixed	3	3	9	398899	3	2	2	1	0	709	1	4	0	80	33	0	0	100
fixed	3	3	10	400092	1	4	4	1	0	514	1	4	0	96	34	0	0	100
fixed	3	3	11	401589	5	2	2	1	0	819	1	4	0	80	35	0	0	100
fixed	3	3	12	403451	4	3	3	1	0	748	1	4	0	88	36	0	0	100
fixed	3	4	1	405073	4	1	1	1	0	615	1	4	0	72	37	0	0	100
fixed	3	4	2	406416	1	2	2	1	0	823	1	4	0	80	38	0	0	100
fixed	3	4	3	407692	6	4	4	1	0	601	1	4	0	96	39	0	0	100
fixed	3	4	4	408851	2	1	1	2	0	871	2	4	0	72	40	0	0	100
fixed	3	4	5	410184	5	3	3	1	0	791	1	4	0	88	41	0	0	100
fixed	3	4	6	411772	6	4	4	1	0	707	1	4	0	96	42	0	0	100
fixed	3	4	7	413402	3	1	1	1	0	679	1	4	0	72	43	0	0	100
fixed	3	4	8	414757	2	3	3	2	0	1366	2	4	0	88	44	0	0	100
fixed	3	4	9	416973	3	2	2	1	0	759	1	4	0	80	45	0	0	100
fixed	3	4	10	418658	1	4	4	1	0	720	1	4	0	96	46	0	0	100
fixed	3	4	11	419817	5	2	2	1	0	1063	1	4	0	80	47	0	0	100
fixed	3	4	12	421306	4	3	3	1	0	760	1	4	0	88	48	0	0	100
fixed	3	5	1	423318	4	1	1	1	0	730	1	4	0	72	49	0	0	100
fixed	3	5	2	424965	1	2	2	1	0	933	1	4	0	80	50	0	0	100
fixed	3	5	3	426633	6	4	4	1	0	574	1	4	0	96	51	0	0	100
fixed	3	5	4	428111	2	1	1	1	0	727	1	4	0	72	52	0	0	100
fixed	3	5	5	429346	5	3	3	1	0	764	1	4	0	88	53	0	0	100
fixed	3	5	6	430908	6	4	4	1	0	585	1	4	0	96	54	0	0	100
fixed	3	5	7	431906	3	1	1	1	0	791	1	4	0	72	55	0	0	100
fixed	3	5	8	433160	2	3	3	1	0	946	1	4	0	88	56	0	0	100
fixed	3	5	9	434454	3	2	2	1	0	683	1	4	0	80	57	0	0	100
fixed	3	5	10	435424	1	4	4	1	0	674	1	4	0	96	58	0	0	100
fixed	3	5	11	436626	5	2	2	1	0	647	1	4	0	80	59	0	0	100
fixed	3	5	12	437586	4	3	3	1	0	702	1	4	0	88	60	0	0	100
fixed	3	6	1	438940	4	1	1	1	0	637	1	4	0	72	61	0	0	100
fixed	3	6	2	439929	1	2	2	2	0	1115	2	4	0	80	62	0	0	100
fixed	3	6	3	441587	6	4	4	1	0	621	1	4	0	96	63	0	0	100
fixed	3	6	4	442667	2	1	1	1	0	735	1	4	0	72	64	0	0	100
fixed	3	6	5	444308	5	3	3	1	0	738	1	4	0	88	65	0	0	100
fixed	3	6	6	445891	6	4	4	1	0	718	1	4	0	96	66	0	0	100
fixed	3	6	7	446918	3	1	1	1	0	883	1	4	0	72	67	0	0	100
fixed	3	6	8	448171	2	3	3	1	0	894	1	4	0	88	68	0	0	100
fixed	3	6	9	449701	3	2	2	1	0	421	1	4	0	80	69	0	0	100
fixed	3	6	10	450605	1	4	4	1	0	551	1	4	0	96	70	0	0	100
fixed	3	6	11	451460	5	2	2	1	0	1443	1	4	0	80	71	0	0	100
fixed	3	6	12	453784	4	3	3	1	0	656	1	4	0	88	72	0	0	100
fixed	3	7	1	455229	4	1	1	1	0	643	1	4	0	72	73	0	0	100
fixed	3	7	2	456183	1	2	2	1	0	779	1	4	0	80	74	0	0	100
fixed	3	7	3	457311	6	4	4	1	0	715	1	4	0	96	75	0	0	100
fixed	3	7	4	458959	2	1	1	1	0	965	1	4	0	72	76	0	0	100
fixed	3	7	5	460643	5	3	3	1	0	1142	1	4	0	88	77	0	0	100
fixed	3	7	6	462261	6	4	4	1	0	665	1	4	0	96	78	0	0	100
fixed	3	7	7	463625	3	1	1	1	0	696	1	4	0	72	79	0	0	100
fixed	3	7	8	464792	2	3	3	1	0	814	1	4	0	88	80	0	0	100
fixed	3	7	9	466196	3	2	2	1	0	643	1	4	0	80	81	0	0	100
fixed	3	7	10	467813	1	4	4	1	0	622	1	4	0	96	82	0	0	100
fixed	3	7	11	469052	5	2	2	1	0	786	1	4	0	80	83	0	0	100
fixed	3	7	12	470512	4	3	3	1	0	676	1	4	0	88	84	0	0	100
fixed	3	8	1	472154	4	1	1	1	0	678	1	4	0	72	85	0	0	100
fixed	3	8	2	473410	1	2	2	1	0	849	1	4	0	80	86	0	0	100
fixed	3	8	3	474564	6	4	4	1	0	608	1	4	0	96	87	0	0	100
fixed	3	8	4	476137	2	1	1	1	0	742	1	4	0	72	88	0	0	100
fixed	3	8	5	477254	5	3	3	1	0	726	1	4	0	88	89	0	0	100
fixed	3	8	6	478679	6	4	4	1	0	714	1	4	0	96	90	0	0	100
fixed	3	8	7	479864	3	1	1	1	0	776	1	4	0	72	91	0	0	100
fixed	3	8	8	481164	2	3	3	1	0	777	1	4	0	88	92	0	0	100
fixed	3	8	9	482532	3	2	2	1	0	543	1	4	0	80	93	0	0	100
fixed	3	8	10	483954	1	4	4	1	0	738	1	4	0	96	94	0	0	100
fixed	3	8	11	485459	5	2	2	1	0	1011	1	4	0	80	95	0	0	100
fixed	3	8	12	486954	4	3	3	1	0	1180	1	4	0	88	96	0	0	100
fixed	3	9	1	489263	4	1	1	1	0	641	1	4	0	72	97	0	0	100
fixed	3	9	2	490216	1	2	2	1	0	953	1	4	0	80	98	0	0	100
fixed	3	9	3	491792	6	4	4	1	0	743	1	4	0	96	99	0	0	100
fixed	3	9	4	493231	2	1	1	1	0	746	1	4	0	72	100	0	0	100
fixed	3	9	5	494537	5	3	3	1	0	658	1	4	0	88	101	0	0	100
fixed	3	9	6	496068	6	4	4	1	0	625	1	4	0	96	102	0	0	100
fixed	3	9	7	497173	3	1	1	2	0	1243	2	4	0	72	103	0	0	100
fixed	3	9	8	499056	2	3	3	1	0	795	1	4	0	88	104	0	0	100
fixed	3	9	9	500460	3	2	2	1	0	647	1	4	0	80	105	0	0	100
fixed	3	9	10	501848	1	4	4	1	0	485	1	4	0	96	106	0	0	100
fixed	3	9	11	502778	5	2	2	1	0	749	1	4	0	80	107	0	0	100
fixed	3	9	12	504447	4	3	3	1	0	726	1	4	0	88	108	0	0	100
fixed	3	10	1	505770	4	1	1	1	0	614	1	4	0	72	109	0	0	100
fixed	3	10	2	506891	1	2	2	1	0	799	1	4	0	80	110	0	0	100
fixed	3	10	3	508140	6	4	4	1	0	618	1	4	0	96	111	0	0	100
fixed	3	10	4	509528	2	1	1	1	0	911	1	4	0	72	112	0	0	100
fixed	3	10	5	510968	5	3	3	1	0	658	1	4	0	88	113	0	0	100
fixed	3	10	6	512359	6	4	4	1	0	647	1	4	0	96	114	0	0	100
fixed	3	10	7	513589	3	1	1	2	0	1115	2	4	0	72	115	0	0	100
fixed	3	10	8	515434	2	3	3	2	0	1541	2	4	0	88	116	0	0	100
fixed	3	10	9	517835	3	2	2	1	0	999	1	4	0	80	117	0	0	100
fixed	3	10	10	519181	1	4	4	1	0	647	1	4	0	96	118	0	0	100
fixed	3	10	11	520578	5	2	2	1	0	843	1	4	0	80	119	0	0	100
fixed	3	10	12	522252	4	3	3	1	0	1012	1	4	0	88	120	0	0	100
fixed	4	1	1	688633	4	1	1	1	0	973	1	4	0	104	1	0	0	100
fixed	4	1	2	690314	1	2	2	2	0	1694	2	4	0	112	2	0	0	100
fixed	4	1	3	692630	6	4	4	1	0	668	1	4	0	128	3	0	0	100
fixed	4	1	4	694165	2	1	1	1	0	931	1	4	0	104	4	0	0	100
fixed	4	1	5	695664	5	3	3	1	0	900	1	4	0	120	5	0	0	100
fixed	4	1	6	697050	6	4	4	1	0	753	1	4	0	128	6	0	0	100
fixed	4	1	7	698661	3	1	1	1	0	853	1	4	0	104	7	0	0	100
fixed	4	1	8	700257	2	3	3	1	0	993	1	4	0	120	8	0	0	100
fixed	4	1	9	701681	3	2	2	1	0	749	1	4	0	112	9	0	0	100
fixed	4	1	10	703119	1	4	4	1	0	631	1	4	0	128	10	0	0	100
fixed	4	1	11	704181	5	2	2	1	0	811	1	4	0	112	11	0	0	100
fixed	4	1	12	705783	4	3	3	1	0	791	1	4	0	120	12	0	0	100
fixed	4	2	1	707281	4	1	1	1	0	831	1	4	0	104	13	0	0	100
fixed	4	2	2	709075	1	2	2	1	0	964	1	4	0	112	14	0	0	100
fixed	4	2	3	710472	6	4	4	1	0	664	1	4	0	128	15	0	0	100
fixed	4	2	4	712033	2	1	1	1	0	1062	1	4	0	104	16	0	0	100
fixed	4	2	5	713704	5	3	3	1	0	760	1	4	0	120	17	0	0	100
fixed	4	2	6	714841	6	4	4	1	0	735	1	4	0	128	18	0	0	100
fixed	4	2	7	716593	3	1	1	1	0	733	1	4	0	104	19	0	0	100
fixed	4	2	8	717856	2	3	3	2	0	1423	2	4	0	120	20	0	0	100
fixed	4	2	9	720266	3	2	2	1	0	946	1	4	0	112	21	0	0	100
fixed	4	2	10	721593	1	4	4	1	0	650	1	4	0	128	22	0	0	100
fixed	4	2	11	722524	5	2	2	1	0	1042	1	4	0	112	23	0	0	100
fixed	4	2	12	724217	4	3	3	1	0	794	1	4	0	120	24	0	0	100
fixed	4	3	1	726261	4	1	1	1	0	763	1	4	0	104	25	0	0	100
fixed	4	3	2	727648	1	2	2	1	0	1137	1	4	0	112	26	0	0	100
fixed	4	3	3	729431	6	4	4	1	0	750	1	4	0	128	27	0	0	100
fixed	4	3	4	730784	2	1	1	1	0	804	1	4	0	104	28	0	0	100
fixed	4	3	5	732090	5	3	3	1	0	805	1	4	0	120	29	0	0	100
fixed	4	3	6	733343	6	4	4	1	0	727	1	4	0	128	30	0	0	100
fixed	4	3	7	734638	3	1	1	1	0	1009	1	4	0	104	31	0	0	100
fixed	4	3	8	736603	2	3	3	1	0	853	1	4	0	120	32	0	0	100
fixed	4	3	9	738230	3	2	2	1	0	465	1	4	0	112	33	0	0	100
fixed	4	3	10	739129	1	4	4	1	0	795	1	4	0	128	34	0	0	100
fixed	4	3	11	740361	5	2	2	1	0	902	1	4	0	112	35	0	0	100
fixed	4	3	12	742137	4	3	3	1	0	787	1	4	0	120	36	0	0	100
fixed	4	4	1	743537	4	1	1	1	0	824	1	4	0	104	37	0	0	100
fixed	4	4	2	745193	1	2	2	1	0	1026	1	4	0	112	38	0	0	100
fixed	4	4	3	747051	6	4	4	1	0	731	1	4	0	128	39	0	0	100
fixed	4	4	4	748588	2	1	1	1	0	818	1	4	0	104	40	0	0	100
fixed	4	4	5	749845	5	3	3	1	0	757	1	4	0	120	41	0	0	100
fixed	4	4	6	750993	6	4	4	1	0	716	1	4	0	128	42	0	0	100
fixed	4	4	7	752677	3	1	1	1	0	1085	1	4	0	104	43	0	0	100
fixed	4	4	8	754485	2	3	3	1	0	920	1	4	0	120	44	0	0	100
fixed	4	4	9	756335	3	2	2	1	0	682	1	4	0	112	45	0	0	100
fixed	4	4	10	757481	1	4	4	1	0	602	1	4	0	128	46	0	0	100
fixed	4	4	11	758709	5	2	2	1	0	1029	1	4	0	112	47	0	0	100
fixed	4	4	12	760273	4	3	3	1	0	739	1	4	0	120	48	0	0	100
fixed	4	5	1	762199	4	1	1	1	0	737	1	4	0	104	49	0	0	100
fixed	4	5	2	763649	1	2	2	1	0	1076	1	4	0	112	50	0	0	100
fixed	4	5	3	765274	6	4	4	1	0	655	1	4	0	128	51	0	0	100
fixed	4	5	4	766266	2	1	1	1	0	765	1	4	0	104	52	0	0	100
fixed	4	5	5	768023	5	3	3	1	0	1059	1	4	0	120	53	0	0	100
fixed	4	5	6	769493	6	4	4	1	0	917	1	4	0	128	54	0	0	100
fixed	4	5	7	771285	3	1	1	1	0	897	1	4	0	104	55	0	0	100
fixed	4	5	8	772934	2	3	3	1	0	787	1	4	0	120	56	0	0	100
fixed	4	5	9	774352	3	2	2	1	0	775	1	4	0	112	57	0	0	100
fixed	4	5	10	775600	1	4	4	1	0	738	1	4	0	128	58	0	0	100
fixed	4	5	11	776941	5	2	2	1	0	881	1	4	0	112	59	0	0	100
fixed	4	5	12	778226	4	3	3	1	0	459	1	4	0	120	60	0	0	100
fixed	4	6	1	779759	4	1	1	1	0	786	1	4	0	104	61	0	0	100
fixed	4	6	2	781346	1	2	2	1	0	1030	1	4	0	112	62	0	0	100
fixed	4	6	3	782800	6	4	4	1	0	721	1	4	0	128	63	0	0	100
fixed	4	6	4	784055	2	1	1	1	0	716	1	4	0	104	64	0	0	100
fixed	4	6	5	785500	5	3	3	1	0	743	1	4	0	120	65	0	0	100
fixed	4	6	6	787235	6	4	4	1	0	685	1	4	0	128	66	0	0	100
fixed	4	6	7	788457	3	1	1	2	0	1130	2	4	0	104	67	0	0	100
fixed	4	6	8	790375	2	3	3	1	0	848	1	4	0	120	68	0	0	100
fixed	4	6	9	791558	3	2	2	1	0	806	1	4	0	112	69	0	0	100
fixed	4	6	10	793006	1	4	4	1	0	624	1	4	0	128	70	0	0	100
fixed	4	6	11	794413	5	2	2	1	0	701	1	4	0	112	71	0	0	100
fixed	4	6	12	795858	4	3	3	1	0	1000	1	4	0	120	72	0	0	100
fixed	4	7	1	797519	4	1	1	1	0	697	1	4	0	104	73	0	0	100
fixed	4	7	2	798562	1	2	2	1	0	941	1	4	0	112	74	0	0	100
fixed	4	7	3	799822	6	4	4	1	0	760	1	4	0	128	75	0	0	100
fixed	4	7	4	801133	2	1	1	1	0	753	1	4	0	104	76	0	0	100
fixed	4	7	5	802696	5	3	3	1	0	678	1	4	0	120	77	0	0	100
fixed	4	7	6	804262	6	4	4	1	0	668	1	4	0	128	78	0	0	100
fixed	4	7	7	805459	3	1	1	1	0	1105	1	4	0	104	79	0	0	100
fixed	4	7	8	807057	2	3	3	1	0	821	1	4	0	120	80	0	0	100
fixed	4	7	9	808619	3	2	2	1	0	803	1	4	0	112	81	0	0	100
fixed	4	7	10	810371	1	4	4	1	0	577	1	4	0	128	82	0	0	100
fixed	4	7	11	811788	5	2	2	1	0	789	1	4	0	112	83	0	0	100
fixed	4	7	12	813513	4	3	3	1	0	749	1	4	0	120	84	0	0	100
fixed	4	8	1	815079	4	1	1	1	0	906	1	4	0	104	85	0	0	100
fixed	4	8	2	816460	1	2	2	1	0	1160	1	4	0	112	86	0	0	100
fixed	4	8	3	818033	6	4	4	1	0	692	1	4	0	128	87	0	0	100
fixed	4	8	4	819577	2	1	1	1	0	859	1	4	0	104	88	0	0	100
fixed	4	8	5	821400	5	3	3	1	0	846	1	4	0	120	89	0	0	100
fixed	4	8	6	822678	6	4	4	1	0	704	1	4	0	128	90	0	0	100
fixed	4	8	7	823709	3	1	1	1	0	788	1	4	0	104	91	0	0	100
fixed	4	8	8	825312	2	3	3	1	0	929	1	4	0	120	92	0	0	100
fixed	4	8	9	827134	3	2	2	1	0	635	1	4	0	112	93	0	0	100
fixed	4	8	10	828644	1	4	4	1	0	683	1	4	0	128	94	0	0	100
fixed	4	8	11	829842	5	2	2	1	0	761	1	4	0	112	95	0	0	100
fixed	4	8	12	831350	4	3	3	1	0	648	1	4	0	120	96	0	0	100
fixed	4	9	1	832705	4	1	1	1	0	631	1	4	0	104	97	0	0	100
fixed	4	9	2	833761	1	2	2	1	0	794	1	4	0	112	98	0	0	100
fixed	4	9	3	835484	6	4	4	1	0	746	1	4	0	128	99	0	0	100
fixed	4	9	4	837174	2	1	1	1	0	802	1	4	0	104	100	0	0	100
fixed	4	9	5	838479	5	3	3	1	0	1139	1	4	0	120	101	0	0	100
fixed	4	9	6	840334	6	4	4	1	0	860	1	4	0	128	102	0	0	100
fixed	4	9	7	842091	3	1	1	1	0	786	1	4	0	104	103	0	0	100
fixed	4	9	8	843323	2	3	3	1	0	886	1	4	0	120	104	0	0	100
fixed	4	9	9	845018	3	2	2	1	0	422	1	4	0	112	105	0	0	100
fixed	4	9	10	845969	1	4	4	1	0	877	1	4	0	128	106	0	0	100
fixed	4	9	11	847839	5	2	2	1	0	951	1	4	0	112	107	0	0	100
fixed	4	9	12	849225	4	3	3	1	0	716	1	4	0	120	108	0	0	100
fixed	4	10	1	850883	4	1	1	1	0	661	1	4	0	104	109	0	0	100
fixed	4	10	2	852569	1	2	2	1	0	854	1	4	0	112	110	0	0	100
fixed	4	10	3	854105	6	4	4	1	0	749	1	4	0	128	111	0	0	100
fixed	4	10	4	855759	2	1	1	1	0	783	1	4	0	104	112	0	0	100
fixed	4	10	5	856886	5	3	3	1	0	735	1	4	0	120	113	0	0	100
fixed	4	10	6	858151	6	4	4	1	0	697	1	4	0	128	114	0	0	100
fixed	4	10	7	859292	3	1	1	1	0	729	1	4	0	104	115	0	0	100
fixed	4	10	8	860594	2	3	3	1	0	754	1	4	0	120	116	0	0	100
fixed	4	10	9	861831	3	2	2	1	0	614	1	4	0	112	117	0	0	100
fixed	4	10	10	863337	1	4	4	1	0	582	1	4	0	128	118	0	0	100
fixed	4	10	11	864689	5	2	2	1	0	965	1	4	0	112	119	0	0	100
fixed	4	10	12	866656	4	3	3	1	0	793	1	4	0	120	120	0	0	100
fixed	5	1	1	868675	4	1	1	1	0	555	1	4	0	136	1	0	0	100
fixed	5	1	2	870047	1	2	2	1	0	785	1	4	0	144	2	0	0	100
fixed	5	1	3	871757	6	4	4	1	0	649	1	4	0	160	3	0	0	100
fixed	5	1	4	872828	2	1	1	1	0	860	1	4	0	136	4	0	0	100
fixed	5	1	5	874250	5	3	3	1	0	992	1	4	0	152	5	0	0	100
fixed	5	1	6	875805	6	4	4	1	0	766	1	4	0	160	6	0	0	100
fixed	5	1	7	877485	3	1	1	1	0	847	1	4	0	136	7	0	0	100
fixed	5	1	8	879109	2	3	3	1	0	1066	1	4	0	152	8	0	0	100
fixed	5	1	9	881045	3	2	2	1	0	616	1	4	0	144	9	0	0	100
fixed	5	1	10	882381	1	4	4	1	0	903	1	4	0	160	10	0	0	100
fixed	5	1	11	883934	5	2	2	1	0	837	1	4	0	144	11	0	0	100
fixed	5	1	12	885586	4	3	3	1	0	759	1	4	0	152	12	0	0	100
fixed	5	2	1	887607	4	1	1	1	0	706	1	4	0	136	13	0	0	100
fixed	5	2	2	889037	1	2	2	1	0	1150	1	4	0	144	14	0	0	100
fixed	5	2	3	891178	6	4	4	1	0	595	1	4	0	160	15	0	0	100
fixed	5	2	4	892067	2	1	1	1	0	869	1	4	0	136	16	0	0	100
fixed	5	2	5	893560	5	3	3	1	0	766	1	4	0	152	17	0	0	100
fixed	5	2	6	894974	6	4	4	1	0	626	1	4	0	160	18	0	0	100
fixed	5	2	7	896524	3	1	1	1	0	793	1	4	0	136	19	0	0	100
fixed	5	2	8	897865	2	3	3	1	0	1087	1	4	0	152	20	0	0	100
fixed	5	2	9	899877	3	2	2	1	0	722	1	4	0	144	21	0	0	100
fixed	5	2	10	901276	1	4	4	1	0	655	1	4	0	160	22	0	0	100
fixed	5	2	11	902806	5	2	2	1	0	838	1	4	0	144	23	0	0	100
fixed	5	2	12	904410	4	3	3	1	0	811	1	4	0	152	24	0	0	100
fixed	5	3	1	906252	4	1	1	1	0	644	1	4	0	136	25	0	0	100
fixed	5	3	2	907299	1	2	2	1	0	984	1	4	0	144	26	0	0	100
fixed	5	3	3	909026	6	4	4	1	0	599	1	4	0	160	27	0	0	100
fixed	5	3	4	909958	2	1	1	1	0	848	1	4	0	136	28	0	0	100
fixed	5	3	5	911498	5	3	3	1	0	726	1	4	0	152	29	0	0	100
fixed	5	3	6	913091	6	4	4	1	0	667	1	4	0	160	30	0	0	100
fixed	5	3	7	914350	3	1	1	1	0	749	1	4	0	136	31	0	0	100
fixed	5	3	8	915801	2	3	3	1	0	744	1	4	0	152	32	0	0	100
fixed	5	3	9	917000	3	2	2	1	0	685	1	4	0	144	33	0	0	100
fixed	5	3	10	918705	1	4	4	1	0	789	1	4	0	160	34	0	0	100
fixed	5	3	11	919841	5	2	2	1	0	877	1	4	0	144	35	0	0	100
fixed	5	3	12	921077	4	3	3	1	0	928	1	4	0	152	36	0	0	100
fixed	5	4	1	923060	4	1	1	1	0	676	1	4	0	136	37	0	0	100
fixed	5	4	2	924228	1	2	2	1	0	1083	1	4	0	144	38	0	0	100
fixed	5	4	3	925803	6	4	4	1	0	640	1	4	0	160	39	0	0	100
fixed	5	4	4	927301	2	1	1	1	0	881	1	4	0	136	40	0	0	100
fixed	5	4	5	929180	5	3	3	1	0	1273	1	4	0	152	41	0	0	100
fixed	5	4	6	930862	6	4	4	1	0	658	1	4	0	160	42	0	0	100
fixed	5	4	7	932099	3	1	1	1	0	1045	1	4	0	136	43	0	0	100
fixed	5	4	8	934182	2	3	3	1	0	726	1	4	0	152	44	0	0	100
fixed	5	4	9	935280	3	2	2	2	0	1855	2	4	0	144	45	0	0	100
fixed	5	4	10	937691	1	4	4	1	0	633	1	4	0	160	46	0	0	100
fixed	5	4	11	939269	5	2	2	1	0	998	1	4	0	144	47	0	0	100
fixed	5	4	12	940872	4	3	3	1	0	778	1	4	0	152	48	0	0	100
fixed	5	5	1	942859	4	1	1	1	0	638	1	4	0	136	49	0	0	100
fixed	5	5	2	943909	1	2	2	1	0	777	1	4	0	144	50	0	0	100
fixed	5	5	3	945172	6	4	4	1	0	644	1	4	0	160	51	0	0	100
fixed	5	5	4	946846	2	1	1	1	0	773	1	4	0	136	52	0	0	100
fixed	5	5	5	948210	5	3	3	1	0	715	1	4	0	152	53	0	0	100
fixed	5	5	6	949702	6	4	4	1	0	652	1	4	0	160	54	0	0	100
fixed	5	5	7	950812	3	1	1	1	0	717	1	4	0	136	55	0	0	100
fixed	5	5	8	951816	2	3	3	1	0	914	1	4	0	152	56	0	0	100
fixed	5	5	9	953452	3	2	2	1	0	877	1	4	0	144	57	0	0	100
fixed	5	5	10	955171	1	4	4	1	0	572	1	4	0	160	58	0	0	100
fixed	5	5	11	956146	5	2	2	1	0	811	1	4	0	144	59	0	0	100
fixed	5	5	12	957948	4	3	3	1	0	631	1	4	0	152	60	0	0	100
fixed	5	6	1	959299	4	1	1	1	0	685	1	4	0	136	61	0	0	100
fixed	5	6	2	960895	1	2	2	1	0	1410	1	4	0	144	62	0	0	100
fixed	5	6	3	962914	6	4	4	1	0	660	1	4	0	160	63	0	0	100
fixed	5	6	4	964184	2	1	1	1	0	751	1	4	0	136	64	0	0	100
fixed	5	6	5	965535	5	3	3	1	0	733	1	4	0	152	65	0	0	100
fixed	5	6	6	966993	6	4	4	1	0	656	1	4	0	160	66	0	0	100
fixed	5	6	7	968368	3	1	1	1	0	750	1	4	0	136	67	0	0	100
fixed	5	6	8	969831	2	3	3	1	0	999	1	4	0	152	68	0	0	100
fixed	5	6	9	971563	3	2	2	1	0	574	1	4	0	144	69	0	0	100
fixed	5	6	10	972955	1	4	4	1	0	667	1	4	0	160	70	0	0	100
fixed	5	6	11	974394	5	2	2	1	0	782	1	4	0	144	71	0	0	100
fixed	5	6	12	976154	4	3	3	1	0	843	1	4	0	152	72	0	0	100
fixed	5	7	1	977728	4	1	1	1	0	585	1	4	0	136	73	0	0	100
fixed	5	7	2	978987	1	2	2	1	0	732	1	4	0	144	74	0	0	100
fixed	5	7	3	980095	6	4	4	1	0	669	1	4	0	160	75	0	0	100
fixed	5	7	4	981637	2	1	1	1	0	699	1	4	0	136	76	0	0	100
fixed	5	7	5	983194	5	3	3	1	0	841	1	4	0	152	77	0	0	100
fixed	5	7	6	984429	6	4	4	1	0	837	1	4	0	160	78	0	0	100
fixed	5	7	7	986226	3	1	1	1	0	761	1	4	0	136	79	0	0	100
fixed	5	7	8	987701	2	3	3	1	0	794	1	4	0	152	80	0	0	100
fixed	5	7	9	989442	3	2	2	1	0	697	1	4	0	144	81	0	0	100
fixed	5	7	10	990979	1	4	4	1	0	640	1	4	0	160	82	0	0	100
fixed	5	7	11	992426	5	2	2	1	0	955	1	4	0	144	83	0	0	100
fixed	5	7	12	994226	4	3	3	1	0	646	1	4	0	152	84	0	0	100
fixed	5	8	1	995638	4	1	1	1	0	690	1	4	0	136	85	0	0	100
fixed	5	8	2	996744	1	2	2	1	0	1155	1	4	0	144	86	0	0	100
fixed	5	8	3	998366	6	4	4	1	0	655	1	4	0	160	87	0	0	100
fixed	5	8	4	999571	2	1	1	1	0	748	1	4	0	136	88	0	0	100
fixed	5	8	5	1001130	5	3	3	1	0	666	1	4	0	152	89	0	0	100
fixed	5	8	6	1002152	6	4	4	1	0	710	1	4	0	160	90	0	0	100
fixed	5	8	7	1003532	3	1	1	1	0	852	1	4	0	136	91	0	0	100
fixed	5	8	8	1005060	2	3	3	1	0	795	1	4	0	152	92	0	0	100
fixed	5	8	9	1006323	3	2	2	1	0	446	1	4	0	144	93	0	0	100
fixed	5	8	10	1007109	1	4	4	1	0	709	1	4	0	160	94	0	0	100
fixed	5	8	11	1008812	5	2	2	1	0	748	1	4	0	144	95	0	0	100
fixed	5	8	12	1009877	4	3	3	1	0	655	1	4	0	152	96	0	0	100
fixed	5	9	1	1011377	4	1	1	1	0	631	1	4	0	136	97	0	0	100
fixed	5	9	2	1012374	1	2	2	1	0	750	1	4	0	144	98	0	0	100
fixed	5	9	3	1013677	6	4	4	1	0	687	1	4	0	160	99	0	0	100
fixed	5	9	4	1015176	2	1	1	1	0	695	1	4	0	136	100	0	0	100
fixed	5	9	5	1016398	5	3	3	1	0	843	1	4	0	152	101	0	0	100
fixed	5	9	6	1018141	6	4	4	1	0	681	1	4	0	160	102	0	0	100
fixed	5	9	7	1019255	3	1	1	1	0	738	1	4	0	136	103	0	0	100
fixed	5	9	8	1020372	2	3	3	1	0	811	1	4	0	152	104	0	0	100
fixed	5	9	9	1021646	3	2	2	1	0	717	1	4	0	144	105	0	0	100
fixed	5	9	10	1023119	1	4	4	1	0	631	1	4	0	160	106	0	0	100
fixed	5	9	11	1024715	5	2	2	1	0	1059	1	4	0	144	107	0	0	100
fixed	5	9	12	1026613	4	3	3	1	0	682	1	4	0	152	108	0	0	100
fixed	5	10	1	1027867	4	1	1	1	0	733	1	4	0	136	109	0	0	100
fixed	5	10	2	1029304	1	2	2	1	0	960	1	4	0	144	110	0	0	100
fixed	5	10	3	1031238	6	4	4	1	0	639	1	4	0	160	111	0	0	100
fixed	5	10	4	1032743	2	1	1	1	0	830	1	4	0	136	112	0	0	100
fixed	5	10	5	1034616	5	3	3	1	0	783	1	4	0	152	113	0	0	100
fixed	5	10	6	1035846	6	4	4	1	0	755	1	4	0	160	114	0	0	100
fixed	5	10	7	1037314	3	1	1	1	0	877	1	4	0	136	115	0	0	100
fixed	5	10	8	1039032	2	3	3	1	0	788	1	4	0	152	116	0	0	100
fixed	5	10	9	1040854	3	2	2	1	0	823	1	4	0	144	117	0	0	100
fixed	5	10	10	1042489	1	4	4	1	0	746	1	4	0	160	118	0	0	100
fixed	5	10	11	1044176	5	2	2	1	0	794	1	4	0	144	119	0	0	100
fixed	5	10	12	1045739	4	3	3	1	0	641	1	4	0	152	120	0	0	100
random	6	1	1	1159003	6	1	1	1	0	955	1	4	0	168	1	0	0	100
random	6	1	2	1160386	4	4	4	1	0	713	1	4	0	192	2	0	0	100
random	6	1	3	1161485	2	2	2	1	0	994	1	4	0	176	3	0	0	100
random	6	1	4	1163217	3	3	3	1	0	552	1	4	0	184	4	0	0	100
random	6	1	5	1164527	5	2	2	1	0	785	1	4	0	176	5	0	0	100
random	6	1	6	1165750	1	4	4	1	0	661	1	4	0	192	6	0	0	100
random	6	1	7	1166847	6	1	1	1	0	575	1	4	0	168	7	0	0	100
random	6	1	8	1167971	2	3	3	1	0	855	1	4	0	184	8	0	0	100
random	6	1	9	1169403	4	2	2	1	0	467	1	4	0	176	9	0	0	100
random	6	1	10	1170465	1	1	1	1	0	829	1	4	0	168	10	0	0	100
random	6	1	11	1171887	5	4	4	1	0	689	1	4	0	192	11	0	0	100
random	6	1	12	1173370	3	3	3	1	0	715	1	4	0	184	12	0	0	100
random	6	1	13	1175062	5	2	2	1	0	1011	1	4	0	176	13	0	0	100
random	6	1	14	1176790	1	4	4	1	0	650	1	4	0	192	14	0	0	100
random	6	1	15	1178468	3	1	1	1	0	746	1	4	0	168	15	0	0	100
random	6	1	16	1179721	4	3	3	1	0	685	1	4	0	184	16	0	0	100
random	6	1	17	1181030	6	4	4	1	0	662	1	4	0	192	17	0	0	100
random	6	1	18	1182063	2	1	1	1	0	954	1	4	0	168	18	0	0	100
random	6	1	19	1183631	5	3	3	1	0	904	1	4	0	184	19	0	0	100
random	6	1	20	1185162	2	2	2	1	0	511	1	4	0	176	20	0	0	100
random	6	1	21	1186150	3	3	3	1	0	781	1	4	0	184	21	0	0	100
random	6	1	22	1187777	6	1	1	1	0	792	1	4	0	168	22	0	0	100
random	6	1	23	1188948	4	2	2	1	0	935	1	4	0	176	23	0	0	100
random	6	1	24	1190790	1	4	4	1	0	585	1	4	0	192	24	0	0	100
random	6	1	25	1192137	4	3	3	1	0	999	1	4	0	184	25	0	0	100
random	6	1	26	1194004	2	1	1	1	0	721	1	4	0	168	26	0	0	100
random	6	1	27	1195031	5	2	2	1	0	981	1	4	0	176	27	0	0	100
random	6	1	28	1196304	6	4	4	1	0	863	1	4	0	192	28	0	0	100
random	6	1	29	1198186	1	3	3	1	0	759	1	4	0	184	29	0	0	100
random	6	1	30	1199414	5	2	2	1	0	788	1	4	0	176	30	0	0	100
random	6	1	31	1201117	2	1	1	1	0	787	1	4	0	168	31	0	0	100
random	6	1	32	1202735	3	3	3	1	0	807	1	4	0	184	32	0	0	100
random	6	1	33	1204069	6	4	4	1	0	630	1	4	0	192	33	0	0	100
random	6	1	34	1205198	4	2	2	1	0	767	1	4	0	176	34	0	0	100
random	6	1	35	1206311	3	4	4	1	0	671	1	4	0	192	35	0	0	100
random	6	1	36	1207408	1	1	1	1	0	721	1	4	0	168	36	0	0	100
random	6	1	37	1208728	3	4	4	1	0	1089	1	4	0	192	37	0	0	100
random	6	1	38	1210116	5	3	3	1	0	790	1	4	0	184	38	0	0	100
random	6	1	39	1211260	6	1	1	1	0	774	1	4	0	168	39	0	0	100
random	6	1	40	1213035	1	2	2	1	0	739	1	4	0	176	40	0	0	100
random	6	1	41	1214515	2	3	3	1	0	1284	1	4	0	184	41	0	0	100
random	6	1	42	1216724	4	4	4	1	0	686	1	4	0	192	42	0	0	100
random	6	1	43	1218155	1	2	2	1	0	850	1	4	0	176	43	0	0	100
random	6	1	44	1219909	6	3	3	1	0	911	1	4	0	184	44	0	0	100
random	6	1	45	1221718	3	1	1	1	0	731	1	4	0	168	45	0	0	100
random	6	1	46	1222773	4	4	4	1	0	646	1	4	0	192	46	0	0	100
random	6	1	47	1224350	2	2	2	1	0	827	1	4	0	176	47	0	0	100
random	6	1	48	1225943	5	1	1	1	0	824	1	4	0	168	48	0	0	100
random	6	1	49	1227724	2	3	3	1	0	1204	1	4	0	184	49	0	0	100
random	6	1	50	1229680	3	1	1	1	0	665	1	4	0	168	50	0	0	100
random	6	1	51	1231281	1	4	4	1	0	589	1	4	0	192	51	0	0	100
random	6	1	52	1232554	5	3	3	1	0	672	1	4	0	184	52	0	0	100
random	6	1	53	1233813	3	2	2	1	0	723	1	4	0	176	53	0	0	100
random	6	1	54	1235478	6	4	4	1	0	588	1	4	0	192	54	0	0	100
random	6	1	55	1236902	4	2	2	1	0	784	1	4	0	176	55	0	0	100
random	6	1	56	1238464	1	1	1	1	0	822	1	4	0	168	56	0	0	100
random	6	1	57	1239961	5	4	4	1	0	702	1	4	0	192	57	0	0	100
random	6	1	58	1241425	2	1	1	1	0	736	1	4	0	168	58	0	0	100
random	6	1	59	1242822	6	2	2	1	0	797	1	4	0	176	59	0	0	100
random	6	1	60	1244089	4	3	3	1	0	1247	1	4	0	184	60	0	0	100
random	6	1	61	1246153	1	2	2	1	0	840	1	4	0	176	61	0	0	100
random	6	1	62	1247531	6	4	4	1	0	646	1	4	0	192	62	0	0	100
random	6	1	63	1248536	4	1	1	1	0	843	1	4	0	168	63	0	0	100
random	6	1	64	1250168	2	2	2	2	0	1846	2	4	0	176	64	0	0	100
random	6	1	65	1252433	4	3	3	1	0	901	1	4	0	184	65	0	0	100
random	6	1	66	1253751	3	1	1	1	0	822	1	4	0	168	66	0	0	100
random	6	1	67	1255452	1	3	3	1	0	862	1	4	0	184	67	0	0	100
random	6	1	68	1257233	5	4	4	1	0	634	1	4	0	192	68	0	0	100
random	6	1	69	1258170	2	2	2	1	0	803	1	4	0	176	69	0	0	100
random	6	1	70	1259767	3	1	1	1	0	735	1	4	0	168	70	0	0	100
random	6	1	71	1260838	5	4	4	1	0	658	1	4	0	192	71	0	0	100
random	6	1	72	1262316	6	3	3	1	0	891	1	4	0	184	72	0	0	100
random	6	1	73	1263863	2	1	1	1	0	769	1	4	0	168	73	0	0	100
random	6	1	74	1265590	5	3	3	1	0	961	1	4	0	184	74	0	0	100
random	6	1	75	1267296	1	4	4	1	0	720	1	4	0	192	75	0	0	100
random	6	1	76	1268595	6	2	2	1	0	785	1	4	0	176	76	0	0	100
random	6	1	77	1269755	2	1	1	1	0	816	1	4	0	168	77	0	0	100
random	6	1	78	1271004	4	4	4	1	0	683	1	4	0	192	78	0	0	100
random	6	1	79	1271970	3	2	2	1	0	770	1	4	0	176	79	0	0	100
random	6	1	80	1273598	4	3	3	1	0	814	1	4	0	184	80	0	0	100
random	6	1	81	1275261	1	4	4	1	0	575	1	4	0	192	81	0	0	100
random	6	1	82	1276222	5	1	1	1	0	655	1	4	0	168	82	0	0	100
random	6	1	83	1277746	3	2	2	1	0	789	1	4	0	176	83	0	0	100
random	6	1	84	1278918	6	3	3	1	0	764	1	4	0	184	84	0	0	100
random	6	1	85	1280420	3	2	2	1	0	796	1	4	0	176	85	0	0	100
random	6	1	86	1281840	1	3	3	1	0	632	1	4	0	184	86	0	0	100
random	6	1	87	1282831	4	4	4	1	0	694	1	4	0	192	87	0	0	100
random	6	1	88	1284157	2	1	1	1	0	814	1	4	0	168	88	0	0	100
random	6	1	89	1285661	6	4	4	1	0	607	1	4	0	192	89	0	0	100
random	6	1	90	1287056	3	3	3	1	0	731	1	4	0	184	90	0	0	100
random	6	1	91	1288658	5	4	4	1	0	759	1	4	0	192	91	0	0	100
random	6	1	92	1290110	1	2	2	2	0	1530	2	4	0	176	92	0	0	100
random	6	1	93	1292566	5	1	1	1	0	770	1	4	0	168	93	0	0	100
random	6	1	94	1293892	4	3	3	1	0	722	1	4	0	184	94	0	0	100
random	6	1	95	1295254	6	1	1	1	0	928	1	4	0	168	95	0	0	100
random	6	1	96	1296858	2	2	2	1	0	964	1	4	0	176	96	0	0	100
random	6	1	97	1298682	4	3	3	1	0	767	1	4	0	184	97	0	0	100
random	6	1	98	1300446	3	2	2	1	0	828	1	4	0	176	98	0	0	100
random	6	1	99	1301780	6	3	3	1	0	884	1	4	0	184	99	0	0	100
random	6	1	100	1303480	1	4	4	1	0	868	1	4	0	192	100	0	0	100
random	6	1	101	1304648	4	1	1	1	0	786	1	4	0	168	101	0	0	100
random	6	1	102	1305734	5	2	2	2	0	1828	2	4	0	176	102	0	0	100
random	6	1	103	1308232	2	4	4	1	0	1267	1	4	0	192	103	0	0	100
random	6	1	104	1309861	3	1	1	1	0	757	1	4	0	168	104	0	0	100
random	6	1	105	1311377	1	3	3	1	0	829	1	4	0	184	105	0	0	100
random	6	1	106	1313231	2	2	2	1	0	654	1	4	0	176	106	0	0	100
random	6	1	107	1314790	5	4	4	1	0	661	1	4	0	192	107	0	0	100
random	6	1	108	1316268	6	1	1	1	0	782	1	4	0	168	108	0	0	100
random	6	1	109	1317762	5	4	4	1	0	895	1	4	0	192	109	0	0	100
random	6	1	110	1318953	6	3	3	1	0	732	1	4	0	184	110	0	0	100
random	6	1	111	1320183	2	2	2	1	0	856	1	4	0	176	111	0	0	100
random	6	1	112	1321457	3	1	1	1	0	554	1	4	0	168	112	0	0	100
random	6	1	113	1322443	1	2	2	1	0	1168	1	4	0	176	113	0	0	100
random	6	1	114	1324309	2	3	3	1	0	1169	1	4	0	184	114	0	0	100
random	6	1	115	1326464	3	1	1	1	0	654	1	4	0	168	115	0	0	100
random	6	1	116	1328120	4	4	4	1	0	480	1	4	0	192	116	0	0	100
random	6	1	117	1329046	6	1	1	1	0	913	1	4	0	168	117	0	0	100
random	6	1	118	1330312	5	3	3	1	0	731	1	4	0	184	118	0	0	100
random	6	1	119	1332062	1	4	4	1	0	673	1	4	0	192	119	0	0	100
random	6	1	120	1333654	4	2	2	1	0	614	1	4	0	176	120	0	0	100
fixed	7	1	1	1335520	4	1	1	1	0	678	1	4	0	200	1	0	0	100
fixed	7	1	2	1336544	1	2	2	1	0	923	1	4	0	208	2	0	0	100
fixed	7	1	3	1338477	6	4	4	1	0	625	1	4	0	224	3	0	0	100
fixed	7	1	4	1339652	2	1	1	1	0	736	1	4	0	200	4	0	0	100
fixed	7	1	5	1341210	5	3	3	1	0	886	1	4	0	216	5	0	0	100
fixed	7	1	6	1343103	6	4	4	1	0	766	1	4	0	224	6	0	0	100
fixed	7	1	7	1344436	3	1	1	1	0	781	1	4	0	200	7	0	0	100
fixed	7	1	8	1345593	2	3	3	1	0	989	1	4	0	216	8	0	0	100
fixed	7	1	9	1347194	3	2	2	1	0	456	1	4	0	208	9	0	0	100
fixed	7	1	10	1348589	1	4	4	1	0	669	1	4	0	224	10	0	0	100
fixed	7	1	11	1349962	5	2	2	1	0	939	1	4	0	208	11	0	0	100
fixed	7	1	12	1351225	4	3	3	1	0	1237	1	4	0	216	12	0	0	100
fixed	7	2	1	1353099	4	1	1	1	0	734	1	4	0	200	1	0	0	8
fixed	7	2	2	1354146	1	2	2	1	0	1354	1	4	0	208	2	0	0	14
fixed	7	2	3	1355918	6	4	4	1	0	1167	1	4	0	224	3	0	0	20
fixed	7	2	4	1357362	2	1	1	1	0	753	1	4	0	200	4	0	0	25
fixed	7	2	5	1358972	5	3	3	1	0	838	1	4	0	216	5	0	0	29
fixed	7	2	6	1360788	6	4	4	1	0	728	1	4	0	224	6	0	0	33
fixed	7	2	7	1362462	3	1	1	1	0	810	1	4	0	200	7	0	0	37
fixed	7	2	8	1364029	2	3	3	1	0	951	1	4	0	216	8	0	0	40
fixed	7	2	9	1365944	3	2	2	1	0	502	1	4	0	208	9	0	0	43
fixed	7	2	10	1366876	1	4	4	1	0	639	1	4	0	224	10	0	0	45
fixed	7	2	11	1367805	5	2	2	1	0	1263	1	4	0	208	11	0	0	48
fixed	7	2	12	1369482	4	3	3	3	0	2088	2	4	0	216	12	0	0	50
fixed	7	3	1	1372446	4	1	1	2	0	818	2	4	0	200	1	0	0	4
fixed	7	3	2	1374110	1	2	0	1	2	0	3	4	0	208	1	0	1	4
fixed	7	3	3	1376973	6	4	4	1	0	1595	1	4	0	224	2	0	1	7
fixed	7	3	4	1379463	2	1	1	1	0	729	1	4	0	200	3	0	1	11
fixed	7	3	5	1381206	5	3	3	1	0	1320	1	4	0	216	4	0	1	14
fixed	7	3	6	1382925	6	4	4	1	0	751	1	4	0	224	5	0	1	17
fixed	7	3	7	1384376	3	1	1	1	0	753	1	4	0	200	6	0	1	19
fixed	7	3	8	1385486	2	3	3	1	0	1034	1	4	0	216	7	0	1	22
fixed	7	3	9	1387021	3	2	2	1	0	465	1	4	0	208	8	0	1	24
fixed	7	3	10	1387779	1	4	4	1	0	674	1	4	0	224	9	0	1	26
fixed	7	3	11	1389006	5	2	2	1	0	797	1	4	0	208	10	0	1	29
fixed	7	3	12	1390413	4	3	3	1	0	722	1	4	0	216	11	0	1	31
fixed	7	4	1	1392128	4	1	1	1	0	689	1	4	0	200	1	0	0	3
fixed	7	4	2	1393485	1	2	2	1	0	880	1	4	0	208	2	0	0	5
fixed	7	4	3	1395347	6	4	4	1	0	1153	1	4	0	224	3	0	0	8
fixed	7	4	4	1397170	2	1	1	1	0	1084	1	4	0	200	4	0	0	10
fixed	7	4	5	1398619	5	3	3	1	0	846	1	4	0	216	5	0	0	12
fixed	7	4	6	1400121	6	4	4	1	0	687	1	4	0	224	6	0	0	14
fixed	7	4	7	1401657	3	1	1	1	0	726	1	4	0	200	7	0	0	16
fixed	7	4	8	1402818	2	3	3	1	0	844	1	4	0	216	8	0	0	18
fixed	7	4	9	1404074	3	2	2	1	0	671	1	4	0	208	9	0	0	20
fixed	7	4	10	1405307	1	4	4	1	0	915	1	4	0	224	10	0	0	22
fixed	7	4	11	1406846	5	2	2	1	0	1329	1	4	0	208	11	0	0	23
fixed	7	4	12	1408624	4	3	3	1	0	918	1	4	0	216	12	0	0	25
fixed	7	5	1	1410372	4	1	1	1	0	700	1	4	0	200	1	0	0	2
fixed	7	5	2	1412063	1	2	2	1	0	933	1	4	0	208	2	0	0	4
fixed	7	5	3	1413532	6	4	4	1	0	646	1	4	0	224	3	0	0	6
fixed	7	5	4	1414831	2	1	1	1	0	767	1	4	0	200	4	0	0	8
fixed	7	5	5	1416573	5	3	3	1	0	814	1	4	0	216	5	0	0	9
fixed	7	5	6	1418396	6	4	4	1	0	1064	1	4	0	224	6	0	0	11
fixed	7	5	7	1419889	3	1	1	1	0	721	1	4	0	200	7	0	0	13
fixed	7	5	8	1421142	2	3	3	1	0	652	1	4	0	216	8	0	0	14
fixed	7	5	9	1422707	3	2	2	1	0	514	1	4	0	208	9	0	0	16
fixed	7	5	10	1423849	1	4	4	1	0	690	1	4	0	224	10	0	0	17
fixed	7	5	11	1425545	5	2	2	1	0	890	1	4	0	208	11	0	0	19
fixed	7	5	12	1427194	4	3	3	1	0	564	1	4	0	216	12	0	0	20
fixed	7	6	1	1428450	4	1	1	1	0	639	1	4	0	200	1	0	0	2
fixed	7	6	2	1429936	1	2	2	1	0	911	1	4	0	208	2	0	0	3
fixed	7	6	3	1431661	6	4	4	1	0	799	1	4	0	224	3	0	0	5
fixed	7	6	4	1433342	2	1	1	1	0	808	1	4	0	200	4	0	0	6
fixed	7	6	5	1434617	5	3	3	1	0	905	1	4	0	216	5	0	0	8
fixed	7	6	6	1436019	6	4	4	1	0	782	1	4	0	224	6	0	0	9
fixed	7	6	7	1437740	3	1	1	1	0	957	1	4	0	200	7	0	0	10
fixed	7	6	8	1439711	2	3	3	1	0	922	1	4	0	216	8	0	0	12
fixed	7	6	9	1441135	3	2	2	1	0	541	1	4	0	208	9	0	0	13
fixed	7	6	10	1442636	1	4	4	1	0	590	1	4	0	224	10	0	0	14
fixed	7	6	11	1443595	5	2	2	1	0	845	1	4	0	208	11	0	0	15
fixed	7	6	12	1445100	4	3	3	1	0	1054	1	4	0	216	12	0	0	17
fixed	7	7	1	1446762	4	1	1	1	0	655	1	4	0	200	1	0	0	1
fixed	7	7	2	1448365	1	2	2	1	0	1339	1	4	0	208	2	0	0	3
fixed	7	7	3	1450567	6	4	4	1	0	630	1	4	0	224	3	0	0	4
fixed	7	7	4	1452075	2	1	1	1	0	822	1	4	0	200	4	0	0	5
fixed	7	7	5	1453215	5	3	3	1	0	1190	1	4	0	216	5	0	0	6
fixed	7	7	6	1454837	6	4	4	1	0	881	1	4	0	224	6	0	0	8
fixed	7	7	7	1456715	3	1	1	1	0	770	1	4	0	200	7	0	0	9
fixed	7	7	8	1458335	2	3	3	1	0	813	1	4	0	216	8	0	0	10
fixed	7	7	9	1459658	3	2	2	1	0	469	1	4	0	208	9	0	0	11
fixed	7	7	10	1460996	1	4	4	1	0	644	1	4	0	224	10	0	0	12
fixed	7	7	11	1462492	5	2	2	1	0	781	1	4	0	208	11	0	0	13
fixed	7	7	12	1463633	4	3	3	1	0	861	1	4	0	216	12	0	0	14
fixed	7	8	1	1465173	4	1	1	1	0	723	1	4	0	200	1	0	0	1
fixed	7	8	2	1466389	1	2	2	1	0	920	1	4	0	208	2	0	0	2
fixed	7	8	3	1468241	6	4	4	1	0	625	1	4	0	224	3	0	0	3
fixed	7	8	4	1469313	2	1	1	1	0	772	1	4	0	200	4	0	0	5
fixed	7	8	5	1471106	5	3	3	1	0	872	1	4	0	216	5	0	0	6
fixed	7	8	6	1472900	6	4	4	1	0	708	1	4	0	224	6	0	0	7
fixed	7	8	7	1474602	3	1	1	1	0	732	1	4	0	200	7	0	0	8
fixed	7	8	8	1476138	2	3	3	1	0	859	1	4	0	216	8	0	0	9
fixed	7	8	9	1477954	3	2	2	1	0	662	1	4	0	208	9	0	0	10
fixed	7	8	10	1479530	1	4	4	1	0	611	1	4	0	224	10	0	0	11
fixed	7	8	11	1480613	5	2	2	1	0	789	1	4	0	208	11	0	0	12
fixed	7	8	12	1482286	4	3	3	1	0	574	1	4	0	216	12	0	0	13
fixed	7	9	1	1483936	4	1	1	1	0	776	1	4	0	200	1	0	0	1
fixed	7	9	2	1485681	1	2	2	1	0	807	1	4	0	208	2	0	0	2
fixed	7	9	3	1487408	6	4	4	1	0	717	1	4	0	224	3	0	0	3
fixed	7	9	4	1488524	2	1	1	1	0	775	1	4	0	200	4	0	0	4
fixed	7	9	5	1489658	5	3	3	1	0	878	1	4	0	216	5	0	0	5
fixed	7	9	6	1491153	6	4	4	1	0	2455	1	4	0	224	6	0	0	6
fixed	7	9	7	1494273	3	1	1	1	0	683	1	4	0	200	7	0	0	7
fixed	7	9	8	1495777	2	3	3	1	0	835	1	4	0	216	8	0	0	8
fixed	7	9	9	1497350	3	2	2	1	0	832	1	4	0	208	9	0	0	9
fixed	7	9	10	1498921	1	4	4	1	0	686	1	4	0	224	10	0	0	9
fixed	7	9	11	1500387	5	2	2	1	0	912	1	4	0	208	11	0	0	10
fixed	7	9	12	1501971	4	3	3	1	0	837	1	4	0	216	12	0	0	11
fixed	7	10	1	1503584	4	1	1	1	0	640	1	4	0	200	1	0	0	1
fixed	7	10	2	1504658	1	2	2	1	0	739	1	4	0	208	2	0	0	2
fixed	7	10	3	1505776	6	4	4	1	0	571	1	4	0	224	3	0	0	3
fixed	7	10	4	1506693	2	1	1	1	0	701	1	4	0	200	4	0	0	4
fixed	7	10	5	1507918	5	3	3	1	0	1001	1	4	0	216	5	0	0	4
fixed	7	10	6	1509856	6	4	4	1	0	559	1	4	0	224	6	0	0	5
fixed	7	10	7	1510721	3	1	1	1	0	746	1	4	0	200	7	0	0	6
fixed	7	10	8	1511876	2	3	3	1	0	729	1	4	0	216	8	0	0	7
fixed	7	10	9	1513187	3	2	2	1	0	498	1	4	0	208	9	0	0	8
fixed	7	10	10	1514431	1	4	4	1	0	581	1	4	0	224	10	0	0	8
fixed	7	10	11	1515568	5	2	2	1	0	837	1	4	0	208	11	0	0	9
fixed	7	10	12	1516750	4	3	3	1	0	650	1	4	0	216	12	0	0	10
