type	block	sequ.	trial	time	Pos.	Color	Button	NumRsp	Resp_1	RT_1	R_Code	Resp_2	RT_2	Trigg.	n_hit	n_inc	n_miss	score_%

random	1	1	1	2938	6	1	1	1	0	628	1	4	0	8	1	0	0	100
random	1	1	2	3857	4	4	4	1	0	925	1	4	0	32	2	0	0	100
random	1	1	3	5564	2	2	2	1	0	989	1	4	0	16	3	0	0	100
random	1	1	4	7335	3	3	3	1	0	642	1	4	0	24	4	0	0	100
random	1	1	5	8541	5	2	2	1	0	919	1	4	0	16	5	0	0	100
random	1	1	6	10137	1	4	4	1	0	604	1	4	0	32	6	0	0	100
random	1	1	7	11280	6	1	1	1	0	827	1	4	0	8	7	0	0	100
random	1	1	8	12939	2	3	3	1	0	925	1	4	0	24	8	0	0	100
random	1	1	9	14155	4	2	2	1	0	609	1	4	0	16	9	0	0	100
random	1	1	10	15412	1	1	1	1	0	796	1	4	0	8	10	0	0	100
random	1	1	11	16923	5	4	4	1	0	660	1	4	0	32	11	0	0	100
random	1	1	12	18093	3	3	3	2	0	1026	2	4	0	24	12	0	0	100
random	1	1	13	20365	5	2	2	1	0	914	1	4	0	16	13	0	0	100
random	1	1	14	22080	1	4	4	1	0	570	1	4	0	32	14	0	0	100
random	1	1	15	23273	3	1	1	1	0	735	1	4	0	8	15	0	0	100
random	1	1	16	25032	4	3	3	1	0	901	1	4	0	24	16	0	0	100
random	1	1	17	26782	6	4	4	1	0	706	1	4	0	32	17	0	0	100
random	1	1	18	28176	2	1	1	1	0	776	1	4	0	8	18	0	0	100
random	1	1	19	29530	5	3	3	1	0	806	1	4	0	24	19	0	0	100
random	1	1	20	30929	2	2	2	1	0	675	1	4	0	16	20	0	0	100
random	1	1	21	32183	3	3	3	1	0	854	1	4	0	24	21	0	0	100
random	1	1	22	33723	6	1	1	1	0	837	1	4	0	8	22	0	0	100
random	1	1	23	34869	4	2	2	2	0	1012	2	4	0	16	23	0	0	100
random	1	1	24	36721	1	4	4	1	0	621	1	4	0	32	24	0	0	100
random	1	1	25	38460	4	3	3	1	0	1028	1	4	0	24	25	0	0	100
random	1	1	26	40482	2	1	1	1	0	838	1	4	0	8	26	0	0	100
random	1	1	27	42108	5	2	2	1	0	817	1	4	0	16	27	0	0	100
random	1	1	28	43620	6	4	4	1	0	714	1	4	0	32	28	0	0	100
random	1	1	29	44737	1	3	3	1	0	1010	1	4	0	24	29	0	0	100
random	1	1	30	46112	5	2	2	1	0	991	1	4	0	16	30	0	0	100
random	1	1	31	47553	2	1	1	1	0	899	1	4	0	8	31	0	0	100
random	1	1	32	49084	3	3	3	1	0	802	1	4	0	24	32	0	0	100
random	1	1	33	50538	6	4	4	1	0	644	1	4	0	32	33	0	0	100
random	1	1	34	52051	4	2	2	1	0	628	1	4	0	16	34	0	0	100
random	1	1	35	53457	3	4	4	1	0	649	1	4	0	32	35	0	0	100
random	1	1	36	54580	1	1	1	1	0	905	1	4	0	8	36	0	0	100
random	1	1	37	56054	3	4	4	1	0	794	1	4	0	32	37	0	0	100
random	1	1	38	57889	5	3	3	1	0	965	1	4	0	24	38	0	0	100
random	1	1	39	59274	6	1	1	1	0	859	1	4	0	8	39	0	0	100
random	1	1	40	60630	1	2	2	1	0	561	1	4	0	16	40	0	0	100
random	1	1	41	61763	2	3	3	1	0	729	1	4	0	24	41	0	0	100
random	1	1	42	62922	4	4	4	1	0	744	1	4	0	32	42	0	0	100
random	1	1	43	64416	1	2	2	1	0	793	1	4	0	16	43	0	0	100
random	1	1	44	65781	6	3	3	1	0	727	1	4	0	24	44	0	0	100
random	1	1	45	67502	3	1	1	1	0	678	1	4	0	8	45	0	0	100
random	1	1	46	68678	4	4	4	1	0	620	1	4	0	32	46	0	0	100
random	1	1	47	70100	2	2	2	1	0	776	1	4	0	16	47	0	0	100
random	1	1	48	71235	5	1	1	1	0	800	1	4	0	8	48	0	0	100
random	1	1	49	72878	2	3	3	1	0	1394	1	4	0	24	49	0	0	100
random	1	1	50	74922	3	1	1	1	0	707	1	4	0	8	50	0	0	100
random	1	1	51	76042	1	4	4	1	0	628	1	4	0	32	51	0	0	100
random	1	1	52	77589	5	3	3	1	0	770	1	4	0	24	52	0	0	100
random	1	1	53	79138	3	2	2	1	0	585	1	4	0	16	53	0	0	100
random	1	1	54	80651	6	4	4	1	0	521	1	4	0	32	54	0	0	100
random	1	1	55	82050	4	2	2	1	0	685	1	4	0	16	55	0	0	100
random	1	1	56	83325	1	1	1	1	0	712	1	4	0	8	56	0	0	100
random	1	1	57	84585	5	4	4	1	0	626	1	4	0	32	57	0	0	100
random	1	1	58	86096	2	1	1	1	0	682	1	4	0	8	58	0	0	100
random	1	1	59	87659	6	2	2	1	0	856	1	4	0	16	59	0	0	100
random	1	1	60	89316	4	3	3	1	0	649	1	4	0	24	60	0	0	100
random	1	1	61	90705	1	2	2	1	0	927	1	4	0	16	61	0	0	100
random	1	1	62	92441	6	4	4	1	0	621	1	4	0	32	62	0	0	100
random	1	1	63	94105	4	1	1	1	0	759	1	4	0	8	63	0	0	100
random	1	1	64	95845	2	2	2	1	0	837	1	4	0	16	64	0	0	100
random	1	1	65	96989	4	3	3	1	0	757	1	4	0	24	65	0	0	100
random	1	1	66	98788	3	1	1	1	0	705	1	4	0	8	66	0	0	100
random	1	1	67	99924	1	3	3	1	0	873	1	4	0	24	67	0	0	100
random	1	1	68	101565	5	4	4	1	0	675	1	4	0	32	68	0	0	100
random	1	1	69	102922	2	2	2	1	0	689	1	4	0	16	69	0	0	100
random	1	1	70	104065	3	1	1	1	0	705	1	4	0	8	70	0	0	100
random	1	1	71	105389	5	4	4	1	0	649	1	4	0	32	71	0	0	100
random	1	1	72	106661	6	3	3	1	0	731	1	4	0	24	72	0	0	100
random	1	1	73	108516	2	1	1	1	0	756	1	4	0	8	73	0	0	100
random	1	1	74	109603	5	3	3	1	0	710	1	4	0	24	74	0	0	100
random	1	1	75	110665	1	4	4	1	0	634	1	4	0	32	75	0	0	100
random	1	1	76	111891	6	2	2	1	0	1125	1	4	0	16	76	0	0	100
random	1	1	77	114016	2	1	1	1	0	724	1	4	0	8	77	0	0	100
random	1	1	78	115734	4	4	4	1	0	579	1	4	0	32	78	0	0	100
random	1	1	79	117215	3	2	2	1	0	812	1	4	0	16	79	0	0	100
random	1	1	80	118340	4	3	3	1	0	652	1	4	0	24	80	0	0	100
random	1	1	81	119578	1	4	4	1	0	704	1	4	0	32	81	0	0	100
random	1	1	82	120617	5	1	1	1	0	676	1	4	0	8	82	0	0	100
random	1	1	83	121765	3	2	2	1	0	715	1	4	0	16	83	0	0	100
random	1	1	84	123163	6	3	3	1	0	793	1	4	0	24	84	0	0	100
random	1	1	85	124672	3	2	2	1	0	904	1	4	0	16	85	0	0	100
random	1	1	86	126570	1	3	3	1	0	768	1	4	0	24	86	0	0	100
random	1	1	87	128164	4	4	4	1	0	732	1	4	0	32	87	0	0	100
random	1	1	88	129495	2	1	1	1	0	708	1	4	0	8	88	0	0	100
random	1	1	89	130996	6	4	4	1	0	557	1	4	0	32	89	0	0	100
random	1	1	90	132466	3	3	3	1	0	718	1	4	0	24	90	0	0	100
random	1	1	91	133600	5	4	4	1	0	782	1	4	0	32	91	0	0	100
random	1	1	92	134747	1	2	2	1	0	765	1	4	0	16	92	0	0	100
random	1	1	93	136489	5	1	1	1	0	612	1	4	0	8	93	0	0	100
random	1	1	94	137443	4	3	3	1	0	731	1	4	0	24	94	0	0	100
random	1	1	95	138863	6	1	1	1	0	927	1	4	0	8	95	0	0	100
random	1	1	96	140128	2	2	2	1	0	1002	1	4	0	16	96	0	0	100
random	1	1	97	142014	4	3	3	1	0	1178	1	4	0	24	97	0	0	100
random	1	1	98	143601	3	2	2	1	0	510	1	4	0	16	98	0	0	100
random	1	1	99	144642	6	3	3	1	0	811	1	4	0	24	99	0	0	100
random	1	1	100	146260	1	4	4	1	0	606	1	4	0	32	100	0	0	100
random	1	1	101	147291	4	1	1	1	0	683	1	4	0	8	101	0	0	100
random	1	1	102	148495	5	2	2	1	0	791	1	4	0	16	102	0	0	100
random	1	1	103	149709	2	4	4	1	0	868	1	4	0	32	103	0	0	100
random	1	1	104	151596	3	1	1	1	0	724	1	4	0	8	104	0	0	100
random	1	1	105	152915	1	3	3	1	0	756	1	4	0	24	105	0	0	100
random	1	1	106	154174	2	2	2	1	0	791	1	4	0	16	106	0	0	100
random	1	1	107	155374	5	4	4	1	0	620	1	4	0	32	107	0	0	100
random	1	1	108	156827	6	1	1	1	0	847	1	4	0	8	108	0	0	100
random	1	1	109	158789	5	4	4	1	0	651	1	4	0	32	109	0	0	100
random	1	1	110	160028	6	3	3	1	0	927	1	4	0	24	110	0	0	100
random	1	1	111	161928	2	2	2	1	0	1006	1	4	0	16	111	0	0	100
random	1	1	112	163567	3	1	1	1	0	657	1	4	0	8	112	0	0	100
random	1	1	113	164565	1	2	2	1	0	911	1	4	0	16	113	0	0	100
random	1	1	114	166304	2	3	3	1	0	709	1	4	0	24	114	0	0	100
random	1	1	115	167307	3	1	1	1	0	698	1	4	0	8	115	0	0	100
random	1	1	116	168544	4	4	4	1	0	702	1	4	0	32	116	0	0	100
random	1	1	117	169733	6	1	1	1	0	772	1	4	0	8	117	0	0	100
random	1	1	118	171190	5	3	3	1	0	894	1	4	0	24	118	0	0	100
random	1	1	119	173093	1	4	4	1	0	845	1	4	0	32	119	0	0	100
random	1	1	120	174231	4	2	2	1	0	749	1	4	0	16	120	0	0	100
fixed	2	1	1	176062	4	1	1	1	0	631	1	4	0	40	1	0	0	100
fixed	2	1	2	177489	1	2	2	1	0	867	1	4	0	48	2	0	0	100
fixed	2	1	3	178872	6	4	4	1	0	657	1	4	0	64	3	0	0	100
fixed	2	1	4	180440	2	1	1	1	0	718	1	4	0	40	4	0	0	100
fixed	2	1	5	181896	5	3	3	1	0	752	1	4	0	56	5	0	0	100
fixed	2	1	6	183608	6	4	4	1	0	736	1	4	0	64	6	0	0	100
fixed	2	1	7	184855	3	1	1	1	0	651	1	4	0	40	7	0	0	100
fixed	2	1	8	186036	2	3	3	1	0	897	1	4	0	56	8	0	0	100
fixed	2	1	9	187708	3	2	2	1	0	698	1	4	0	48	9	0	0	100
fixed	2	1	10	189024	1	4	4	1	0	651	1	4	0	64	10	0	0	100
fixed	2	1	11	190388	5	2	2	1	0	833	1	4	0	48	11	0	0	100
fixed	2	1	12	192156	4	3	3	2	0	1190	2	4	0	56	12	0	0	100
fixed	2	2	1	194493	4	1	1	1	0	635	1	4	0	40	13	0	0	100
fixed	2	2	2	195560	1	2	2	1	0	805	1	4	0	48	14	0	0	100
fixed	2	2	3	197136	6	4	4	1	0	571	1	4	0	64	15	0	0	100
fixed	2	2	4	198523	2	1	1	1	0	672	1	4	0	40	16	0	0	100
fixed	2	2	5	200020	5	3	3	1	0	817	1	4	0	56	17	0	0	100
fixed	2	2	6	201406	6	4	4	1	0	663	1	4	0	64	18	0	0	100
fixed	2	2	7	202938	3	1	1	1	0	710	1	4	0	40	19	0	0	100
fixed	2	2	8	204606	2	3	3	1	0	767	1	4	0	56	20	0	0	100
fixed	2	2	9	206219	3	2	2	1	0	506	1	4	0	48	21	0	0	100
fixed	2	2	10	207518	1	4	4	1	0	628	1	4	0	64	22	0	0	100
fixed	2	2	11	209171	5	2	2	1	0	694	1	4	0	48	23	0	0	100
fixed	2	2	12	210590	4	3	3	1	0	961	1	4	0	56	24	0	0	100
fixed	2	3	1	212521	4	1	1	1	0	919	1	4	0	40	25	0	0	100
fixed	2	3	2	214087	1	2	2	1	0	893	1	4	0	48	26	0	0	100
fixed	2	3	3	215582	6	4	4	1	0	598	1	4	0	64	27	0	0	100
fixed	2	3	4	217092	2	1	1	1	0	638	1	4	0	40	28	0	0	100
fixed	2	3	5	218657	5	3	3	1	0	1116	1	4	0	56	29	0	0	100
fixed	2	3	6	220547	6	4	4	1	0	676	1	4	0	64	30	0	0	100
fixed	2	3	7	221842	3	1	1	1	0	732	1	4	0	40	31	0	0	100
fixed	2	3	8	223249	2	3	3	2	0	1433	2	4	0	56	32	0	0	100
fixed	2	3	9	225195	3	2	2	1	0	591	1	4	0	48	33	0	0	100
fixed	2	3	10	226293	1	4	4	1	0	648	1	4	0	64	34	0	0	100
fixed	2	3	11	227350	5	2	2	1	0	692	1	4	0	48	35	0	0	100
fixed	2	3	12	228494	4	3	3	1	0	619	1	4	0	56	36	0	0	100
fixed	2	4	1	230114	4	1	1	1	0	694	1	4	0	40	37	0	0	100
fixed	2	4	2	231835	1	2	2	1	0	973	1	4	0	48	38	0	0	100
fixed	2	4	3	233162	6	4	4	1	0	565	1	4	0	64	39	0	0	100
fixed	2	4	4	234547	2	1	1	1	0	731	1	4	0	40	40	0	0	100
fixed	2	4	5	236074	5	3	3	1	0	714	1	4	0	56	41	0	0	100
fixed	2	4	6	237555	6	4	4	1	0	571	1	4	0	64	42	0	0	100
fixed	2	4	7	239084	3	1	1	1	0	746	1	4	0	40	43	0	0	100
fixed	2	4	8	240637	2	3	3	2	0	736	2	4	0	56	44	0	0	100
fixed	2	4	9	242404	3	2	2	1	0	670	1	4	0	48	45	0	0	100
fixed	2	4	10	243968	1	4	4	1	0	532	1	4	0	64	46	0	0	100
fixed	2	4	11	245051	5	2	2	1	0	718	1	4	0	48	47	0	0	100
fixed	2	4	12	246099	4	3	3	1	0	962	1	4	0	56	48	0	0	100
fixed	2	5	1	247757	4	1	1	1	0	683	1	4	0	40	49	0	0	100
fixed	2	5	2	249304	1	2	2	1	0	962	1	4	0	48	50	0	0	100
fixed	2	5	3	250982	6	4	4	1	0	538	1	4	0	64	51	0	0	100
fixed	2	5	4	252023	2	1	1	1	0	710	1	4	0	40	52	0	0	100
fixed	2	5	5	253210	5	3	3	1	0	716	1	4	0	56	53	0	0	100
fixed	2	5	6	254876	6	4	4	1	0	645	1	4	0	64	54	0	0	100
fixed	2	5	7	255999	3	1	1	1	0	758	1	4	0	40	55	0	0	100
fixed	2	5	8	257482	2	3	3	1	0	863	1	4	0	56	56	0	0	100
fixed	2	5	9	259297	3	2	2	1	0	619	1	4	0	48	57	0	0	100
fixed	2	5	10	260635	1	4	4	1	0	570	1	4	0	64	58	0	0	100
fixed	2	5	11	261598	5	2	2	1	0	937	1	4	0	48	59	0	0	100
fixed	2	5	12	263333	4	3	3	1	0	671	1	4	0	56	60	0	0	100
fixed	2	6	1	265267	4	1	1	1	0	709	1	4	0	40	61	0	0	100
fixed	2	6	2	266795	1	2	2	1	0	797	1	4	0	48	62	0	0	100
fixed	2	6	3	268617	6	4	4	1	0	576	1	4	0	64	63	0	0	100
fixed	2	6	4	270191	2	1	1	1	0	789	1	4	0	40	64	0	0	100
fixed	2	6	5	271786	5	3	3	1	0	1081	1	4	0	56	65	0	0	100
fixed	2	6	6	273436	6	4	4	1	0	595	1	4	0	64	66	0	0	100
fixed	2	6	7	274385	3	1	1	1	0	747	1	4	0	40	67	0	0	100
fixed	2	6	8	276075	2	3	3	3	0	1507	2	4	0	56	68	0	0	100
fixed	2	6	9	278125	3	2	2	1	0	645	1	4	0	48	69	0	0	100
fixed	2	6	10	279608	1	4	4	1	0	614	1	4	0	64	70	0	0	100
fixed	2	6	11	281123	5	2	2	1	0	734	1	4	0	48	71	0	0	100
fixed	2	6	12	282752	4	3	3	1	0	969	1	4	0	56	72	0	0	100
fixed	2	7	1	284982	4	1	1	1	0	658	1	4	0	40	73	0	0	100
fixed	2	7	2	286412	1	2	2	1	0	718	1	4	0	48	74	0	0	100
fixed	2	7	3	288007	6	4	4	1	0	650	1	4	0	64	75	0	0	100
fixed	2	7	4	289148	2	1	1	1	0	730	1	4	0	40	76	0	0	100
fixed	2	7	5	290517	5	3	3	1	0	704	1	4	0	56	77	0	0	100
fixed	2	7	6	291891	6	4	4	1	0	774	1	4	0	64	78	0	0	100
fixed	2	7	7	293217	3	1	1	1	0	909	1	4	0	40	79	0	0	100
fixed	2	7	8	294630	2	3	3	1	0	874	1	4	0	56	80	0	0	100
fixed	2	7	9	296376	3	2	2	1	0	472	1	4	0	48	81	0	0	100
fixed	2	7	10	297284	1	4	4	1	0	697	1	4	0	64	82	0	0	100
fixed	2	7	11	298944	5	2	2	1	0	979	1	4	0	48	83	0	0	100
fixed	2	7	12	300735	4	3	3	1	0	703	1	4	0	56	84	0	0	100
fixed	2	8	1	302525	4	1	1	1	0	635	1	4	0	40	85	0	0	100
fixed	2	8	2	303539	1	2	2	1	0	921	1	4	0	48	86	0	0	100
fixed	2	8	3	304994	6	4	4	1	0	747	1	4	0	64	87	0	0	100
fixed	2	8	4	306654	2	1	1	1	0	716	1	4	0	40	88	0	0	100
fixed	2	8	5	308041	5	3	3	1	0	722	1	4	0	56	89	0	0	100
fixed	2	8	6	309250	6	4	4	1	0	687	1	4	0	64	90	0	0	100
fixed	2	8	7	310914	3	1	1	1	0	680	1	4	0	40	91	0	0	100
fixed	2	8	8	312349	2	3	3	1	0	779	1	4	0	56	92	0	0	100
fixed	2	8	9	314048	3	2	2	1	0	532	1	4	0	48	93	0	0	100
fixed	2	8	10	315160	1	4	4	1	0	540	1	4	0	64	94	0	0	100
fixed	2	8	11	316688	5	2	2	1	0	692	1	4	0	48	95	0	0	100
fixed	2	8	12	318007	4	3	3	1	0	564	1	4	0	56	96	0	0	100
fixed	2	9	1	319283	4	1	1	1	0	653	1	4	0	40	97	0	0	100
fixed	2	9	2	320404	1	2	2	1	0	910	1	4	0	48	98	0	0	100
fixed	2	9	3	321897	6	4	4	1	0	551	1	4	0	64	99	0	0	100
fixed	2	9	4	323275	2	1	1	1	0	780	1	4	0	40	100	0	0	100
fixed	2	9	5	324489	5	3	3	1	0	706	1	4	0	56	101	0	0	100
fixed	2	9	6	325735	6	4	4	1	0	588	1	4	0	64	102	0	0	100
fixed	2	9	7	326798	3	1	1	1	0	799	1	4	0	40	103	0	0	100
fixed	2	9	8	328619	2	3	3	1	0	1155	1	4	0	56	104	0	0	100
fixed	2	9	9	330394	3	2	2	1	0	431	1	4	0	48	105	0	0	100
fixed	2	9	10	331681	1	4	4	1	0	568	1	4	0	64	106	0	0	100
fixed	2	9	11	332861	5	2	2	1	0	663	1	4	0	48	107	0	0	100
fixed	2	9	12	334038	4	3	3	1	0	645	1	4	0	56	108	0	0	100
fixed	2	10	1	335289	4	1	1	1	0	631	1	4	0	40	109	0	0	100
fixed	2	10	2	336696	1	2	2	1	0	820	1	4	0	48	110	0	0	100
fixed	2	10	3	337884	6	4	4	1	0	634	1	4	0	64	111	0	0	100
fixed	2	10	4	339163	2	1	1	1	0	715	1	4	0	40	112	0	0	100
fixed	2	10	5	340349	5	3	3	1	0	865	1	4	0	56	113	0	0	100
fixed	2	10	6	341948	6	4	4	1	0	702	1	4	0	64	114	0	0	100
fixed	2	10	7	343520	3	1	1	1	0	803	1	4	0	40	115	0	0	100
fixed	2	10	8	344720	2	3	3	1	0	888	1	4	0	56	116	0	0	100
fixed	2	10	9	346073	3	2	2	1	0	519	1	4	0	48	117	0	0	100
fixed	2	10	10	347031	1	4	4	1	0	583	1	4	0	64	118	0	0	100
fixed	2	10	11	348476	5	2	2	1	0	673	1	4	0	48	119	0	0	100
fixed	2	10	12	349747	4	3	3	1	0	755	1	4	0	56	120	0	0	100
fixed	3	1	1	352044	4	1	1	1	0	538	1	4	0	72	1	0	0	100
fixed	3	1	2	353215	1	2	2	1	0	816	1	4	0	80	2	0	0	100
fixed	3	1	3	354541	6	4	4	1	0	664	1	4	0	96	3	0	0	100
fixed	3	1	4	356062	2	1	1	1	0	880	1	4	0	72	4	0	0	100
fixed	3	1	5	357926	5	3	3	1	0	705	1	4	0	88	5	0	0	100
fixed	3	1	6	358940	6	4	4	1	0	726	1	4	0	96	6	0	0	100
fixed	3	1	7	360602	3	1	1	1	0	767	1	4	0	72	7	0	0	100
fixed	3	1	8	362276	2	3	3	1	0	1089	1	4	0	88	8	0	0	100
fixed	3	1	9	363973	3	2	2	1	0	1056	1	4	0	80	9	0	0	100
fixed	3	1	10	366059	1	4	4	1	0	865	1	4	0	96	10	0	0	100
fixed	3	1	11	367926	5	2	2	1	0	937	1	4	0	80	11	0	0	100
fixed	3	1	12	369823	4	3	3	1	0	841	1	4	0	88	12	0	0	100
fixed	3	2	1	371227	4	1	1	1	0	621	1	4	0	72	13	0	0	100
fixed	3	2	2	372530	1	2	2	1	0	1022	1	4	0	80	14	0	0	100
fixed	3	2	3	374088	6	4	4	1	0	644	1	4	0	96	15	0	0	100
fixed	3	2	4	375613	2	1	1	1	0	788	1	4	0	72	16	0	0	100
fixed	3	2	5	377360	5	3	3	1	0	762	1	4	0	88	17	0	0	100
fixed	3	2	6	378863	6	4	4	1	0	674	1	4	0	96	18	0	0	100
fixed	3	2	7	379903	3	1	1	1	0	702	1	4	0	72	19	0	0	100
fixed	3	2	8	380988	2	3	3	1	0	840	1	4	0	88	20	0	0	100
fixed	3	2	9	382330	3	2	2	1	0	599	1	4	0	80	21	0	0	100
fixed	3	2	10	383438	1	4	4	1	0	584	1	4	0	96	22	0	0	100
fixed	3	2	11	384348	5	2	2	1	0	730	1	4	0	80	23	0	0	100
fixed	3	2	12	385941	4	3	3	1	0	639	1	4	0	88	24	0	0	100
fixed	3	3	1	387183	4	1	1	1	0	642	1	4	0	72	25	0	0	100
fixed	3	3	2	388556	1	2	2	1	0	1135	1	4	0	80	26	0	0	100
fixed	3	3	3	390083	6	4	4	1	0	687	1	4	0	96	27	0	0	100
fixed	3	3	4	391494	2	1	1	1	0	627	1	4	0	72	28	0	0	100
fixed	3	3	5	392908	5	3	3	1	0	687	1	4	0	88	29	0	0	100
fixed	3	3	6	394519	6	4	4	1	0	803	1	4	0	96	30	0	0	100
fixed	3	3	7	395781	3	1	1	1	0	934	1	4	0	72	31	0	0	100
fixed	3	3	8	397206	2	3	3	1	0	985	1	4	0	88	32	0	0	100
fixed	3	3	9	399130	3	2	2	1	0	656	1	4	0	80	33	0	0	100
fixed	3	3	10	400089	1	4	4	1	0	623	1	4	0	96	34	0	0	100
fixed	3	3	11	401726	5	2	2	1	0	802	1	4	0	80	35	0	0	100
fixed	3	3	12	402835	4	3	3	1	0	874	1	4	0	88	36	0	0	100
fixed	3	4	1	404625	4	1	1	1	0	687	1	4	0	72	37	0	0	100
fixed	3	4	2	406036	1	2	2	1	0	859	1	4	0	80	38	0	0	100
fixed	3	4	3	407561	6	4	4	1	0	563	1	4	0	96	39	0	0	100
fixed	3	4	4	408564	2	1	1	1	0	768	1	4	0	72	40	0	0	100
fixed	3	4	5	410160	5	3	3	1	0	788	1	4	0	88	41	0	0	100
fixed	3	4	6	411335	6	4	4	1	0	651	1	4	0	96	42	0	0	100
fixed	3	4	7	412909	3	1	1	1	0	776	1	4	0	72	43	0	0	100
fixed	3	4	8	414664	2	3	3	1	0	917	1	4	0	88	44	0	0	100
fixed	3	4	9	416313	3	2	2	1	0	496	1	4	0	80	45	0	0	100
fixed	3	4	10	417247	1	4	4	1	0	512	1	4	0	96	46	0	0	100
fixed	3	4	11	418262	5	2	2	1	0	829	1	4	0	80	47	0	0	100
fixed	3	4	12	419419	4	3	3	1	0	932	1	4	0	88	48	0	0	100
fixed	3	5	1	421149	4	1	1	1	0	691	1	4	0	72	49	0	0	100
fixed	3	5	2	422193	1	2	2	1	0	911	1	4	0	80	50	0	0	100
fixed	3	5	3	423934	6	4	4	1	0	645	1	4	0	96	51	0	0	100
fixed	3	5	4	425550	2	1	1	1	0	689	1	4	0	72	52	0	0	100
fixed	3	5	5	427000	5	3	3	1	0	763	1	4	0	88	53	0	0	100
fixed	3	5	6	428797	6	4	4	1	0	591	1	4	0	96	54	0	0	100
fixed	3	5	7	430002	3	1	1	1	0	716	1	4	0	72	55	0	0	100
fixed	3	5	8	431513	2	3	3	1	0	1004	1	4	0	88	56	0	0	100
fixed	3	5	9	432838	3	2	2	1	0	636	1	4	0	80	57	0	0	100
fixed	3	5	10	433896	1	4	4	1	0	591	1	4	0	96	58	0	0	100
fixed	3	5	11	434963	5	2	2	1	0	754	1	4	0	80	59	0	0	100
fixed	3	5	12	436323	4	3	3	1	0	696	1	4	0	88	60	0	0	100
fixed	3	6	1	437924	4	1	1	1	0	756	1	4	0	72	61	0	0	100
fixed	3	6	2	439519	1	2	2	1	0	1057	1	4	0	80	62	0	0	100
fixed	3	6	3	441587	6	4	4	1	0	513	1	4	0	96	63	0	0	100
fixed	3	6	4	443039	2	1	1	1	0	780	1	4	0	72	64	0	0	100
fixed	3	6	5	444110	5	3	3	1	0	687	1	4	0	88	65	0	0	100
fixed	3	6	6	445482	6	4	4	1	0	636	1	4	0	96	66	0	0	100
fixed	3	6	7	446588	3	1	1	2	0	1134	2	4	0	72	67	0	0	100
fixed	3	6	8	448592	2	3	3	1	0	841	1	4	0	88	68	0	0	100
fixed	3	6	9	449732	3	2	2	1	0	513	1	4	0	80	69	0	0	100
fixed	3	6	10	450574	1	4	4	1	0	557	1	4	0	96	70	0	0	100
fixed	3	6	11	452055	5	2	2	1	0	854	1	4	0	80	71	0	0	100
fixed	3	6	12	453235	4	3	3	1	0	772	1	4	0	88	72	0	0	100
fixed	3	7	1	455149	4	1	1	1	0	691	1	4	0	72	73	0	0	100
fixed	3	7	2	456718	1	2	2	1	0	1080	1	4	0	80	74	0	0	100
fixed	3	7	3	458603	6	4	4	1	0	641	1	4	0	96	75	0	0	100
fixed	3	7	4	460217	2	1	1	1	0	700	1	4	0	72	76	0	0	100
fixed	3	7	5	461233	5	3	3	1	0	657	1	4	0	88	77	0	0	100
fixed	3	7	6	462319	6	4	4	1	0	675	1	4	0	96	78	0	0	100
fixed	3	7	7	464027	3	1	1	1	0	675	1	4	0	72	79	0	0	100
fixed	3	7	8	465275	2	3	3	1	0	878	1	4	0	88	80	0	0	100
fixed	3	7	9	466683	3	2	2	1	0	538	1	4	0	80	81	0	0	100
fixed	3	7	10	468192	1	4	4	1	0	627	1	4	0	96	82	0	0	100
fixed	3	7	11	469680	5	2	2	1	0	788	1	4	0	80	83	0	0	100
fixed	3	7	12	471470	4	3	3	1	0	567	1	4	0	88	84	0	0	100
fixed	3	8	1	472993	4	1	1	1	0	679	1	4	0	72	85	0	0	100
fixed	3	8	2	474119	1	2	2	1	0	744	1	4	0	80	86	0	0	100
fixed	3	8	3	475214	6	4	4	1	0	609	1	4	0	96	87	0	0	100
fixed	3	8	4	476162	2	1	1	1	0	689	1	4	0	72	88	0	0	100
fixed	3	8	5	477676	5	3	3	1	0	665	1	4	0	88	89	0	0	100
fixed	3	8	6	478839	6	4	4	1	0	639	1	4	0	96	90	0	0	100
fixed	3	8	7	480324	3	1	1	1	0	697	1	4	0	72	91	0	0	100
fixed	3	8	8	481386	2	3	3	1	0	884	1	4	0	88	92	0	0	100
fixed	3	8	9	482706	3	2	2	1	0	628	1	4	0	80	93	0	0	100
fixed	3	8	10	484105	1	4	4	1	0	688	1	4	0	96	94	0	0	100
fixed	3	8	11	485523	5	2	2	1	0	884	1	4	0	80	95	0	0	100
fixed	3	8	12	486907	4	3	3	1	0	442	1	4	0	88	96	0	0	100
fixed	3	9	1	488314	4	1	1	1	0	662	1	4	0	72	97	0	0	100
fixed	3	9	2	489933	1	2	2	1	0	713	1	4	0	80	98	0	0	100
fixed	3	9	3	491099	6	4	4	1	0	617	1	4	0	96	99	0	0	100
fixed	3	9	4	492153	2	1	1	1	0	756	1	4	0	72	100	0	0	100
fixed	3	9	5	493477	5	3	3	1	0	795	1	4	0	88	101	0	0	100
fixed	3	9	6	495183	6	4	4	1	0	603	1	4	0	96	102	0	0	100
fixed	3	9	7	496534	3	1	1	1	0	650	1	4	0	72	103	0	0	100
fixed	3	9	8	497895	2	3	3	1	0	737	1	4	0	88	104	0	0	100
fixed	3	9	9	499254	3	2	2	1	0	655	1	4	0	80	105	0	0	100
fixed	3	9	10	500776	1	4	4	1	0	630	1	4	0	96	106	0	0	100
fixed	3	9	11	502446	5	2	2	1	0	679	1	4	0	80	107	0	0	100
fixed	3	9	12	503721	4	3	3	1	0	762	1	4	0	88	108	0	0	100
fixed	3	10	1	505323	4	1	1	1	0	630	1	4	0	72	109	0	0	100
fixed	3	10	2	506684	1	2	2	1	0	1060	1	4	0	80	110	0	0	100
fixed	3	10	3	508640	6	4	4	1	0	506	1	4	0	96	111	0	0	100
fixed	3	10	4	510144	2	1	1	1	0	794	1	4	0	72	112	0	0	100
fixed	3	10	5	511277	5	3	3	1	0	1034	1	4	0	88	113	0	0	100
fixed	3	10	6	513304	6	4	4	1	0	628	1	4	0	96	114	0	0	100
fixed	3	10	7	514546	3	1	1	1	0	775	1	4	0	72	115	0	0	100
fixed	3	10	8	515859	2	3	3	1	0	848	1	4	0	88	116	0	0	100
fixed	3	10	9	517411	3	2	2	1	0	758	1	4	0	80	117	0	0	100
fixed	3	10	10	519085	1	4	4	1	0	543	1	4	0	96	118	0	0	100
fixed	3	10	11	520269	5	2	2	1	0	1453	1	4	0	80	119	0	0	100
fixed	3	10	12	522732	4	3	3	1	0	620	1	4	0	88	120	0	0	100
fixed	4	1	1	670091	4	1	1	1	0	1043	1	4	0	104	1	0	0	100
fixed	4	1	2	671750	1	2	2	2	0	1029	2	4	0	112	2	0	0	100
fixed	4	1	3	673523	6	4	4	1	0	642	1	4	0	128	3	0	0	100
fixed	4	1	4	674963	2	1	1	1	0	685	1	4	0	104	4	0	0	100
fixed	4	1	5	676467	5	3	3	1	0	757	1	4	0	120	5	0	0	100
fixed	4	1	6	678147	6	4	4	1	0	646	1	4	0	128	6	0	0	100
fixed	4	1	7	679701	3	1	1	1	0	724	1	4	0	104	7	0	0	100
fixed	4	1	8	681463	2	3	3	1	0	906	1	4	0	120	8	0	0	100
fixed	4	1	9	682779	3	2	2	1	0	714	1	4	0	112	9	0	0	100
fixed	4	1	10	683792	1	4	4	1	0	655	1	4	0	128	10	0	0	100
fixed	4	1	11	685184	5	2	2	1	0	892	1	4	0	112	11	0	0	100
fixed	4	1	12	687104	4	3	3	1	0	930	1	4	0	120	12	0	0	100
fixed	4	2	1	688839	4	1	1	1	0	761	1	4	0	104	13	0	0	100
fixed	4	2	2	690479	1	2	2	1	0	835	1	4	0	112	14	0	0	100
fixed	4	2	3	691696	6	4	4	1	0	592	1	4	0	128	15	0	0	100
fixed	4	2	4	693054	2	1	1	1	0	727	1	4	0	104	16	0	0	100
fixed	4	2	5	694080	5	3	3	1	0	779	1	4	0	120	17	0	0	100
fixed	4	2	6	695417	6	4	4	1	0	627	1	4	0	128	18	0	0	100
fixed	4	2	7	696337	3	1	1	1	0	740	1	4	0	104	19	0	0	100
fixed	4	2	8	697789	2	3	3	1	0	830	1	4	0	120	20	0	0	100
fixed	4	2	9	698924	3	2	2	1	0	926	1	4	0	112	21	0	0	100
fixed	4	2	10	700270	1	4	4	1	0	637	1	4	0	128	22	0	0	100
fixed	4	2	11	701652	5	2	2	1	0	826	1	4	0	112	23	0	0	100
fixed	4	2	12	703504	4	3	3	1	0	780	1	4	0	120	24	0	0	100
fixed	4	3	1	705380	4	1	1	1	0	756	1	4	0	104	25	0	0	100
fixed	4	3	2	707153	1	2	2	1	0	1001	1	4	0	112	26	0	0	100
fixed	4	3	3	708676	6	4	4	1	0	633	1	4	0	128	27	0	0	100
fixed	4	3	4	709809	2	1	1	1	0	929	1	4	0	104	28	0	0	100
fixed	4	3	5	711470	5	3	3	1	0	683	1	4	0	120	29	0	0	100
fixed	4	3	6	712560	6	4	4	1	0	669	1	4	0	128	30	0	0	100
fixed	4	3	7	713703	3	1	1	1	0	804	1	4	0	104	31	0	0	100
fixed	4	3	8	715004	2	3	3	1	0	837	1	4	0	120	32	0	0	100
fixed	4	3	9	716680	3	2	2	1	0	486	1	4	0	112	33	0	0	100
fixed	4	3	10	717973	1	4	4	1	0	703	1	4	0	128	34	0	0	100
fixed	4	3	11	719197	5	2	2	1	0	1019	1	4	0	112	35	0	0	100
fixed	4	3	12	720645	4	3	3	1	0	678	1	4	0	120	36	0	0	100
fixed	4	4	1	722438	4	1	1	1	0	874	1	4	0	104	37	0	0	100
fixed	4	4	2	723763	1	2	2	1	0	1082	1	4	0	112	38	0	0	100
fixed	4	4	3	725503	6	4	4	1	0	1712	1	4	0	128	39	0	0	100
fixed	4	4	4	728051	2	1	1	1	0	884	1	4	0	104	40	0	0	100
fixed	4	4	5	729427	5	3	3	1	0	778	1	4	0	120	41	0	0	100
fixed	4	4	6	730791	6	4	4	1	0	688	1	4	0	128	42	0	0	100
fixed	4	4	7	731887	3	1	1	1	0	842	1	4	0	104	43	0	0	100
fixed	4	4	8	733263	2	3	3	1	0	855	1	4	0	120	44	0	0	100
fixed	4	4	9	735024	3	2	2	1	0	701	1	4	0	112	45	0	0	100
fixed	4	4	10	736423	1	4	4	1	0	625	1	4	0	128	46	0	0	100
fixed	4	4	11	737920	5	2	2	1	0	874	1	4	0	112	47	0	0	100
fixed	4	4	12	739746	4	3	3	1	0	1037	1	4	0	120	48	0	0	100
fixed	4	5	1	741752	4	1	1	1	0	728	1	4	0	104	49	0	0	100
fixed	4	5	2	743450	1	2	2	1	0	880	1	4	0	112	50	0	0	100
fixed	4	5	3	744864	6	4	4	1	0	588	1	4	0	128	51	0	0	100
fixed	4	5	4	746229	2	1	1	1	0	770	1	4	0	104	52	0	0	100
fixed	4	5	5	747731	5	3	3	1	0	850	1	4	0	120	53	0	0	100
fixed	4	5	6	749590	6	4	4	1	0	676	1	4	0	128	54	0	0	100
fixed	4	5	7	751150	3	1	1	1	0	706	1	4	0	104	55	0	0	100
fixed	4	5	8	752354	2	3	3	1	0	879	1	4	0	120	56	0	0	100
fixed	4	5	9	753552	3	2	2	1	0	644	1	4	0	112	57	0	0	100
fixed	4	5	10	754920	1	4	4	1	0	530	1	4	0	128	58	0	0	100
fixed	4	5	11	755822	5	2	2	1	0	756	1	4	0	112	59	0	0	100
fixed	4	5	12	757610	4	3	3	1	0	696	1	4	0	120	60	0	0	100
fixed	4	6	1	759446	4	1	1	1	0	738	1	4	0	104	61	0	0	100
fixed	4	6	2	760613	1	2	2	1	0	753	1	4	0	112	62	0	0	100
fixed	4	6	3	762372	6	4	4	1	0	614	1	4	0	128	63	0	0	100
fixed	4	6	4	763488	2	1	1	1	0	743	1	4	0	104	64	0	0	100
fixed	4	6	5	764663	5	3	3	1	0	750	1	4	0	120	65	0	0	100
fixed	4	6	6	766023	6	4	4	1	0	708	1	4	0	128	66	0	0	100
fixed	4	6	7	767524	3	1	1	1	0	901	1	4	0	104	67	0	0	100
fixed	4	6	8	768851	2	3	3	1	0	1332	1	4	0	120	68	0	0	100
fixed	4	6	9	770552	3	2	2	1	0	644	1	4	0	112	69	0	0	100
fixed	4	6	10	771815	1	4	4	1	0	615	1	4	0	128	70	0	0	100
fixed	4	6	11	773338	5	2	2	1	0	934	1	4	0	112	71	0	0	100
fixed	4	6	12	774646	4	3	3	1	0	639	1	4	0	120	72	0	0	100
fixed	4	7	1	776454	4	1	1	1	0	754	1	4	0	104	73	0	0	100
fixed	4	7	2	777855	1	2	2	1	0	1150	1	4	0	112	74	0	0	100
fixed	4	7	3	780017	6	4	4	1	0	571	1	4	0	128	75	0	0	100
fixed	4	7	4	781248	2	1	1	1	0	775	1	4	0	104	76	0	0	100
fixed	4	7	5	782801	5	3	3	1	0	741	1	4	0	120	77	0	0	100
fixed	4	7	6	784082	6	4	4	1	0	639	1	4	0	128	78	0	0	100
fixed	4	7	7	785192	3	1	1	1	0	728	1	4	0	104	79	0	0	100
fixed	4	7	8	786654	2	3	3	1	0	858	1	4	0	120	80	0	0	100
fixed	4	7	9	788527	3	2	2	1	0	739	1	4	0	112	81	0	0	100
fixed	4	7	10	789936	1	4	4	1	0	567	1	4	0	128	82	0	0	100
fixed	4	7	11	791209	5	2	2	1	0	1153	1	4	0	112	83	0	0	100
fixed	4	7	12	793004	4	3	3	1	0	557	1	4	0	120	84	0	0	100
fixed	4	8	1	794214	4	1	1	1	0	786	1	4	0	104	85	0	0	100
fixed	4	8	2	795301	1	2	2	1	0	820	1	4	0	112	86	0	0	100
fixed	4	8	3	797076	6	4	4	1	0	569	1	4	0	128	87	0	0	100
fixed	4	8	4	798282	2	1	1	1	0	758	1	4	0	104	88	0	0	100
fixed	4	8	5	799625	5	3	3	1	0	668	1	4	0	120	89	0	0	100
fixed	4	8	6	800689	6	4	4	1	0	672	1	4	0	128	90	0	0	100
fixed	4	8	7	802089	3	1	1	1	0	852	1	4	0	104	91	0	0	100
fixed	4	8	8	803655	2	3	3	1	0	914	1	4	0	120	92	0	0	100
fixed	4	8	9	804935	3	2	2	1	0	532	1	4	0	112	93	0	0	100
fixed	4	8	10	805836	1	4	4	1	0	702	1	4	0	128	94	0	0	100
fixed	4	8	11	806862	5	2	2	1	0	650	1	4	0	112	95	0	0	100
fixed	4	8	12	808526	4	3	3	1	0	1076	1	4	0	120	96	0	0	100
fixed	4	9	1	810655	4	1	1	1	0	729	1	4	0	104	97	0	0	100
fixed	4	9	2	812081	1	2	2	1	0	893	1	4	0	112	98	0	0	100
fixed	4	9	3	813611	6	4	4	1	0	700	1	4	0	128	99	0	0	100
fixed	4	9	4	815088	2	1	1	1	0	734	1	4	0	104	100	0	0	100
fixed	4	9	5	816817	5	3	3	1	0	1029	1	4	0	120	101	0	0	100
fixed	4	9	6	818406	6	4	4	1	0	609	1	4	0	128	102	0	0	100
fixed	4	9	7	819557	3	1	1	2	0	1192	2	4	0	104	103	0	0	100
fixed	4	9	8	821373	2	3	3	1	0	860	1	4	0	120	104	0	0	100
fixed	4	9	9	822815	3	2	2	1	0	782	1	4	0	112	105	0	0	100
fixed	4	9	10	823994	1	4	4	1	0	701	1	4	0	128	106	0	0	100
fixed	4	9	11	825356	5	2	2	1	0	771	1	4	0	112	107	0	0	100
fixed	4	9	12	826986	4	3	3	1	0	846	1	4	0	120	108	0	0	100
fixed	4	10	1	828866	4	1	1	1	0	782	1	4	0	104	109	0	0	100
fixed	4	10	2	830088	1	2	2	1	0	866	1	4	0	112	110	0	0	100
fixed	4	10	3	831814	6	4	4	1	0	665	1	4	0	128	111	0	0	100
fixed	4	10	4	832931	2	1	1	1	0	842	1	4	0	104	112	0	0	100
fixed	4	10	5	834807	5	3	3	1	0	955	1	4	0	120	113	0	0	100
fixed	4	10	6	836171	6	4	4	1	0	665	1	4	0	128	114	0	0	100
fixed	4	10	7	837714	3	1	1	1	0	856	1	4	0	104	115	0	0	100
fixed	4	10	8	838945	2	3	3	1	0	883	1	4	0	120	116	0	0	100
fixed	4	10	9	840639	3	2	2	1	0	612	1	4	0	112	117	0	0	100
fixed	4	10	10	841655	1	4	4	1	0	601	1	4	0	128	118	0	0	100
fixed	4	10	11	843273	5	2	2	1	0	948	1	4	0	112	119	0	0	100
fixed	4	10	12	844679	4	3	3	1	0	729	1	4	0	120	120	0	0	100
fixed	5	1	1	846507	4	1	1	1	0	579	1	4	0	136	1	0	0	100
fixed	5	1	2	847387	1	2	2	1	0	854	1	4	0	144	2	0	0	100
fixed	5	1	3	849229	6	4	4	1	0	624	1	4	0	160	3	0	0	100
fixed	5	1	4	850550	2	1	1	1	0	816	1	4	0	136	4	0	0	100
fixed	5	1	5	851872	5	3	3	1	0	776	1	4	0	152	5	0	0	100
fixed	5	1	6	852971	6	4	4	1	0	634	1	4	0	160	6	0	0	100
fixed	5	1	7	853965	3	1	1	1	0	775	1	4	0	136	7	0	0	100
fixed	5	1	8	855128	2	3	3	1	0	926	1	4	0	152	8	0	0	100
fixed	5	1	9	856722	3	2	2	1	0	738	1	4	0	144	9	0	0	100
fixed	5	1	10	858048	1	4	4	1	0	586	1	4	0	160	10	0	0	100
fixed	5	1	11	859537	5	2	2	1	0	843	1	4	0	144	11	0	0	100
fixed	5	1	12	861272	4	3	3	1	0	922	1	4	0	152	12	0	0	100
fixed	5	2	1	863351	4	1	1	1	0	673	1	4	0	136	13	0	0	100
fixed	5	2	2	864465	1	2	2	2	0	1627	2	4	0	144	14	0	0	100
fixed	5	2	3	866861	6	4	4	1	0	565	1	4	0	160	15	0	0	100
fixed	5	2	4	867950	2	1	1	1	0	831	1	4	0	136	16	0	0	100
fixed	5	2	5	869123	5	3	3	1	0	877	1	4	0	152	17	0	0	100
fixed	5	2	6	870820	6	4	4	1	0	661	1	4	0	160	18	0	0	100
fixed	5	2	7	872368	3	1	1	1	0	820	1	4	0	136	19	0	0	100
fixed	5	2	8	873717	2	3	3	1	0	883	1	4	0	152	20	0	0	100
fixed	5	2	9	875441	3	2	2	1	0	714	1	4	0	144	21	0	0	100
fixed	5	2	10	877014	1	4	4	1	0	591	1	4	0	160	22	0	0	100
fixed	5	2	11	878058	5	2	2	1	0	931	1	4	0	144	23	0	0	100
fixed	5	2	12	879800	4	3	3	1	0	737	1	4	0	152	24	0	0	100
fixed	5	3	1	881545	4	1	1	1	0	719	1	4	0	136	25	0	0	100
fixed	5	3	2	883303	1	2	2	1	0	1116	1	4	0	144	26	0	0	100
fixed	5	3	3	885099	6	4	4	1	0	625	1	4	0	160	27	0	0	100
fixed	5	3	4	886572	2	1	1	1	0	786	1	4	0	136	28	0	0	100
fixed	5	3	5	887891	5	3	3	1	0	786	1	4	0	152	29	0	0	100
fixed	5	3	6	889389	6	4	4	1	0	635	1	4	0	160	30	0	0	100
fixed	5	3	7	890914	3	1	1	1	0	843	1	4	0	136	31	0	0	100
fixed	5	3	8	892148	2	3	3	1	0	1014	1	4	0	152	32	0	0	100
fixed	5	3	9	894030	3	2	2	1	0	686	1	4	0	144	33	0	0	100
fixed	5	3	10	895033	1	4	4	1	0	636	1	4	0	160	34	0	0	100
fixed	5	3	11	896398	5	2	2	1	0	738	1	4	0	144	35	0	0	100
fixed	5	3	12	898024	4	3	3	1	0	661	1	4	0	152	36	0	0	100
fixed	5	4	1	899606	4	1	1	1	0	626	1	4	0	136	37	0	0	100
fixed	5	4	2	901156	1	2	2	1	0	817	1	4	0	144	38	0	0	100
fixed	5	4	3	902903	6	4	4	1	0	582	1	4	0	160	39	0	0	100
fixed	5	4	4	904163	2	1	1	1	0	721	1	4	0	136	40	0	0	100
fixed	5	4	5	905345	5	3	3	1	0	727	1	4	0	152	41	0	0	100
fixed	5	4	6	906968	6	4	4	1	0	826	1	4	0	160	42	0	0	100
fixed	5	4	7	908375	3	1	1	1	0	750	1	4	0	136	43	0	0	100
fixed	5	4	8	909727	2	3	3	1	0	782	1	4	0	152	44	0	0	100
fixed	5	4	9	911372	3	2	2	1	0	720	1	4	0	144	45	0	0	100
fixed	5	4	10	912732	1	4	4	1	0	678	1	4	0	160	46	0	0	100
fixed	5	4	11	914236	5	2	2	1	0	695	1	4	0	144	47	0	0	100
fixed	5	4	12	915702	4	3	3	1	0	664	1	4	0	152	48	0	0	100
fixed	5	5	1	917083	4	1	1	1	0	630	1	4	0	136	49	0	0	100
fixed	5	5	2	918238	1	2	2	1	0	837	1	4	0	144	50	0	0	100
fixed	5	5	3	919746	6	4	4	1	0	629	1	4	0	160	51	0	0	100
fixed	5	5	4	921027	2	1	1	1	0	855	1	4	0	136	52	0	0	100
fixed	5	5	5	922853	5	3	3	1	0	801	1	4	0	152	53	0	0	100
fixed	5	5	6	924600	6	4	4	1	0	647	1	4	0	160	54	0	0	100
fixed	5	5	7	926116	3	1	1	1	0	784	1	4	0	136	55	0	0	100
fixed	5	5	8	927434	2	3	3	1	0	880	1	4	0	152	56	0	0	100
fixed	5	5	9	928973	3	2	2	1	0	782	1	4	0	144	57	0	0	100
fixed	5	5	10	930447	1	4	4	1	0	608	1	4	0	160	58	0	0	100
fixed	5	5	11	931360	5	2	2	1	0	721	1	4	0	144	59	0	0	100
fixed	5	5	12	932396	4	3	3	1	0	709	1	4	0	152	60	0	0	100
fixed	5	6	1	933974	4	1	1	1	0	658	1	4	0	136	61	0	0	100
fixed	5	6	2	935636	1	2	2	1	0	956	1	4	0	144	62	0	0	100
fixed	5	6	3	937593	6	4	4	1	0	625	1	4	0	160	63	0	0	100
fixed	5	6	4	938979	2	1	1	1	0	767	1	4	0	136	64	0	0	100
fixed	5	6	5	940483	5	3	3	1	0	711	1	4	0	152	65	0	0	100
fixed	5	6	6	942210	6	4	4	1	0	565	1	4	0	160	66	0	0	100
fixed	5	6	7	943087	3	1	1	1	0	777	1	4	0	136	67	0	0	100
fixed	5	6	8	944787	2	3	3	1	0	768	1	4	0	152	68	0	0	100
fixed	5	6	9	946074	3	2	2	1	0	714	1	4	0	144	69	0	0	100
fixed	5	6	10	947617	1	4	4	1	0	601	1	4	0	160	70	0	0	100
fixed	5	6	11	948916	5	2	2	1	0	810	1	4	0	144	71	0	0	100
fixed	5	6	12	950364	4	3	3	1	0	668	1	4	0	152	72	0	0	100
fixed	5	7	1	951901	4	1	1	1	0	659	1	4	0	136	73	0	0	100
fixed	5	7	2	952870	1	2	2	1	0	794	1	4	0	144	74	0	0	100
fixed	5	7	3	953966	6	4	4	1	0	708	1	4	0	160	75	0	0	100
fixed	5	7	4	955508	2	1	1	1	0	850	1	4	0	136	76	0	0	100
fixed	5	7	5	957334	5	3	3	1	0	749	1	4	0	152	77	0	0	100
fixed	5	7	6	958738	6	4	4	1	0	665	1	4	0	160	78	0	0	100
fixed	5	7	7	960025	3	1	1	1	0	739	1	4	0	136	79	0	0	100
fixed	5	7	8	961087	2	3	3	1	0	790	1	4	0	152	80	0	0	100
fixed	5	7	9	962372	3	2	2	1	0	672	1	4	0	144	81	0	0	100
fixed	5	7	10	963570	1	4	4	1	0	869	1	4	0	160	82	0	0	100
fixed	5	7	11	965277	5	2	2	1	0	949	1	4	0	144	83	0	0	100
fixed	5	7	12	967045	4	3	3	1	0	650	1	4	0	152	84	0	0	100
fixed	5	8	1	968292	4	1	1	1	0	733	1	4	0	136	85	0	0	100
fixed	5	8	2	970058	1	2	2	1	0	794	1	4	0	144	86	0	0	100
fixed	5	8	3	971228	6	4	4	1	0	649	1	4	0	160	87	0	0	100
fixed	5	8	4	972240	2	1	1	1	0	806	1	4	0	136	88	0	0	100
fixed	5	8	5	974033	5	3	3	1	0	914	1	4	0	152	89	0	0	100
fixed	5	8	6	975605	6	4	4	1	0	600	1	4	0	160	90	0	0	100
fixed	5	8	7	977165	3	1	1	1	0	1109	1	4	0	136	91	0	0	100
fixed	5	8	8	978987	2	3	3	1	0	1000	1	4	0	152	92	0	0	100
fixed	5	8	9	980479	3	2	2	1	0	617	1	4	0	144	93	0	0	100
fixed	5	8	10	981692	1	4	4	1	0	629	1	4	0	160	94	0	0	100
fixed	5	8	11	982955	5	2	2	1	0	800	1	4	0	144	95	0	0	100
fixed	5	8	12	984419	4	3	3	2	0	802	2	4	0	152	96	0	0	100
fixed	5	9	1	986102	4	1	1	1	0	642	1	4	0	136	97	0	0	100
fixed	5	9	2	987699	1	2	2	1	0	935	1	4	0	144	98	0	0	100
fixed	5	9	3	989469	6	4	4	1	0	620	1	4	0	160	99	0	0	100
fixed	5	9	4	990398	2	1	1	1	0	844	1	4	0	136	100	0	0	100
fixed	5	9	5	991564	5	3	3	1	0	691	1	4	0	152	101	0	0	100
fixed	5	9	6	993233	6	4	4	1	0	676	1	4	0	160	102	0	0	100
fixed	5	9	7	994356	3	1	1	1	0	813	1	4	0	136	103	0	0	100
fixed	5	9	8	996035	2	3	3	1	0	830	1	4	0	152	104	0	0	100
fixed	5	9	9	997798	3	2	0	1	2	0	3	4	0	144	104	0	1	99
fixed	5	9	10	1000741	1	4	4	1	0	599	1	4	0	160	105	0	1	99
fixed	5	9	11	1001631	5	2	2	1	0	849	1	4	0	144	106	0	1	99
fixed	5	9	12	1002936	4	3	3	1	0	802	1	4	0	152	107	0	1	99
fixed	5	10	1	1004430	4	1	1	1	0	794	1	4	0	136	108	0	1	99
fixed	5	10	2	1005776	1	2	2	1	0	754	1	4	0	144	109	0	1	99
fixed	5	10	3	1007101	6	4	4	1	0	593	1	4	0	160	110	0	1	99
fixed	5	10	4	1008037	2	1	1	1	0	753	1	4	0	136	111	0	1	99
fixed	5	10	5	1009133	5	3	3	1	0	811	1	4	0	152	112	0	1	99
fixed	5	10	6	1010883	6	4	4	1	0	649	1	4	0	160	113	0	1	99
fixed	5	10	7	1011849	3	1	1	1	0	832	1	4	0	136	114	0	1	99
fixed	5	10	8	1012991	2	3	3	1	0	976	1	4	0	152	115	0	1	99
fixed	5	10	9	1014733	3	2	2	1	0	926	1	4	0	144	116	0	1	99
fixed	5	10	10	1016346	1	4	4	1	0	834	1	4	0	160	117	0	1	99
fixed	5	10	11	1017607	5	2	2	1	0	932	1	4	0	144	118	0	1	99
fixed	5	10	12	1019405	4	3	3	1	0	1112	1	4	0	152	119	0	1	99
random	6	1	1	1154078	6	1	1	1	0	904	1	4	0	168	1	0	0	100
random	6	1	2	1155513	4	4	4	1	0	804	1	4	0	192	2	0	0	100
random	6	1	3	1157283	2	2	2	1	0	921	1	4	0	176	3	0	0	100
random	6	1	4	1158963	3	3	3	1	0	585	1	4	0	184	4	0	0	100
random	6	1	5	1160089	5	2	2	1	0	746	1	4	0	176	5	0	0	100
random	6	1	6	1161479	1	4	4	1	0	775	1	4	0	192	6	0	0	100
random	6	1	7	1162797	6	1	1	1	0	799	1	4	0	168	7	0	0	100
random	6	1	8	1164335	2	3	3	1	0	1006	1	4	0	184	8	0	0	100
random	6	1	9	1166285	4	2	2	1	0	595	1	4	0	176	9	0	0	100
random	6	1	10	1167543	1	1	1	1	0	854	1	4	0	168	10	0	0	100
random	6	1	11	1168885	5	4	4	1	0	733	1	4	0	192	11	0	0	100
random	6	1	12	1170336	3	3	3	1	0	735	1	4	0	184	12	0	0	100
random	6	1	13	1171858	5	2	2	1	0	855	1	4	0	176	13	0	0	100
random	6	1	14	1173189	1	4	4	1	0	839	1	4	0	192	14	0	0	100
random	6	1	15	1174522	3	1	1	1	0	734	1	4	0	168	15	0	0	100
random	6	1	16	1175843	4	3	3	1	0	838	1	4	0	184	16	0	0	100
random	6	1	17	1177491	6	4	4	1	0	632	1	4	0	192	17	0	0	100
random	6	1	18	1178588	2	1	1	1	0	714	1	4	0	168	18	0	0	100
random	6	1	19	1180312	5	3	3	1	0	889	1	4	0	184	19	0	0	100
random	6	1	20	1182235	2	2	2	1	0	759	1	4	0	176	20	0	0	100
random	6	1	21	1183904	3	3	3	1	0	817	1	4	0	184	21	0	0	100
random	6	1	22	1185374	6	1	1	1	0	850	1	4	0	168	22	0	0	100
random	6	1	23	1186612	4	2	2	1	0	774	1	4	0	176	23	0	0	100
random	6	1	24	1187988	1	4	4	1	0	700	1	4	0	192	24	0	0	100
random	6	1	25	1189568	4	3	3	1	0	1001	1	4	0	184	25	0	0	100
random	6	1	26	1190974	2	1	1	1	0	781	1	4	0	168	26	0	0	100
random	6	1	27	1192285	5	2	2	1	0	854	1	4	0	176	27	0	0	100
random	6	1	28	1193557	6	4	4	1	0	744	1	4	0	192	28	0	0	100
random	6	1	29	1194636	1	3	3	1	0	954	1	4	0	184	29	0	0	100
random	6	1	30	1196001	5	2	2	1	0	840	1	4	0	176	30	0	0	100
random	6	1	31	1197579	2	1	1	1	0	798	1	4	0	168	31	0	0	100
random	6	1	32	1199366	3	3	3	1	0	722	1	4	0	184	32	0	0	100
random	6	1	33	1201060	6	4	4	1	0	538	1	4	0	192	33	0	0	100
random	6	1	34	1202420	4	2	2	1	0	648	1	4	0	176	34	0	0	100
random	6	1	35	1203905	3	4	4	1	0	601	1	4	0	192	35	0	0	100
random	6	1	36	1205536	1	1	1	1	0	869	1	4	0	168	36	0	0	100
random	6	1	37	1207495	3	4	4	1	0	993	1	4	0	192	37	0	0	100
random	6	1	38	1209058	5	3	3	1	0	944	1	4	0	184	38	0	0	100
random	6	1	39	1210839	6	1	1	1	0	692	1	4	0	168	39	0	0	100
random	6	1	40	1212251	1	2	2	1	0	832	1	4	0	176	40	0	0	100
random	6	1	41	1213851	2	3	3	1	0	788	1	4	0	184	41	0	0	100
random	6	1	42	1214971	4	4	4	1	0	741	1	4	0	192	42	0	0	100
random	6	1	43	1216720	1	2	2	1	0	787	1	4	0	176	43	0	0	100
random	6	1	44	1217977	6	3	3	1	0	766	1	4	0	184	44	0	0	100
random	6	1	45	1219705	3	1	1	1	0	820	1	4	0	168	45	0	0	100
random	6	1	46	1221432	4	4	4	1	0	643	1	4	0	192	46	0	0	100
random	6	1	47	1222377	2	2	2	1	0	796	1	4	0	176	47	0	0	100
random	6	1	48	1223517	5	1	1	1	0	827	1	4	0	168	48	0	0	100
random	6	1	49	1225339	2	3	3	1	0	1262	1	4	0	184	49	0	0	100
random	6	1	50	1227547	3	1	1	1	0	728	1	4	0	168	50	0	0	100
random	6	1	51	1229184	1	4	4	1	0	675	1	4	0	192	51	0	0	100
random	6	1	52	1230783	5	3	3	1	0	783	1	4	0	184	52	0	0	100
random	6	1	53	1231899	3	2	2	1	0	800	1	4	0	176	53	0	0	100
random	6	1	54	1233483	6	4	4	1	0	701	1	4	0	192	54	0	0	100
random	6	1	55	1234713	4	2	2	1	0	793	1	4	0	176	55	0	0	100
random	6	1	56	1236323	1	1	1	1	0	725	1	4	0	168	56	0	0	100
random	6	1	57	1237668	5	4	4	1	0	675	1	4	0	192	57	0	0	100
random	6	1	58	1239380	2	1	1	1	0	907	1	4	0	168	58	0	0	100
random	6	1	59	1240712	6	2	2	1	0	971	1	4	0	176	59	0	0	100
random	6	1	60	1242473	4	3	3	1	0	792	1	4	0	184	60	0	0	100
random	6	1	61	1244452	1	2	2	1	0	1004	1	4	0	176	61	0	0	100
random	6	1	62	1245790	6	4	4	1	0	915	1	4	0	192	62	0	0	100
random	6	1	63	1247690	4	1	1	1	0	795	1	4	0	168	63	0	0	100
random	6	1	64	1249151	2	2	2	1	0	925	1	4	0	176	64	0	0	100
random	6	1	65	1250891	4	3	3	1	0	1124	1	4	0	184	65	0	0	100
random	6	1	66	1252445	3	1	1	1	0	794	1	4	0	168	66	0	0	100
random	6	1	67	1253883	1	3	3	1	0	941	1	4	0	184	67	0	0	100
random	6	1	68	1255802	5	4	4	1	0	756	1	4	0	192	68	0	0	100
random	6	1	69	1257557	2	2	2	1	0	705	1	4	0	176	69	0	0	100
random	6	1	70	1258592	3	1	1	1	0	805	1	4	0	168	70	0	0	100
random	6	1	71	1260437	5	4	4	1	0	759	1	4	0	192	71	0	0	100
random	6	1	72	1261540	6	3	3	1	0	929	1	4	0	184	72	0	0	100
random	6	1	73	1263415	2	1	1	1	0	897	1	4	0	168	73	0	0	100
random	6	1	74	1265122	5	3	3	1	0	1265	1	4	0	184	74	0	0	100
random	6	1	75	1266979	1	4	4	1	0	738	1	4	0	192	75	0	0	100
random	6	1	76	1268030	6	2	2	1	0	1070	1	4	0	176	76	0	0	100
random	6	1	77	1269640	2	1	1	1	0	778	1	4	0	168	77	0	0	100
random	6	1	78	1271136	4	4	4	1	0	866	1	4	0	192	78	0	0	100
random	6	1	79	1272687	3	2	2	1	0	792	1	4	0	176	79	0	0	100
random	6	1	80	1274202	4	3	3	1	0	1400	1	4	0	184	80	0	0	100
random	6	1	81	1276498	1	4	4	1	0	655	1	4	0	192	81	0	0	100
random	6	1	82	1278111	5	1	1	1	0	731	1	4	0	168	82	0	0	100
random	6	1	83	1279693	3	2	2	1	0	632	1	4	0	176	83	0	0	100
random	6	1	84	1280881	6	3	3	1	0	653	1	4	0	184	84	0	0	100
random	6	1	85	1282462	3	2	2	1	0	778	1	4	0	176	85	0	0	100
random	6	1	86	1283733	1	3	3	1	0	716	1	4	0	184	86	0	0	100
random	6	1	87	1284790	4	4	4	1	0	744	1	4	0	192	87	0	0	100
random	6	1	88	1286528	2	1	1	1	0	774	1	4	0	168	88	0	0	100
random	6	1	89	1287593	6	4	4	1	0	1113	1	4	0	192	89	0	0	100
random	6	1	90	1289666	3	3	3	1	0	1081	1	4	0	184	90	0	0	100
random	6	1	91	1291110	5	4	4	1	0	940	1	4	0	192	91	0	0	100
random	6	1	92	1292381	1	2	2	1	0	1006	1	4	0	176	92	0	0	100
random	6	1	93	1293865	5	1	1	1	0	735	1	4	0	168	93	0	0	100
random	6	1	94	1295616	4	3	3	1	0	877	1	4	0	184	94	0	0	100
random	6	1	95	1297035	6	1	1	1	0	769	1	4	0	168	95	0	0	100
random	6	1	96	1298690	2	2	2	1	0	819	1	4	0	176	96	0	0	100
random	6	1	97	1300206	4	3	3	1	0	819	1	4	0	184	97	0	0	100
random	6	1	98	1302044	3	2	2	1	0	677	1	4	0	176	98	0	0	100
random	6	1	99	1303540	6	3	3	1	0	1102	1	4	0	184	99	0	0	100
random	6	1	100	1305409	1	4	4	1	0	494	1	4	0	192	100	0	0	100
random	6	1	101	1306611	4	1	1	1	0	644	1	4	0	168	101	0	0	100
random	6	1	102	1307945	5	2	2	1	0	731	1	4	0	176	102	0	0	100
random	6	1	103	1309321	2	4	4	1	0	609	1	4	0	192	103	0	0	100
random	6	1	104	1310865	3	1	1	1	0	815	1	4	0	168	104	0	0	100
random	6	1	105	1312328	1	3	3	1	0	786	1	4	0	184	105	0	0	100
random	6	1	106	1313804	2	2	2	1	0	443	1	4	0	176	106	0	0	100
random	6	1	107	1314867	5	4	4	1	0	614	1	4	0	192	107	0	0	100
random	6	1	108	1315792	6	1	1	1	0	766	1	4	0	168	108	0	0	100
random	6	1	109	1317699	5	4	4	1	0	870	1	4	0	192	109	0	0	100
random	6	1	110	1319521	6	3	3	1	0	1041	1	4	0	184	110	0	0	100
random	6	1	111	1321340	2	2	2	1	0	747	1	4	0	176	111	0	0	100
random	6	1	112	1322922	3	1	1	1	0	665	1	4	0	168	112	0	0	100
random	6	1	113	1324444	1	2	2	1	0	848	1	4	0	176	113	0	0	100
random	6	1	114	1325867	2	3	3	1	0	804	1	4	0	184	114	0	0	100
random	6	1	115	1327069	3	1	1	1	0	737	1	4	0	168	115	0	0	100
random	6	1	116	1328763	4	4	4	1	0	729	1	4	0	192	116	0	0	100
random	6	1	117	1330424	6	1	1	1	0	763	1	4	0	168	117	0	0	100
random	6	1	118	1331933	5	3	3	1	0	1187	1	4	0	184	118	0	0	100
random	6	1	119	1333561	1	4	4	1	0	630	1	4	0	192	119	0	0	100
random	6	1	120	1334709	4	2	2	1	0	773	1	4	0	176	120	0	0	100
fixed	7	1	1	1336375	4	1	1	1	0	791	1	4	0	200	1	0	0	100
fixed	7	1	2	1337588	1	2	0	2	2	0	3	4	0	208	1	0	1	50
fixed	7	1	3	1340760	6	4	4	1	0	909	1	4	0	224	2	0	1	67
fixed	7	1	4	1342693	2	1	1	1	0	811	1	4	0	200	3	0	1	75
fixed	7	1	5	1344344	5	3	3	1	0	2454	1	4	0	216	4	0	1	80
fixed	7	1	6	1347230	6	4	4	1	0	651	1	4	0	224	5	0	1	83
fixed	7	1	7	1348916	3	1	1	1	0	708	1	4	0	200	6	0	1	86
fixed	7	1	8	1350425	2	3	3	1	0	748	1	4	0	216	7	0	1	88
fixed	7	1	9	1352039	3	2	2	1	0	791	1	4	0	208	8	0	1	89
fixed	7	1	10	1353524	1	4	4	1	0	576	1	4	0	224	9	0	1	90
fixed	7	1	11	1354485	5	2	2	1	0	760	1	4	0	208	10	0	1	91
fixed	7	1	12	1355970	4	3	3	1	0	889	1	4	0	216	11	0	1	92
fixed	7	2	1	1357797	4	1	1	1	0	731	1	4	0	200	1	0	0	8
fixed	7	2	2	1359045	1	2	2	1	0	1063	1	4	0	208	2	0	0	14
fixed	7	2	3	1360430	6	4	4	1	0	748	1	4	0	224	3	0	0	20
fixed	7	2	4	1361934	2	1	1	1	0	733	1	4	0	200	4	0	0	25
fixed	7	2	5	1363242	5	3	3	1	0	701	1	4	0	216	5	0	0	29
fixed	7	2	6	1364647	6	4	4	1	0	681	1	4	0	224	6	0	0	33
fixed	7	2	7	1366011	3	1	1	1	0	752	1	4	0	200	7	0	0	37
fixed	7	2	8	1367105	2	3	3	1	0	913	1	4	0	216	8	0	0	40
fixed	7	2	9	1368573	3	2	2	1	0	731	1	4	0	208	9	0	0	43
fixed	7	2	10	1369931	1	4	4	1	0	906	1	4	0	224	10	0	0	45
fixed	7	2	11	1371157	5	2	2	1	0	734	1	4	0	208	11	0	0	48
fixed	7	2	12	1372573	4	3	3	1	0	738	1	4	0	216	12	0	0	50
fixed	7	3	1	1373920	4	1	1	1	0	784	1	4	0	200	1	0	0	4
fixed	7	3	2	1375352	1	2	2	1	0	884	1	4	0	208	2	0	0	8
fixed	7	3	3	1376538	6	4	4	1	0	818	1	4	0	224	3	0	0	11
fixed	7	3	4	1378337	2	1	1	1	0	774	1	4	0	200	4	0	0	14
fixed	7	3	5	1379664	5	3	3	1	0	734	1	4	0	216	5	0	0	17
fixed	7	3	6	1380751	6	4	4	1	0	751	1	4	0	224	6	0	0	20
fixed	7	3	7	1382302	3	1	1	1	0	774	1	4	0	200	7	0	0	23
fixed	7	3	8	1384071	2	3	3	1	0	827	1	4	0	216	8	0	0	25
fixed	7	3	9	1385533	3	2	2	1	0	685	1	4	0	208	9	0	0	27
fixed	7	3	10	1386752	1	4	4	1	0	825	1	4	0	224	10	0	0	29
fixed	7	3	11	1388582	5	2	2	1	0	812	1	4	0	208	11	0	0	31
fixed	7	3	12	1390143	4	3	3	1	0	1049	1	4	0	216	12	0	0	33
fixed	7	4	1	1391814	4	1	1	1	0	643	1	4	0	200	1	0	0	3
fixed	7	4	2	1393231	1	2	2	1	0	798	1	4	0	208	2	0	0	5
fixed	7	4	3	1395062	6	4	4	1	0	633	1	4	0	224	3	0	0	8
fixed	7	4	4	1396691	2	1	1	1	0	820	1	4	0	200	4	0	0	10
fixed	7	4	5	1398055	5	3	3	1	0	651	1	4	0	216	5	0	0	12
fixed	7	4	6	1399502	6	4	4	1	0	645	1	4	0	224	6	0	0	14
fixed	7	4	7	1401047	3	1	1	1	0	804	1	4	0	200	7	0	0	16
fixed	7	4	8	1402616	2	3	3	1	0	673	1	4	0	216	8	0	0	18
fixed	7	4	9	1403620	3	2	2	1	0	551	1	4	0	208	9	0	0	20
fixed	7	4	10	1404853	1	4	4	1	0	723	1	4	0	224	10	0	0	22
fixed	7	4	11	1406387	5	2	2	1	0	833	1	4	0	208	11	0	0	23
fixed	7	4	12	1407873	4	3	3	1	0	1138	1	4	0	216	12	0	0	25
fixed	7	5	1	1409908	4	1	1	1	0	676	1	4	0	200	1	0	0	2
fixed	7	5	2	1410991	1	2	2	2	0	1358	2	4	0	208	2	0	0	4
fixed	7	5	3	1413266	6	4	4	1	0	542	1	4	0	224	3	0	0	6
fixed	7	5	4	1414502	2	1	1	1	0	698	1	4	0	200	4	0	0	8
fixed	7	5	5	1415601	5	3	3	1	0	716	1	4	0	216	5	0	0	9
fixed	7	5	6	1416980	6	4	4	1	0	601	1	4	0	224	6	0	0	11
fixed	7	5	7	1418322	3	1	1	1	0	680	1	4	0	200	7	0	0	13
fixed	7	5	8	1419911	2	3	3	1	0	885	1	4	0	216	8	0	0	14
fixed	7	5	9	1421510	3	2	2	1	0	433	1	4	0	208	9	0	0	16
fixed	7	5	10	1422920	1	4	4	1	0	574	1	4	0	224	10	0	0	17
fixed	7	5	11	1424473	5	2	2	1	0	916	1	4	0	208	11	0	0	19
fixed	7	5	12	1426089	4	3	3	1	0	767	1	4	0	216	12	0	0	20
fixed	7	6	1	1427718	4	1	1	1	0	626	1	4	0	200	1	0	0	2
fixed	7	6	2	1428913	1	2	2	1	0	1024	1	4	0	208	2	0	0	3
fixed	7	6	3	1430477	6	4	4	1	0	549	1	4	0	224	3	0	0	5
fixed	7	6	4	1431536	2	1	1	1	0	648	1	4	0	200	4	0	0	6
fixed	7	6	5	1432511	5	3	3	1	0	735	1	4	0	216	5	0	0	8
fixed	7	6	6	1433855	6	4	4	1	0	582	1	4	0	224	6	0	0	9
fixed	7	6	7	1434756	3	1	1	1	0	864	1	4	0	200	7	0	0	10
fixed	7	6	8	1435947	2	3	3	1	0	798	1	4	0	216	8	0	0	12
fixed	7	6	9	1437434	3	2	2	1	0	535	1	4	0	208	9	0	0	13
fixed	7	6	10	1438339	1	4	4	1	0	560	1	4	0	224	10	0	0	14
fixed	7	6	11	1439446	5	2	2	1	0	769	1	4	0	208	11	0	0	15
fixed	7	6	12	1440948	4	3	3	1	0	1082	1	4	0	216	12	0	0	17
fixed	7	7	1	1443273	4	1	1	1	0	703	1	4	0	200	1	0	0	1
fixed	7	7	2	1444760	1	2	2	1	0	1032	1	4	0	208	2	0	0	3
fixed	7	7	3	1446542	6	4	4	1	0	677	1	4	0	224	3	0	0	4
fixed	7	7	4	1447588	2	1	1	1	0	824	1	4	0	200	4	0	0	5
fixed	7	7	5	1449365	5	3	3	1	0	853	1	4	0	216	5	0	0	6
fixed	7	7	6	1450745	6	4	4	1	0	667	1	4	0	224	6	0	0	8
fixed	7	7	7	1452004	3	1	1	1	0	734	1	4	0	200	7	0	0	9
fixed	7	7	8	1453202	2	3	3	1	0	1011	1	4	0	216	8	0	0	10
fixed	7	7	9	1454779	3	2	2	1	0	776	1	4	0	208	9	0	0	11
fixed	7	7	10	1456272	1	4	4	1	0	569	1	4	0	224	10	0	0	12
fixed	7	7	11	1457817	5	2	2	1	0	839	1	4	0	208	11	0	0	13
fixed	7	7	12	1459007	4	3	3	1	0	645	1	4	0	216	12	0	0	14
fixed	7	8	1	1460465	4	1	1	1	0	759	1	4	0	200	1	0	0	1
fixed	7	8	2	1462086	1	2	2	1	0	842	1	4	0	208	2	0	0	2
fixed	7	8	3	1463443	6	4	4	1	0	689	1	4	0	224	3	0	0	3
fixed	7	8	4	1464493	2	1	1	1	0	1020	1	4	0	200	4	0	0	5
fixed	7	8	5	1466176	5	3	3	1	0	773	1	4	0	216	5	0	0	6
fixed	7	8	6	1467977	6	4	4	1	0	737	1	4	0	224	6	0	0	7
fixed	7	8	7	1469290	3	1	1	1	0	793	1	4	0	200	7	0	0	8
fixed	7	8	8	1470470	2	3	3	1	0	752	1	4	0	216	8	0	0	9
fixed	7	8	9	1471868	3	2	2	1	0	684	1	4	0	208	9	0	0	10
fixed	7	8	10	1472984	1	4	4	1	0	605	1	4	0	224	10	0	0	11
fixed	7	8	11	1473914	5	2	2	1	0	677	1	4	0	208	11	0	0	12
fixed	7	8	12	1475201	4	3	3	1	0	703	1	4	0	216	12	0	0	13
fixed	7	9	1	1476672	4	1	1	1	0	672	1	4	0	200	1	0	0	1
fixed	7	9	2	1477701	1	2	2	1	0	829	1	4	0	208	2	0	0	2
fixed	7	9	3	1479332	6	4	4	1	0	536	1	4	0	224	3	0	0	3
fixed	7	9	4	1480783	2	1	1	1	0	778	1	4	0	200	4	0	0	4
fixed	7	9	5	1482092	5	3	3	1	0	723	1	4	0	216	5	0	0	5
fixed	7	9	6	1483573	6	4	4	1	0	668	1	4	0	224	6	0	0	6
fixed	7	9	7	1484950	3	1	1	1	0	826	1	4	0	200	7	0	0	7
fixed	7	9	8	1486660	2	3	3	1	0	810	1	4	0	216	8	0	0	8
fixed	7	9	9	1488166	3	2	2	1	0	578	1	4	0	208	9	0	0	9
fixed	7	9	10	1489079	1	4	4	1	0	555	1	4	0	224	10	0	0	9
fixed	7	9	11	1490093	5	2	2	2	0	728	2	4	0	208	11	0	0	10
fixed	7	9	12	1491490	4	3	3	1	0	821	1	4	0	216	12	0	0	11
fixed	7	10	1	1493045	4	1	1	1	0	651	1	4	0	200	1	0	0	1
fixed	7	10	2	1494493	1	2	2	1	0	710	1	4	0	208	2	0	0	2
fixed	7	10	3	1495611	6	4	4	1	0	583	1	4	0	224	3	0	0	3
fixed	7	10	4	1496712	2	1	1	1	0	952	1	4	0	200	4	0	0	4
fixed	7	10	5	1498446	5	3	3	1	0	670	1	4	0	216	5	0	0	4
fixed	7	10	6	1499651	6	4	4	1	0	579	1	4	0	224	6	0	0	5
fixed	7	10	7	1500536	3	1	1	1	0	950	1	4	0	200	7	0	0	6
fixed	7	10	8	1501793	2	3	3	1	0	745	1	4	0	216	8	0	0	7
fixed	7	10	9	1503256	3	2	2	1	0	602	1	4	0	208	9	0	0	8
fixed	7	10	10	1504441	1	4	4	1	0	656	1	4	0	224	10	0	0	8
fixed	7	10	11	1505491	5	2	2	1	0	708	1	4	0	208	11	0	0	9
fixed	7	10	12	1506950	4	3	3	1	0	1206	1	4	0	216	12	0	0	10
