type	block	sequ.	trial	time	Pos.	Color	Button	NumRsp	Resp_1	RT_1	R_Code	Resp_2	RT_2	Trigg.	n_hit	n_inc	n_miss	score_%

random	1	1	1	25225	6	1	1	1	0	1045	1	4	0	8	1	0	0	100
random	1	1	2	26780	4	4	4	1	0	1276	1	4	0	32	2	0	0	100
random	1	1	3	28723	2	2	2	1	0	1073	1	4	0	16	3	0	0	100
random	1	1	4	30827	3	3	3	1	0	792	1	4	0	24	4	0	0	100
random	1	1	5	32452	5	2	2	1	0	1092	1	4	0	16	5	0	0	100
random	1	1	6	34251	1	4	4	1	0	1039	1	4	0	32	6	0	0	100
random	1	1	7	35654	6	1	1	1	0	988	1	4	0	8	7	0	0	100
random	1	1	8	37090	2	3	3	1	0	1031	1	4	0	24	8	0	0	100
random	1	1	9	38571	4	2	2	1	0	825	1	4	0	16	9	0	0	100
random	1	1	10	40110	1	1	1	1	0	776	1	4	0	8	10	0	0	100
random	1	1	11	41597	5	4	4	1	0	721	1	4	0	32	11	0	0	100
random	1	1	12	42697	3	3	0	1	2	0	3	4	0	24	11	0	1	92
random	1	1	13	45760	5	2	2	1	0	1152	1	4	0	16	12	0	1	92
random	1	1	14	47895	1	4	4	1	0	1422	1	4	0	32	13	0	1	93
random	1	1	15	49656	3	1	1	1	0	1219	1	4	0	8	14	0	1	93
random	1	1	16	51407	4	3	3	2	0	2000	2	4	0	24	15	0	1	94
random	1	1	17	53938	6	4	4	1	0	950	1	4	0	32	16	0	1	94
random	1	1	18	55370	2	1	1	1	0	881	1	4	0	8	17	0	1	94
random	1	1	19	57060	5	3	3	1	0	1417	1	4	0	24	18	0	1	95
random	1	1	20	59294	2	2	2	1	0	810	1	4	0	16	19	0	1	95
random	1	1	21	60971	3	3	3	1	0	1148	1	4	0	24	20	0	1	95
random	1	1	22	62876	6	1	1	1	0	763	1	4	0	8	21	0	1	95
random	1	1	23	64187	4	2	2	1	0	923	1	4	0	16	22	0	1	96
random	1	1	24	65715	1	4	4	1	0	683	1	4	0	32	23	0	1	96
random	1	1	25	67364	4	3	3	1	0	1429	1	4	0	24	24	0	1	96
random	1	1	26	69146	2	1	1	1	0	810	1	4	0	8	25	0	1	96
random	1	1	27	70530	5	2	2	1	0	639	1	4	0	16	26	0	1	96
random	1	1	28	71567	6	4	4	1	0	803	1	4	0	32	27	0	1	96
random	1	1	29	73048	1	3	3	1	0	972	1	4	0	24	28	0	1	97
random	1	1	30	74646	5	2	2	1	0	968	1	4	0	16	29	0	1	97
random	1	1	31	76173	2	1	1	1	0	640	1	4	0	8	30	0	1	97
random	1	1	32	77332	3	3	3	2	0	2015	2	4	0	24	31	0	1	97
random	1	1	33	80125	6	4	4	1	0	889	1	4	0	32	32	0	1	97
random	1	1	34	81371	4	2	2	1	0	1076	1	4	0	16	33	0	1	97
random	1	1	35	83333	3	4	4	1	0	1569	1	4	0	32	34	0	1	97
random	1	1	36	85830	1	1	1	1	0	911	1	4	0	8	35	0	1	97
random	1	1	37	88015	3	4	4	1	0	978	1	4	0	32	36	0	1	97
random	1	1	38	89393	5	3	3	1	0	1136	1	4	0	24	37	0	1	97
random	1	1	39	91077	6	1	1	2	0	1440	2	4	0	8	38	0	1	97
random	1	1	40	92932	1	2	2	1	0	1058	1	4	0	16	39	0	1	98
random	1	1	41	94454	2	3	3	1	0	1033	1	4	0	24	40	0	1	98
random	1	1	42	96243	4	4	4	1	0	798	1	4	0	32	41	0	1	98
random	1	1	43	97528	1	2	2	1	0	1087	1	4	0	16	42	0	1	98
random	1	1	44	99389	6	3	3	1	0	1033	1	4	0	24	43	0	1	98
random	1	1	45	100734	3	1	1	1	0	919	1	4	0	8	44	0	1	98
random	1	1	46	102494	4	4	4	1	0	925	1	4	0	32	45	0	1	98
random	1	1	47	104236	2	2	2	1	0	971	1	4	0	16	46	0	1	98
random	1	1	48	105596	5	1	1	1	0	825	1	4	0	8	47	0	1	98
random	1	1	49	107128	2	3	3	1	0	1344	1	4	0	24	48	0	1	98
random	1	1	50	109006	3	1	1	1	0	1033	1	4	0	8	49	0	1	98
random	1	1	51	110432	1	4	4	1	0	925	1	4	0	32	50	0	1	98
random	1	1	52	111910	5	3	3	2	0	2326	2	4	0	24	51	0	1	98
random	1	1	53	115236	3	2	2	1	0	993	1	4	0	16	52	0	1	98
random	1	1	54	116734	6	4	4	1	0	977	1	4	0	32	53	0	1	98
random	1	1	55	118034	4	2	2	1	0	1035	1	4	0	16	54	0	1	98
random	1	1	56	119973	1	1	1	1	0	841	1	4	0	8	55	0	1	98
random	1	1	57	121110	5	4	4	1	0	1152	1	4	0	32	56	0	1	98
random	1	1	58	122586	2	1	1	1	0	930	1	4	0	8	57	0	1	98
random	1	1	59	124238	6	2	2	1	0	1004	1	4	0	16	58	0	1	98
random	1	1	60	125757	4	3	3	1	0	699	1	4	0	24	59	0	1	98
random	1	1	61	127528	1	2	2	1	0	1000	1	4	0	16	60	0	1	98
random	1	1	62	129519	6	4	4	1	0	860	1	4	0	32	61	0	1	98
random	1	1	63	130711	4	1	1	1	0	866	1	4	0	8	62	0	1	98
random	1	1	64	132443	2	2	2	1	0	1024	1	4	0	16	63	0	1	98
random	1	1	65	133977	4	3	3	1	0	1175	1	4	0	24	64	0	1	98
random	1	1	66	135673	3	1	1	1	0	720	1	4	0	8	65	0	1	98
random	1	1	67	136792	1	3	3	1	0	928	1	4	0	24	66	0	1	99
random	1	1	68	138307	5	4	4	1	0	824	1	4	0	32	67	0	1	99
random	1	1	69	139432	2	2	2	1	0	1072	1	4	0	16	68	0	1	99
random	1	1	70	141481	3	1	1	1	0	737	1	4	0	8	69	0	1	99
random	1	1	71	143259	5	4	4	1	0	1118	1	4	0	32	70	0	1	99
random	1	1	72	145225	6	3	3	1	0	1163	1	4	0	24	71	0	1	99
random	1	1	73	146976	2	1	1	1	0	761	1	4	0	8	72	0	1	99
random	1	1	74	148261	5	3	3	2	0	1538	2	4	0	24	73	0	1	99
random	1	1	75	150102	1	4	4	1	0	852	1	4	0	32	74	0	1	99
random	1	1	76	151616	6	2	2	1	0	1301	1	4	0	16	75	0	1	99
random	1	1	77	153301	2	1	1	1	0	701	1	4	0	8	76	0	1	99
random	1	1	78	154322	4	4	4	1	0	1082	1	4	0	32	77	0	1	99
random	1	1	79	156341	3	2	2	1	0	916	1	4	0	16	78	0	1	99
random	1	1	80	157708	4	3	3	1	0	714	1	4	0	24	79	0	1	99
random	1	1	81	159399	1	4	4	1	0	763	1	4	0	32	80	0	1	99
random	1	1	82	160927	5	1	1	1	0	810	1	4	0	8	81	0	1	99
random	1	1	83	162390	3	2	2	1	0	924	1	4	0	16	82	0	1	99
random	1	1	84	163636	6	3	3	1	0	1071	1	4	0	24	83	0	1	99
random	1	1	85	165956	3	2	2	1	0	1045	1	4	0	16	84	0	1	99
random	1	1	86	167324	1	3	3	1	0	1139	1	4	0	24	85	0	1	99
random	1	1	87	168831	4	4	4	1	0	811	1	4	0	32	86	0	1	99
random	1	1	88	169957	2	1	1	1	0	820	1	4	0	8	87	0	1	99
random	1	1	89	171100	6	4	4	1	0	1003	1	4	0	32	88	0	1	99
random	1	1	90	173056	3	3	3	1	0	1144	1	4	0	24	89	0	1	99
random	1	1	91	174948	5	4	4	1	0	736	1	4	0	32	90	0	1	99
random	1	1	92	176393	1	2	2	1	0	1043	1	4	0	16	91	0	1	99
random	1	1	93	178256	5	1	1	1	0	716	1	4	0	8	92	0	1	99
random	1	1	94	179832	4	3	3	2	0	1969	2	4	0	24	93	0	1	99
random	1	1	95	182438	6	1	1	1	0	763	1	4	0	8	94	0	1	99
random	1	1	96	183988	2	2	2	1	0	1161	1	4	0	16	95	0	1	99
random	1	1	97	186239	4	3	3	1	0	1474	1	4	0	24	96	0	1	99
random	1	1	98	188607	3	2	2	1	0	742	1	4	0	16	97	0	1	99
random	1	1	99	189847	6	3	3	1	0	641	1	4	0	24	98	0	1	99
random	1	1	100	191178	1	4	4	1	0	769	1	4	0	32	99	0	1	99
random	1	1	101	192368	4	1	1	1	0	1134	1	4	0	8	100	0	1	99
random	1	1	102	194489	5	2	2	1	0	973	1	4	0	16	101	0	1	99
random	1	1	103	195951	2	4	4	1	0	790	1	4	0	32	102	0	1	99
random	1	1	104	197220	3	1	1	1	0	721	1	4	0	8	103	0	1	99
random	1	1	105	198544	1	3	3	1	0	953	1	4	0	24	104	0	1	99
random	1	1	106	199856	2	2	2	1	0	1001	1	4	0	16	105	0	1	99
random	1	1	107	201888	5	4	4	1	0	1315	1	4	0	32	106	0	1	99
random	1	1	108	204036	6	1	1	1	0	744	1	4	0	8	107	0	1	99
random	1	1	109	205553	5	4	4	1	0	1423	1	4	0	32	108	0	1	99
random	1	1	110	207787	6	3	3	2	0	1841	2	4	0	24	109	0	1	99
random	1	1	111	210553	2	2	2	1	0	916	1	4	0	16	110	0	1	99
random	1	1	112	212030	3	1	1	1	0	678	1	4	0	8	111	0	1	99
random	1	1	113	213614	1	2	2	1	0	962	1	4	0	16	112	0	1	99
random	1	1	114	215332	2	3	3	1	0	1425	1	4	0	24	113	0	1	99
random	1	1	115	217416	3	1	1	1	0	745	1	4	0	8	114	0	1	99
random	1	1	116	219191	4	4	4	1	0	774	1	4	0	32	115	0	1	99
random	1	1	117	220651	6	1	1	1	0	728	1	4	0	8	116	0	1	99
random	1	1	118	222299	5	3	3	1	0	946	1	4	0	24	117	0	1	99
random	1	1	119	223599	1	4	4	1	0	827	1	4	0	32	118	0	1	99
random	1	1	120	225306	4	2	2	1	0	755	1	4	0	16	119	0	1	99
fixed	2	1	1	227338	4	1	1	1	0	1157	1	4	0	40	1	0	0	100
fixed	2	1	2	229426	1	2	2	1	0	1132	1	4	0	48	2	0	0	100
fixed	2	1	3	230892	6	4	4	1	0	855	1	4	0	64	3	0	0	100
fixed	2	1	4	232527	2	1	1	1	0	665	1	4	0	40	4	0	0	100
fixed	2	1	5	234055	5	3	3	1	0	656	1	4	0	56	5	0	0	100
fixed	2	1	6	235518	6	4	4	1	0	779	1	4	0	64	6	0	0	100
fixed	2	1	7	236617	3	1	1	1	0	876	1	4	0	40	7	0	0	100
fixed	2	1	8	238309	2	3	3	1	0	940	1	4	0	56	8	0	0	100
fixed	2	1	9	239826	3	2	2	1	0	820	1	4	0	48	9	0	0	100
fixed	2	1	10	241591	1	4	4	1	0	865	1	4	0	64	10	0	0	100
fixed	2	1	11	242779	5	2	2	1	0	943	1	4	0	48	11	0	0	100
fixed	2	1	12	244044	4	3	3	1	0	754	1	4	0	56	12	0	0	100
fixed	2	2	1	245852	4	1	1	1	0	797	1	4	0	40	13	0	0	100
fixed	2	2	2	247431	1	2	2	1	0	930	1	4	0	48	14	0	0	100
fixed	2	2	3	249258	6	4	4	1	0	780	1	4	0	64	15	0	0	100
fixed	2	2	4	251058	2	1	1	1	0	704	1	4	0	40	16	0	0	100
fixed	2	2	5	252783	5	3	3	1	0	760	1	4	0	56	17	0	0	100
fixed	2	2	6	254489	6	4	4	1	0	743	1	4	0	64	18	0	0	100
fixed	2	2	7	256119	3	1	1	1	0	650	1	4	0	40	19	0	0	100
fixed	2	2	8	257256	2	3	3	1	0	1282	1	4	0	56	20	0	0	100
fixed	2	2	9	259377	3	2	2	1	0	688	1	4	0	48	21	0	0	100
fixed	2	2	10	260899	1	4	4	1	0	688	1	4	0	64	22	0	0	100
fixed	2	2	11	261927	5	2	2	1	0	804	1	4	0	48	23	0	0	100
fixed	2	2	12	263584	4	3	3	1	0	534	1	4	0	56	24	0	0	100
fixed	2	3	1	264932	4	1	1	1	0	740	1	4	0	40	25	0	0	100
fixed	2	3	2	266710	1	2	2	2	0	1361	2	4	0	48	26	0	0	100
fixed	2	3	3	269038	6	4	4	1	0	783	1	4	0	64	27	0	0	100
fixed	2	3	4	270181	2	1	1	1	0	806	1	4	0	40	28	0	0	100
fixed	2	3	5	271469	5	3	3	1	0	1440	1	4	0	56	29	0	0	100
fixed	2	3	6	273591	6	4	4	1	0	1086	1	4	0	64	30	0	0	100
fixed	2	3	7	275641	3	1	1	1	0	679	1	4	0	40	31	0	0	100
fixed	2	3	8	276620	2	3	3	1	0	1510	1	4	0	56	32	0	0	100
fixed	2	3	9	278565	3	2	2	1	0	651	1	4	0	48	33	0	0	100
fixed	2	3	10	279762	1	4	4	2	0	1185	2	4	0	64	34	0	0	100
fixed	2	3	11	281355	5	2	2	1	0	1029	1	4	0	48	35	0	0	100
fixed	2	3	12	283069	4	3	3	1	0	1045	1	4	0	56	36	0	0	100
fixed	2	4	1	285165	4	1	1	1	0	779	1	4	0	40	37	0	0	100
fixed	2	4	2	286625	1	2	2	1	0	806	1	4	0	48	38	0	0	100
fixed	2	4	3	287753	6	4	4	1	0	1006	1	4	0	64	39	0	0	100
fixed	2	4	4	289412	2	1	1	1	0	712	1	4	0	40	40	0	0	100
fixed	2	4	5	290517	5	3	3	1	0	617	1	4	0	56	41	0	0	100
fixed	2	4	6	291955	6	4	4	1	0	796	1	4	0	64	42	0	0	100
fixed	2	4	7	293064	3	1	1	1	0	821	1	4	0	40	43	0	0	100
fixed	2	4	8	294284	2	3	3	1	0	706	1	4	0	56	44	0	0	100
fixed	2	4	9	295933	3	2	2	1	0	772	1	4	0	48	45	0	0	100
fixed	2	4	10	297527	1	4	4	1	0	760	1	4	0	64	46	0	0	100
fixed	2	4	11	298876	5	2	2	1	0	943	1	4	0	48	47	0	0	100
fixed	2	4	12	300403	4	3	3	1	0	630	1	4	0	56	48	0	0	100
fixed	2	5	1	302124	4	1	1	1	0	797	1	4	0	40	49	0	0	100
fixed	2	5	2	303847	1	2	2	1	0	1156	1	4	0	48	50	0	0	100
fixed	2	5	3	305698	6	4	4	1	0	814	1	4	0	64	51	0	0	100
fixed	2	5	4	307212	2	1	1	1	0	742	1	4	0	40	52	0	0	100
fixed	2	5	5	308763	5	3	3	1	0	572	1	4	0	56	53	0	0	100
fixed	2	5	6	309658	6	4	4	1	0	862	1	4	0	64	54	0	0	100
fixed	2	5	7	310905	3	1	1	1	0	754	1	4	0	40	55	0	0	100
fixed	2	5	8	312515	2	3	3	1	0	1669	1	4	0	56	56	0	0	100
fixed	2	5	9	314646	3	2	2	1	0	772	1	4	0	48	57	0	0	100
fixed	2	5	10	316025	1	4	4	1	0	768	1	4	0	64	58	0	0	100
fixed	2	5	11	317243	5	2	2	1	0	1029	1	4	0	48	59	0	0	100
fixed	2	5	12	318920	4	3	3	1	0	1078	1	4	0	56	60	0	0	100
fixed	2	6	1	321103	4	1	1	1	0	665	1	4	0	40	61	0	0	100
fixed	2	6	2	322544	1	2	2	1	0	932	1	4	0	48	62	0	0	100
fixed	2	6	3	324426	6	4	4	1	0	813	1	4	0	64	63	0	0	100
fixed	2	6	4	326220	2	1	1	1	0	649	1	4	0	40	64	0	0	100
fixed	2	6	5	327607	5	3	3	1	0	454	1	4	0	56	65	0	0	100
fixed	2	6	6	328467	6	4	4	1	0	1002	1	4	0	64	66	0	0	100
fixed	2	6	7	330073	3	1	1	1	0	685	1	4	0	40	67	0	0	100
fixed	2	6	8	331061	2	3	3	1	0	1355	1	4	0	56	68	0	0	100
fixed	2	6	9	333272	3	2	2	1	0	598	1	4	0	48	69	0	0	100
fixed	2	6	10	334704	1	4	4	1	0	633	1	4	0	64	70	0	0	100
fixed	2	6	11	335814	5	2	2	1	0	818	1	4	0	48	71	0	0	100
fixed	2	6	12	337402	4	3	3	1	0	1031	1	4	0	56	72	0	0	100
fixed	2	7	1	338981	4	1	1	1	0	812	1	4	0	40	73	0	0	100
fixed	2	7	2	340821	1	2	2	1	0	950	1	4	0	48	74	0	0	100
fixed	2	7	3	342703	6	4	4	1	0	607	1	4	0	64	75	0	0	100
fixed	2	7	4	344060	2	1	1	1	0	669	1	4	0	40	76	0	0	100
fixed	2	7	5	345139	5	3	3	1	0	536	1	4	0	56	77	0	0	100
fixed	2	7	6	346601	6	4	4	1	0	761	1	4	0	64	78	0	0	100
fixed	2	7	7	347803	3	1	1	1	0	750	1	4	0	40	79	0	0	100
fixed	2	7	8	349261	2	3	3	1	0	1089	1	4	0	56	80	0	0	100
fixed	2	7	9	351061	3	2	2	1	0	660	1	4	0	48	81	0	0	100
fixed	2	7	10	352121	1	4	4	1	0	896	1	4	0	64	82	0	0	100
fixed	2	7	11	353332	5	2	2	1	0	900	1	4	0	48	83	0	0	100
fixed	2	7	12	354734	4	3	3	1	0	985	1	4	0	56	84	0	0	100
fixed	2	8	1	356874	4	1	1	1	0	702	1	4	0	40	85	0	0	100
fixed	2	8	2	358182	1	2	2	1	0	959	1	4	0	48	86	0	0	100
fixed	2	8	3	359558	6	4	4	1	0	893	1	4	0	64	87	0	0	100
fixed	2	8	4	361007	2	1	1	1	0	695	1	4	0	40	88	0	0	100
fixed	2	8	5	362536	5	3	3	1	0	438	1	4	0	56	89	0	0	100
fixed	2	8	6	363428	6	4	4	1	0	913	1	4	0	64	90	0	0	100
fixed	2	8	7	364912	3	1	1	1	0	866	1	4	0	40	91	0	0	100
fixed	2	8	8	366544	2	3	3	1	0	1253	1	4	0	56	92	0	0	100
fixed	2	8	9	368239	3	2	2	1	0	557	1	4	0	48	93	0	0	100
fixed	2	8	10	369244	1	4	4	1	0	770	1	4	0	64	94	0	0	100
fixed	2	8	11	370491	5	2	2	1	0	789	1	4	0	48	95	0	0	100
fixed	2	8	12	371626	4	3	3	1	0	789	1	4	0	56	96	0	0	100
fixed	2	9	1	373482	4	1	1	1	0	695	1	4	0	40	97	0	0	100
fixed	2	9	2	375084	1	2	2	1	0	923	1	4	0	48	98	0	0	100
fixed	2	9	3	376607	6	4	4	1	0	690	1	4	0	64	99	0	0	100
fixed	2	9	4	378279	2	1	1	1	0	700	1	4	0	40	100	0	0	100
fixed	2	9	5	379353	5	3	3	1	0	486	1	4	0	56	101	0	0	100
fixed	2	9	6	380792	6	4	4	1	0	753	1	4	0	64	102	0	0	100
fixed	2	9	7	382484	3	1	1	1	0	746	1	4	0	40	103	0	0	100
fixed	2	9	8	383938	2	3	3	1	0	932	1	4	0	56	104	0	0	100
fixed	2	9	9	385730	3	2	2	1	0	768	1	4	0	48	105	0	0	100
fixed	2	9	10	387097	1	4	4	1	0	806	1	4	0	64	106	0	0	100
fixed	2	9	11	388841	5	2	2	1	0	748	1	4	0	48	107	0	0	100
fixed	2	9	12	390042	4	3	3	1	0	881	1	4	0	56	108	0	0	100
fixed	2	10	1	391977	4	1	1	1	0	735	1	4	0	40	109	0	0	100
fixed	2	10	2	393205	1	2	2	1	0	892	1	4	0	48	110	0	0	100
fixed	2	10	3	395062	6	4	4	1	0	709	1	4	0	64	111	0	0	100
fixed	2	10	4	396482	2	1	1	1	0	673	1	4	0	40	112	0	0	100
fixed	2	10	5	397693	5	3	3	1	0	669	1	4	0	56	113	0	0	100
fixed	2	10	6	399403	6	4	4	1	0	725	1	4	0	64	114	0	0	100
fixed	2	10	7	400909	3	1	1	1	0	749	1	4	0	40	115	0	0	100
fixed	2	10	8	402471	2	3	3	1	0	1315	1	4	0	56	116	0	0	100
fixed	2	10	9	404146	3	2	2	1	0	884	1	4	0	48	117	0	0	100
fixed	2	10	10	405898	1	4	4	1	0	730	1	4	0	64	118	0	0	100
fixed	2	10	11	407280	5	2	2	1	0	1623	1	4	0	48	119	0	0	100
fixed	2	10	12	409854	4	3	3	1	0	650	1	4	0	56	120	0	0	100
fixed	3	1	1	411807	4	1	1	1	0	719	1	4	0	72	1	0	0	100
fixed	3	1	2	413344	1	2	2	1	0	1198	1	4	0	80	2	0	0	100
fixed	3	1	3	415123	6	4	4	1	0	763	1	4	0	96	3	0	0	100
fixed	3	1	4	416271	2	1	1	1	0	802	1	4	0	72	4	0	0	100
fixed	3	1	5	417564	5	3	3	1	0	444	1	4	0	88	5	0	0	100
fixed	3	1	6	418801	6	4	4	1	0	752	1	4	0	96	6	0	0	100
fixed	3	1	7	419852	3	1	1	1	0	971	1	4	0	72	7	0	0	100
fixed	3	1	8	421405	2	3	3	1	0	921	1	4	0	88	8	0	0	100
fixed	3	1	9	422929	3	2	2	1	0	577	1	4	0	80	9	0	0	100
fixed	3	1	10	424109	1	4	4	3	0	1110	2	4	0	96	10	0	0	100
fixed	3	1	11	425515	5	2	2	1	0	1331	1	4	0	80	11	0	0	100
fixed	3	1	12	427404	4	3	3	1	0	1083	1	4	0	88	12	0	0	100
fixed	3	2	1	429169	4	1	1	1	0	800	1	4	0	72	13	0	0	100
fixed	3	2	2	430513	1	2	2	1	0	1279	1	4	0	80	14	0	0	100
fixed	3	2	3	432315	6	4	4	1	0	835	1	4	0	96	15	0	0	100
fixed	3	2	4	434195	2	1	1	1	0	603	1	4	0	72	16	0	0	100
fixed	3	2	5	435850	5	3	3	1	0	733	1	4	0	88	17	0	0	100
fixed	3	2	6	437140	6	4	4	1	0	798	1	4	0	96	18	0	0	100
fixed	3	2	7	438871	3	1	1	1	0	934	1	4	0	72	19	0	0	100
fixed	3	2	8	440553	2	3	3	1	0	902	1	4	0	88	20	0	0	100
fixed	3	2	9	442499	3	2	2	1	0	763	1	4	0	80	21	0	0	100
fixed	3	2	10	443853	1	4	4	1	0	914	1	4	0	96	22	0	0	100
fixed	3	2	11	445615	5	2	2	1	0	1024	1	4	0	80	23	0	0	100
fixed	3	2	12	447047	4	3	3	1	0	563	1	4	0	88	24	0	0	100
fixed	3	3	1	448583	4	1	1	1	0	658	1	4	0	72	25	0	0	100
fixed	3	3	2	450137	1	2	2	1	0	936	1	4	0	80	26	0	0	100
fixed	3	3	3	452073	6	4	4	1	0	670	1	4	0	96	27	0	0	100
fixed	3	3	4	453056	2	1	1	1	0	837	1	4	0	72	28	0	0	100
fixed	3	3	5	454795	5	3	3	1	0	523	1	4	0	88	29	0	0	100
fixed	3	3	6	456139	6	4	4	1	0	778	1	4	0	96	30	0	0	100
fixed	3	3	7	457335	3	1	1	1	0	935	1	4	0	72	31	0	0	100
fixed	3	3	8	458769	2	3	3	1	0	1123	1	4	0	88	32	0	0	100
fixed	3	3	9	460256	3	2	2	1	0	868	1	4	0	80	33	0	0	100
fixed	3	3	10	461925	1	4	4	1	0	853	1	4	0	96	34	0	0	100
fixed	3	3	11	463112	5	2	2	1	0	1043	1	4	0	80	35	0	0	100
fixed	3	3	12	464589	4	3	3	1	0	1148	1	4	0	88	36	0	0	100
fixed	3	4	1	466945	4	1	1	1	0	728	1	4	0	72	37	0	0	100
fixed	3	4	2	468441	1	2	2	1	0	849	1	4	0	80	38	0	0	100
fixed	3	4	3	469896	6	4	4	1	0	755	1	4	0	96	39	0	0	100
fixed	3	4	4	471624	2	1	1	1	0	658	1	4	0	72	40	0	0	100
fixed	3	4	5	473104	5	3	3	1	0	492	1	4	0	88	41	0	0	100
fixed	3	4	6	474384	6	4	4	1	0	709	1	4	0	96	42	0	0	100
fixed	3	4	7	475578	3	1	1	1	0	819	1	4	0	72	43	0	0	100
fixed	3	4	8	476977	2	3	3	1	0	1015	1	4	0	88	44	0	0	100
fixed	3	4	9	478292	3	2	2	1	0	896	1	4	0	80	45	0	0	100
fixed	3	4	10	479808	1	4	4	1	0	535	1	4	0	96	46	0	0	100
fixed	3	4	11	481297	5	2	2	1	0	952	1	4	0	80	47	0	0	100
fixed	3	4	12	482820	4	3	3	1	0	824	1	4	0	88	48	0	0	100
fixed	3	5	1	484488	4	1	1	1	0	609	1	4	0	72	49	0	0	100
fixed	3	5	2	485686	1	2	2	1	0	1287	1	4	0	80	50	0	0	100
fixed	3	5	3	487930	6	4	4	1	0	783	1	4	0	96	51	0	0	100
fixed	3	5	4	489693	2	1	1	1	0	765	1	4	0	72	52	0	0	100
fixed	3	5	5	491027	5	3	3	1	0	812	1	4	0	88	53	0	0	100
fixed	3	5	6	492832	6	4	4	1	0	688	1	4	0	96	54	0	0	100
fixed	3	5	7	494462	3	1	1	1	0	866	1	4	0	72	55	0	0	100
fixed	3	5	8	496246	2	3	3	1	0	1263	1	4	0	88	56	0	0	100
fixed	3	5	9	498154	3	2	2	1	0	678	1	4	0	80	57	0	0	100
fixed	3	5	10	499163	1	4	4	1	0	684	1	4	0	96	58	0	0	100
fixed	3	5	11	500561	5	2	2	1	0	792	1	4	0	80	59	0	0	100
fixed	3	5	12	502059	4	3	3	1	0	449	1	4	0	88	60	0	0	100
fixed	3	6	1	503551	4	1	1	1	0	570	1	4	0	72	61	0	0	100
fixed	3	6	2	504991	1	2	2	1	0	917	1	4	0	80	62	0	0	100
fixed	3	6	3	506709	6	4	4	1	0	764	1	4	0	96	63	0	0	100
fixed	3	6	4	507807	2	1	1	1	0	790	1	4	0	72	64	0	0	100
fixed	3	6	5	509268	5	3	3	1	0	447	1	4	0	88	65	0	0	100
fixed	3	6	6	510301	6	4	4	1	0	740	1	4	0	96	66	0	0	100
fixed	3	6	7	511968	3	1	1	1	0	630	1	4	0	72	67	0	0	100
fixed	3	6	8	513032	2	3	3	1	0	888	1	4	0	88	68	0	0	100
fixed	3	6	9	514301	3	2	2	1	0	826	1	4	0	80	69	0	0	100
fixed	3	6	10	515530	1	4	4	1	0	862	1	4	0	96	70	0	0	100
fixed	3	6	11	516867	5	2	2	1	0	950	1	4	0	80	71	0	0	100
fixed	3	6	12	518810	4	3	3	1	0	676	1	4	0	88	72	0	0	100
fixed	3	7	1	520392	4	1	1	1	0	584	1	4	0	72	73	0	0	100
fixed	3	7	2	521806	1	2	2	1	0	917	1	4	0	80	74	0	0	100
fixed	3	7	3	523723	6	4	4	1	0	835	1	4	0	96	75	0	0	100
fixed	3	7	4	525365	2	1	1	1	0	638	1	4	0	72	76	0	0	100
fixed	3	7	5	526389	5	3	3	1	0	498	1	4	0	88	77	0	0	100
fixed	3	7	6	527783	6	4	4	1	0	679	1	4	0	96	78	0	0	100
fixed	3	7	7	528782	3	1	1	1	0	741	1	4	0	72	79	0	0	100
fixed	3	7	8	530257	2	3	3	1	0	1079	1	4	0	88	80	0	0	100
fixed	3	7	9	532260	3	2	2	1	0	730	1	4	0	80	81	0	0	100
fixed	3	7	10	533756	1	4	4	1	0	746	1	4	0	96	82	0	0	100
fixed	3	7	11	535450	5	2	2	1	0	1179	1	4	0	80	83	0	0	100
fixed	3	7	12	537067	4	3	3	1	0	750	1	4	0	88	84	0	0	100
fixed	3	8	1	538955	4	1	1	1	0	622	1	4	0	72	85	0	0	100
fixed	3	8	2	540603	1	2	2	1	0	985	1	4	0	80	86	0	0	100
fixed	3	8	3	542447	6	4	4	1	0	610	1	4	0	96	87	0	0	100
fixed	3	8	4	543594	2	1	1	1	0	722	1	4	0	72	88	0	0	100
fixed	3	8	5	545336	5	3	3	1	0	512	1	4	0	88	89	0	0	100
fixed	3	8	6	546744	6	4	4	1	0	684	1	4	0	96	90	0	0	100
fixed	3	8	7	547972	3	1	1	1	0	945	1	4	0	72	91	0	0	100
fixed	3	8	8	549707	2	3	3	1	0	1023	1	4	0	88	92	0	0	100
fixed	3	8	9	551727	3	2	2	1	0	833	1	4	0	80	93	0	0	100
fixed	3	8	10	553500	1	4	4	1	0	678	1	4	0	96	94	0	0	100
fixed	3	8	11	554943	5	2	2	1	0	865	1	4	0	80	95	0	0	100
fixed	3	8	12	556302	4	3	3	1	0	551	1	4	0	88	96	0	0	100
fixed	3	9	1	557450	4	1	1	1	0	623	1	4	0	72	97	0	0	100
fixed	3	9	2	558442	1	2	2	1	0	869	1	4	0	80	98	0	0	100
fixed	3	9	3	559718	6	4	4	1	0	727	1	4	0	96	99	0	0	100
fixed	3	9	4	561175	2	1	1	1	0	609	1	4	0	72	100	0	0	100
fixed	3	9	5	562392	5	3	3	1	0	1166	1	4	0	88	101	0	0	100
fixed	3	9	6	564387	6	4	4	1	0	641	1	4	0	96	102	0	0	100
fixed	3	9	7	565879	3	1	1	1	0	970	1	4	0	72	103	0	0	100
fixed	3	9	8	567599	2	3	3	1	0	865	1	4	0	88	104	0	0	100
fixed	3	9	9	569357	3	2	2	1	0	599	1	4	0	80	105	0	0	100
fixed	3	9	10	570446	1	4	4	1	0	880	1	4	0	96	106	0	0	100
fixed	3	9	11	572273	5	2	2	1	0	971	1	4	0	80	107	0	0	100
fixed	3	9	12	573543	4	3	3	1	0	645	1	4	0	88	108	0	0	100
fixed	3	10	1	575127	4	1	1	1	0	522	1	4	0	72	109	0	0	100
fixed	3	10	2	576473	1	2	2	1	0	1041	1	4	0	80	110	0	0	100
fixed	3	10	3	578092	6	4	4	1	0	669	1	4	0	96	111	0	0	100
fixed	3	10	4	579653	2	1	1	1	0	610	1	4	0	72	112	0	0	100
fixed	3	10	5	580797	5	3	3	1	0	498	1	4	0	88	113	0	0	100
fixed	3	10	6	581605	6	4	4	1	0	768	1	4	0	96	114	0	0	100
fixed	3	10	7	583346	3	1	1	1	0	918	1	4	0	72	115	0	0	100
fixed	3	10	8	584862	2	3	3	1	0	1070	1	4	0	88	116	0	0	100
fixed	3	10	9	586368	3	2	2	1	0	774	1	4	0	80	117	0	0	100
fixed	3	10	10	587663	1	4	4	1	0	615	1	4	0	96	118	0	0	100
fixed	3	10	11	589035	5	2	2	1	0	917	1	4	0	80	119	0	0	100
fixed	3	10	12	590456	4	3	3	1	0	633	1	4	0	88	120	0	0	100
fixed	4	1	1	757856	4	1	1	1	0	790	1	4	0	104	1	0	0	100
fixed	4	1	2	759020	1	2	2	1	0	925	1	4	0	112	2	0	0	100
fixed	4	1	3	760836	6	4	4	1	0	624	1	4	0	128	3	0	0	100
fixed	4	1	4	762148	2	1	1	1	0	689	1	4	0	104	4	0	0	100
fixed	4	1	5	763264	5	3	3	1	0	594	1	4	0	120	5	0	0	100
fixed	4	1	6	764158	6	4	4	1	0	803	1	4	0	128	6	0	0	100
fixed	4	1	7	765638	3	1	1	1	0	749	1	4	0	104	7	0	0	100
fixed	4	1	8	767151	2	3	3	1	0	989	1	4	0	120	8	0	0	100
fixed	4	1	9	768641	3	2	2	1	0	518	1	4	0	112	9	0	0	100
fixed	4	1	10	770040	1	4	4	1	0	658	1	4	0	128	10	0	0	100
fixed	4	1	11	771058	5	2	2	1	0	831	1	4	0	112	11	0	0	100
fixed	4	1	12	772376	4	3	3	1	0	583	1	4	0	120	12	0	0	100
fixed	4	2	1	773564	4	1	1	1	0	741	1	4	0	104	13	0	0	100
fixed	4	2	2	775140	1	2	2	1	0	963	1	4	0	112	14	0	0	100
fixed	4	2	3	776539	6	4	4	1	0	615	1	4	0	128	15	0	0	100
fixed	4	2	4	778050	2	1	1	2	0	871	2	4	0	104	16	0	0	100
fixed	4	2	5	779612	5	3	3	1	0	1501	1	4	0	120	17	0	0	100
fixed	4	2	6	781641	6	4	4	1	0	711	1	4	0	128	18	0	0	100
fixed	4	2	7	782824	3	1	1	1	0	925	1	4	0	104	19	0	0	100
fixed	4	2	8	784408	2	3	3	1	0	826	1	4	0	120	20	0	0	100
fixed	4	2	9	785933	3	2	2	1	0	649	1	4	0	112	21	0	0	100
fixed	4	2	10	787571	1	4	4	1	0	692	1	4	0	128	22	0	0	100
fixed	4	2	11	789173	5	2	2	1	0	912	1	4	0	112	23	0	0	100
fixed	4	2	12	790933	4	3	0	2	2	0	3	4	0	120	23	0	1	96
fixed	4	3	1	794565	4	1	1	1	0	835	1	4	0	104	24	0	1	96
fixed	4	3	2	795929	1	2	2	1	0	874	1	4	0	112	25	0	1	96
fixed	4	3	3	797161	6	4	4	1	0	910	1	4	0	128	26	0	1	96
fixed	4	3	4	798715	2	1	1	1	0	732	1	4	0	104	27	0	1	96
fixed	4	3	5	800282	5	3	3	1	0	497	1	4	0	120	28	0	1	97
fixed	4	3	6	801465	6	4	4	1	0	751	1	4	0	128	29	0	1	97
fixed	4	3	7	803056	3	1	1	1	0	716	1	4	0	104	30	0	1	97
fixed	4	3	8	804785	2	3	3	1	0	827	1	4	0	120	31	0	1	97
fixed	4	3	9	806576	3	2	2	1	0	703	1	4	0	112	32	0	1	97
fixed	4	3	10	807730	1	4	4	1	0	726	1	4	0	128	33	0	1	97
fixed	4	3	11	809186	5	2	2	1	0	872	1	4	0	112	34	0	1	97
fixed	4	3	12	810774	4	3	3	1	0	861	1	4	0	120	35	0	1	97
fixed	4	4	1	812927	4	1	1	1	0	834	1	4	0	104	36	0	1	97
fixed	4	4	2	814760	1	2	2	1	0	893	1	4	0	112	37	0	1	97
fixed	4	4	3	816243	6	4	4	1	0	718	1	4	0	128	38	0	1	97
fixed	4	4	4	817275	2	1	1	1	0	954	1	4	0	104	39	0	1	98
fixed	4	4	5	818972	5	3	3	1	0	458	1	4	0	120	40	0	1	98
fixed	4	4	6	820303	6	4	4	1	0	714	1	4	0	128	41	0	1	98
fixed	4	4	7	821928	3	1	1	1	0	789	1	4	0	104	42	0	1	98
fixed	4	4	8	823296	2	3	3	1	0	1027	1	4	0	120	43	0	1	98
fixed	4	4	9	824995	3	2	2	1	0	683	1	4	0	112	44	0	1	98
fixed	4	4	10	825990	1	4	4	1	0	816	1	4	0	128	45	0	1	98
fixed	4	4	11	827623	5	2	2	1	0	772	1	4	0	112	46	0	1	98
fixed	4	4	12	828939	4	3	3	1	0	484	1	4	0	120	47	0	1	98
fixed	4	5	1	830587	4	1	1	1	0	662	1	4	0	104	48	0	1	98
fixed	4	5	2	831785	1	2	2	1	0	803	1	4	0	112	49	0	1	98
fixed	4	5	3	833001	6	4	4	1	0	752	1	4	0	128	50	0	1	98
fixed	4	5	4	834740	2	1	1	1	0	470	1	4	0	104	51	0	1	98
fixed	4	5	5	835779	5	3	3	1	0	554	1	4	0	120	52	0	1	98
fixed	4	5	6	837356	6	4	4	1	0	703	1	4	0	128	53	0	1	98
fixed	4	5	7	838736	3	1	1	1	0	757	1	4	0	104	54	0	1	98
fixed	4	5	8	840502	2	3	3	1	0	890	1	4	0	120	55	0	1	98
fixed	4	5	9	841763	3	2	2	1	0	764	1	4	0	112	56	0	1	98
fixed	4	5	10	843320	1	4	4	1	0	562	1	4	0	128	57	0	1	98
fixed	4	5	11	844749	5	2	2	1	0	1062	1	4	0	112	58	0	1	98
fixed	4	5	12	846203	4	3	3	1	0	993	1	4	0	120	59	0	1	98
fixed	4	6	1	847779	4	1	1	1	0	766	1	4	0	104	60	0	1	98
fixed	4	6	2	849173	1	2	2	1	0	1147	1	4	0	112	61	0	1	98
fixed	4	6	3	850859	6	4	4	1	0	803	1	4	0	128	62	0	1	98
fixed	4	6	4	852179	2	1	1	1	0	707	1	4	0	104	63	0	1	98
fixed	4	6	5	853685	5	3	3	1	0	484	1	4	0	120	64	0	1	98
fixed	4	6	6	855075	6	4	4	1	0	761	1	4	0	128	65	0	1	98
fixed	4	6	7	856767	3	1	1	1	0	697	1	4	0	104	66	0	1	99
fixed	4	6	8	857863	2	3	3	1	0	1099	1	4	0	120	67	0	1	99
fixed	4	6	9	859686	3	2	2	1	0	510	1	4	0	112	68	0	1	99
fixed	4	6	10	861177	1	4	4	1	0	846	1	4	0	128	69	0	1	99
fixed	4	6	11	863013	5	2	2	1	0	793	1	4	0	112	70	0	1	99
fixed	4	6	12	864533	4	3	3	1	0	856	1	4	0	120	71	0	1	99
fixed	4	7	1	866308	4	1	1	1	0	693	1	4	0	104	72	0	1	99
fixed	4	7	2	868033	1	2	2	1	0	1132	1	4	0	112	73	0	1	99
fixed	4	7	3	869965	6	4	4	1	0	762	1	4	0	128	74	0	1	99
fixed	4	7	4	871343	2	1	1	1	0	744	1	4	0	104	75	0	1	99
fixed	4	7	5	872915	5	3	3	1	0	549	1	4	0	120	76	0	1	99
fixed	4	7	6	874469	6	4	4	1	0	563	1	4	0	128	77	0	1	99
fixed	4	7	7	875840	3	1	1	1	0	697	1	4	0	104	78	0	1	99
fixed	4	7	8	877166	2	3	3	1	0	1009	1	4	0	120	79	0	1	99
fixed	4	7	9	879011	3	2	2	1	0	563	1	4	0	112	80	0	1	99
fixed	4	7	10	880436	1	4	4	1	0	711	1	4	0	128	81	0	1	99
fixed	4	7	11	881567	5	2	2	1	0	1127	1	4	0	112	82	0	1	99
fixed	4	7	12	883468	4	3	3	1	0	510	1	4	0	120	83	0	1	99
fixed	4	8	1	884820	4	1	1	1	0	629	1	4	0	104	84	0	1	99
fixed	4	8	2	886337	1	2	2	1	0	1029	1	4	0	112	85	0	1	99
fixed	4	8	3	888063	6	4	4	1	0	571	1	4	0	128	86	0	1	99
fixed	4	8	4	888974	2	1	1	1	0	717	1	4	0	104	87	0	1	99
fixed	4	8	5	890211	5	3	3	1	0	577	1	4	0	120	88	0	1	99
fixed	4	8	6	891583	6	4	4	1	0	663	1	4	0	128	89	0	1	99
fixed	4	8	7	893241	3	1	1	1	0	648	1	4	0	104	90	0	1	99
fixed	4	8	8	894388	2	3	3	1	0	864	1	4	0	120	91	0	1	99
fixed	4	8	9	895741	3	2	2	1	0	719	1	4	0	112	92	0	1	99
fixed	4	8	10	897151	1	4	4	1	0	530	1	4	0	128	93	0	1	99
fixed	4	8	11	898394	5	2	2	1	0	846	1	4	0	112	94	0	1	99
fixed	4	8	12	900233	4	3	3	1	0	880	1	4	0	120	95	0	1	99
fixed	4	9	1	902246	4	1	1	1	0	699	1	4	0	104	96	0	1	99
fixed	4	9	2	903596	1	2	2	1	0	938	1	4	0	112	97	0	1	99
fixed	4	9	3	904850	6	4	4	1	0	772	1	4	0	128	98	0	1	99
fixed	4	9	4	906588	2	1	1	1	0	691	1	4	0	104	99	0	1	99
fixed	4	9	5	908016	5	3	3	1	0	414	1	4	0	120	100	0	1	99
fixed	4	9	6	909126	6	4	4	1	0	736	1	4	0	128	101	0	1	99
fixed	4	9	7	910770	3	1	1	1	0	682	1	4	0	104	102	0	1	99
fixed	4	9	8	912056	2	3	3	1	0	1099	1	4	0	120	103	0	1	99
fixed	4	9	9	913862	3	2	2	1	0	527	1	4	0	112	104	0	1	99
fixed	4	9	10	915045	1	4	4	1	0	724	1	4	0	128	105	0	1	99
fixed	4	9	11	916117	5	2	2	1	0	1375	1	4	0	112	106	0	1	99
fixed	4	9	12	918029	4	3	3	1	0	758	1	4	0	120	107	0	1	99
fixed	4	10	1	920073	4	1	1	1	0	703	1	4	0	104	108	0	1	99
fixed	4	10	2	921539	1	2	2	1	0	890	1	4	0	112	109	0	1	99
fixed	4	10	3	923314	6	4	4	1	0	686	1	4	0	128	110	0	1	99
fixed	4	10	4	924760	2	1	1	1	0	585	1	4	0	104	111	0	1	99
fixed	4	10	5	926062	5	3	3	1	0	482	1	4	0	120	112	0	1	99
fixed	4	10	6	927186	6	4	4	1	0	707	1	4	0	128	113	0	1	99
fixed	4	10	7	928865	3	1	1	1	0	651	1	4	0	104	114	0	1	99
fixed	4	10	8	929898	2	3	3	1	0	783	1	4	0	120	115	0	1	99
fixed	4	10	9	931486	3	2	2	1	0	556	1	4	0	112	116	0	1	99
fixed	4	10	10	932750	1	4	4	1	0	639	1	4	0	128	117	0	1	99
fixed	4	10	11	934013	5	2	2	1	0	769	1	4	0	112	118	0	1	99
fixed	4	10	12	935461	4	3	3	1	0	740	1	4	0	120	119	0	1	99
fixed	5	1	1	937380	4	1	1	1	0	722	1	4	0	136	1	0	0	100
fixed	5	1	2	939020	1	2	2	1	0	925	1	4	0	144	2	0	0	100
fixed	5	1	3	940963	6	4	4	1	0	587	1	4	0	160	3	0	0	100
fixed	5	1	4	942297	2	1	1	1	0	546	1	4	0	136	4	0	0	100
fixed	5	1	5	943486	5	3	3	1	0	512	1	4	0	152	5	0	0	100
fixed	5	1	6	944646	6	4	4	1	0	727	1	4	0	160	6	0	0	100
fixed	5	1	7	945714	3	1	1	1	0	850	1	4	0	136	7	0	0	100
fixed	5	1	8	947461	2	3	3	1	0	856	1	4	0	152	8	0	0	100
fixed	5	1	9	948757	3	2	2	1	0	713	1	4	0	144	9	0	0	100
fixed	5	1	10	949993	1	4	4	1	0	629	1	4	0	160	10	0	0	100
fixed	5	1	11	951268	5	2	2	1	0	942	1	4	0	144	11	0	0	100
fixed	5	1	12	952593	4	3	3	1	0	710	1	4	0	152	12	0	0	100
fixed	5	2	1	954591	4	1	1	1	0	649	1	4	0	136	13	0	0	100
fixed	5	2	2	955908	1	2	2	1	0	930	1	4	0	144	14	0	0	100
fixed	5	2	3	957743	6	4	4	1	0	572	1	4	0	160	15	0	0	100
fixed	5	2	4	958960	2	1	1	1	0	601	1	4	0	136	16	0	0	100
fixed	5	2	5	960030	5	3	3	1	0	595	1	4	0	152	17	0	0	100
fixed	5	2	6	961195	6	4	4	1	0	674	1	4	0	160	18	0	0	100
fixed	5	2	7	962581	3	1	1	1	0	711	1	4	0	136	19	0	0	100
fixed	5	2	8	964052	2	3	3	1	0	873	1	4	0	152	20	0	0	100
fixed	5	2	9	965395	3	2	2	1	0	680	1	4	0	144	21	0	0	100
fixed	5	2	10	966531	1	4	4	1	0	664	1	4	0	160	22	0	0	100
fixed	5	2	11	968024	5	2	2	1	0	1248	1	4	0	144	23	0	0	100
fixed	5	2	12	969561	4	3	3	1	0	575	1	4	0	152	24	0	0	100
fixed	5	3	1	970881	4	1	1	1	0	599	1	4	0	136	25	0	0	100
fixed	5	3	2	971962	1	2	2	1	0	778	1	4	0	144	26	0	0	100
fixed	5	3	3	973536	6	4	4	1	0	503	1	4	0	160	27	0	0	100
fixed	5	3	4	974375	2	1	1	1	0	668	1	4	0	136	28	0	0	100
fixed	5	3	5	975704	5	3	3	1	0	348	1	4	0	152	29	0	0	100
fixed	5	3	6	976682	6	4	4	1	0	626	1	4	0	160	30	0	0	100
fixed	5	3	7	977914	3	1	1	1	0	870	1	4	0	136	31	0	0	100
fixed	5	3	8	979643	2	3	3	1	0	829	1	4	0	152	32	0	0	100
fixed	5	3	9	981423	3	2	2	1	0	753	1	4	0	144	33	0	0	100
fixed	5	3	10	983212	1	4	4	1	0	973	1	4	0	160	34	0	0	100
fixed	5	3	11	984614	5	2	2	1	0	938	1	4	0	144	35	0	0	100
fixed	5	3	12	986117	4	3	3	1	0	674	1	4	0	152	36	0	0	100
fixed	5	4	1	987422	4	1	1	1	0	635	1	4	0	136	37	0	0	100
fixed	5	4	2	988867	1	2	2	1	0	1134	1	4	0	144	38	0	0	100
fixed	5	4	3	990543	6	4	4	1	0	767	1	4	0	160	39	0	0	100
fixed	5	4	4	991672	2	1	1	1	0	1119	1	4	0	136	40	0	0	100
fixed	5	4	5	993389	5	3	3	2	0	1534	2	4	0	152	41	0	0	100
fixed	5	4	6	995392	6	4	4	1	0	841	1	4	0	160	42	0	0	100
fixed	5	4	7	997119	3	1	1	1	0	944	1	4	0	136	43	0	0	100
fixed	5	4	8	998367	2	3	3	1	0	1107	1	4	0	152	44	0	0	100
fixed	5	4	9	1000189	3	2	2	1	0	590	1	4	0	144	45	0	0	100
fixed	5	4	10	1001307	1	4	4	1	0	623	1	4	0	160	46	0	0	100
fixed	5	4	11	1002334	5	2	2	1	0	908	1	4	0	144	47	0	0	100
fixed	5	4	12	1003937	4	3	3	1	0	768	1	4	0	152	48	0	0	100
fixed	5	5	1	1005917	4	1	1	1	0	619	1	4	0	136	49	0	0	100
fixed	5	5	2	1007368	1	2	2	1	0	830	1	4	0	144	50	0	0	100
fixed	5	5	3	1008946	6	4	4	1	0	659	1	4	0	160	51	0	0	100
fixed	5	5	4	1010178	2	1	1	1	0	583	1	4	0	136	52	0	0	100
fixed	5	5	5	1011063	5	3	3	1	0	1017	1	4	0	152	53	0	0	100
fixed	5	5	6	1012566	6	4	4	1	0	706	1	4	0	160	54	0	0	100
fixed	5	5	7	1014003	3	1	1	1	0	829	1	4	0	136	55	0	0	100
fixed	5	5	8	1015751	2	3	3	1	0	827	1	4	0	152	56	0	0	100
fixed	5	5	9	1017085	3	2	2	1	0	883	1	4	0	144	57	0	0	100
fixed	5	5	10	1018426	1	4	4	1	0	770	1	4	0	160	58	0	0	100
fixed	5	5	11	1019788	5	2	2	1	0	792	1	4	0	144	59	0	0	100
fixed	5	5	12	1021531	4	3	3	1	0	966	1	4	0	152	60	0	0	100
fixed	5	6	1	1023160	4	1	1	1	0	609	1	4	0	136	61	0	0	100
fixed	5	6	2	1024409	1	2	2	1	0	965	1	4	0	144	62	0	0	100
fixed	5	6	3	1025898	6	4	4	1	0	661	1	4	0	160	63	0	0	100
fixed	5	6	4	1027190	2	1	1	1	0	639	1	4	0	136	64	0	0	100
fixed	5	6	5	1028642	5	3	3	1	0	481	1	4	0	152	65	0	0	100
fixed	5	6	6	1029844	6	4	4	1	0	710	1	4	0	160	66	0	0	100
fixed	5	6	7	1031397	3	1	1	1	0	692	1	4	0	136	67	0	0	100
fixed	5	6	8	1032621	2	3	3	1	0	873	1	4	0	152	68	0	0	100
fixed	5	6	9	1033988	3	2	2	1	0	679	1	4	0	144	69	0	0	100
fixed	5	6	10	1035027	1	4	4	1	0	651	1	4	0	160	70	0	0	100
fixed	5	6	11	1036057	5	2	2	1	0	1303	1	4	0	144	71	0	0	100
fixed	5	6	12	1038122	4	3	3	2	0	952	2	4	0	152	72	0	0	100
fixed	5	7	1	1040168	4	1	1	1	0	721	1	4	0	136	73	0	0	100
fixed	5	7	2	1041552	1	2	2	1	0	958	1	4	0	144	74	0	0	100
fixed	5	7	3	1042949	6	4	4	1	0	915	1	4	0	160	75	0	0	100
fixed	5	7	4	1044374	2	1	1	1	0	1039	1	4	0	136	76	0	0	100
fixed	5	7	5	1045790	5	3	3	1	0	1139	1	4	0	152	77	0	0	100
fixed	5	7	6	1047712	6	4	4	1	0	690	1	4	0	160	78	0	0	100
fixed	5	7	7	1048806	3	1	1	1	0	947	1	4	0	136	79	0	0	100
fixed	5	7	8	1050624	2	3	3	1	0	886	1	4	0	152	80	0	0	100
fixed	5	7	9	1052394	3	2	2	1	0	643	1	4	0	144	81	0	0	100
fixed	5	7	10	1054005	1	4	4	1	0	527	1	4	0	160	82	0	0	100
fixed	5	7	11	1055468	5	2	2	1	0	817	1	4	0	144	83	0	0	100
fixed	5	7	12	1057305	4	3	3	1	0	867	1	4	0	152	84	0	0	100
fixed	5	8	1	1059115	4	1	1	1	0	622	1	4	0	136	85	0	0	100
fixed	5	8	2	1060344	1	2	2	1	0	875	1	4	0	144	86	0	0	100
fixed	5	8	3	1062158	6	4	4	1	0	597	1	4	0	160	87	0	0	100
fixed	5	8	4	1063363	2	1	1	1	0	810	1	4	0	136	88	0	0	100
fixed	5	8	5	1064922	5	3	3	1	0	385	1	4	0	152	89	0	0	100
fixed	5	8	6	1065630	6	4	4	1	0	898	1	4	0	160	90	0	0	100
fixed	5	8	7	1067030	3	1	1	1	0	872	1	4	0	136	91	0	0	100
fixed	5	8	8	1068541	2	3	3	1	0	919	1	4	0	152	92	0	0	100
fixed	5	8	9	1070337	3	2	2	1	0	691	1	4	0	144	93	0	0	100
fixed	5	8	10	1071981	1	4	4	1	0	477	1	4	0	160	94	0	0	100
fixed	5	8	11	1072842	5	2	2	1	0	745	1	4	0	144	95	0	0	100
fixed	5	8	12	1074444	4	3	3	1	0	517	1	4	0	152	96	0	0	100
fixed	5	9	1	1075722	4	1	1	1	0	431	1	4	0	136	97	0	0	100
fixed	5	9	2	1076591	1	2	2	1	0	1130	1	4	0	144	98	0	0	100
fixed	5	9	3	1078535	6	4	4	1	0	640	1	4	0	160	99	0	0	100
fixed	5	9	4	1080115	2	1	1	1	0	653	1	4	0	136	100	0	0	100
fixed	5	9	5	1081326	5	3	3	1	0	682	1	4	0	152	101	0	0	100
fixed	5	9	6	1082701	6	4	4	1	0	720	1	4	0	160	102	0	0	100
fixed	5	9	7	1083719	3	1	1	1	0	837	1	4	0	136	103	0	0	100
fixed	5	9	8	1085119	2	3	3	1	0	737	1	4	0	152	104	0	0	100
fixed	5	9	9	1086481	3	2	2	1	0	655	1	4	0	144	105	0	0	100
fixed	5	9	10	1087696	1	4	4	1	0	988	1	4	0	160	106	0	0	100
fixed	5	9	11	1089391	5	2	2	1	0	692	1	4	0	144	107	0	0	100
fixed	5	9	12	1090605	4	3	3	1	0	545	1	4	0	152	108	0	0	100
fixed	5	10	1	1092413	4	1	1	1	0	652	1	4	0	136	109	0	0	100
fixed	5	10	2	1093939	1	2	2	1	0	939	1	4	0	144	110	0	0	100
fixed	5	10	3	1095652	6	4	4	1	0	851	1	4	0	160	111	0	0	100
fixed	5	10	4	1097318	2	1	1	1	0	661	1	4	0	136	112	0	0	100
fixed	5	10	5	1098819	5	3	3	1	0	437	1	4	0	152	113	0	0	100
fixed	5	10	6	1099599	6	4	4	1	0	836	1	4	0	160	114	0	0	100
fixed	5	10	7	1100858	3	1	1	1	0	670	1	4	0	136	115	0	0	100
fixed	5	10	8	1102053	2	3	3	1	0	812	1	4	0	152	116	0	0	100
fixed	5	10	9	1103571	3	2	2	1	0	563	1	4	0	144	117	0	0	100
fixed	5	10	10	1104576	1	4	4	1	0	817	1	4	0	160	118	0	0	100
fixed	5	10	11	1106297	5	2	2	1	0	848	1	4	0	144	119	0	0	100
fixed	5	10	12	1108043	4	3	3	1	0	654	1	4	0	152	120	0	0	100
random	6	1	1	1333719	6	1	1	1	0	967	1	4	0	168	1	0	0	100
random	6	1	2	1335523	4	4	4	1	0	891	1	4	0	192	2	0	0	100
random	6	1	3	1336808	2	2	2	1	0	821	1	4	0	176	3	0	0	100
random	6	1	4	1338085	3	3	3	1	0	662	1	4	0	184	4	0	0	100
random	6	1	5	1339519	5	2	2	2	0	1121	2	4	0	176	5	0	0	100
random	6	1	6	1341594	1	4	4	1	0	586	1	4	0	192	6	0	0	100
random	6	1	7	1343055	6	1	1	1	0	636	1	4	0	168	7	0	0	100
random	6	1	8	1344708	2	3	3	1	0	742	1	4	0	184	8	0	0	100
random	6	1	9	1345902	4	2	2	1	0	843	1	4	0	176	9	0	0	100
random	6	1	10	1347073	1	1	1	1	0	850	1	4	0	168	10	0	0	100
random	6	1	11	1348830	5	4	4	1	0	439	1	4	0	192	11	0	0	100
random	6	1	12	1350121	3	3	3	1	0	977	1	4	0	184	12	0	0	100
random	6	1	13	1351716	5	2	2	1	0	757	1	4	0	176	13	0	0	100
random	6	1	14	1353274	1	4	4	1	0	715	1	4	0	192	14	0	0	100
random	6	1	15	1354488	3	1	1	1	0	727	1	4	0	168	15	0	0	100
random	6	1	16	1355804	4	3	3	2	0	1560	2	4	0	184	16	0	0	100
random	6	1	17	1358219	6	4	4	1	0	658	1	4	0	192	17	0	0	100
random	6	1	18	1359482	2	1	1	1	0	892	1	4	0	168	18	0	0	100
random	6	1	19	1361159	5	3	3	1	0	813	1	4	0	184	19	0	0	100
random	6	1	20	1362760	2	2	2	1	0	761	1	4	0	176	20	0	0	100
random	6	1	21	1364113	3	3	3	1	0	664	1	4	0	184	21	0	0	100
random	6	1	22	1365090	6	1	1	2	0	1207	2	4	0	168	22	0	0	100
random	6	1	23	1366998	4	2	2	1	0	1342	1	4	0	176	23	0	0	100
random	6	1	24	1368944	1	4	4	1	0	955	1	4	0	192	24	0	0	100
random	6	1	25	1370512	4	3	3	1	0	1185	1	4	0	184	25	0	0	100
random	6	1	26	1372557	2	1	1	1	0	666	1	4	0	168	26	0	0	100
random	6	1	27	1374248	5	2	2	1	0	1307	1	4	0	176	27	0	0	100
random	6	1	28	1376049	6	4	4	1	0	694	1	4	0	192	28	0	0	100
random	6	1	29	1377346	1	3	3	1	0	623	1	4	0	184	29	0	0	100
random	6	1	30	1378394	5	2	2	1	0	819	1	4	0	176	30	0	0	100
random	6	1	31	1379891	2	1	1	1	0	508	1	4	0	168	31	0	0	100
random	6	1	32	1380906	3	3	3	1	0	929	1	4	0	184	32	0	0	100
random	6	1	33	1382863	6	4	4	1	0	518	1	4	0	192	33	0	0	100
random	6	1	34	1384043	4	2	2	1	0	708	1	4	0	176	34	0	0	100
random	6	1	35	1385221	3	4	4	1	0	778	1	4	0	192	35	0	0	100
random	6	1	36	1386847	1	1	1	1	0	421	1	4	0	168	36	0	0	100
random	6	1	37	1388423	3	4	4	1	0	1106	1	4	0	192	37	0	0	100
random	6	1	38	1389958	5	3	3	2	0	1017	2	4	0	184	38	0	0	100
random	6	1	39	1391833	6	1	1	1	0	930	1	4	0	168	39	0	0	100
random	6	1	40	1393517	1	2	2	1	0	1058	1	4	0	176	40	0	0	100
random	6	1	41	1395018	2	3	3	1	0	707	1	4	0	184	41	0	0	100
random	6	1	42	1396525	4	4	4	1	0	563	1	4	0	192	42	0	0	100
random	6	1	43	1397859	1	2	2	1	0	1211	1	4	0	176	43	0	0	100
random	6	1	44	1399848	6	3	3	1	0	662	1	4	0	184	44	0	0	100
random	6	1	45	1401308	3	1	1	1	0	769	1	4	0	168	45	0	0	100
random	6	1	46	1402440	4	4	4	1	0	960	1	4	0	192	46	0	0	100
random	6	1	47	1404370	2	2	2	1	0	623	1	4	0	176	47	0	0	100
random	6	1	48	1405588	5	1	1	1	0	1059	1	4	0	168	48	0	0	100
random	6	1	49	1407904	2	3	3	1	0	985	1	4	0	184	49	0	0	100
random	6	1	50	1409315	3	1	1	1	0	822	1	4	0	168	50	0	0	100
random	6	1	51	1411165	1	4	4	1	0	487	1	4	0	192	51	0	0	100
random	6	1	52	1412275	5	3	3	1	0	720	1	4	0	184	52	0	0	100
random	6	1	53	1413790	3	2	2	1	0	544	1	4	0	176	53	0	0	100
random	6	1	54	1414734	6	4	4	1	0	984	1	4	0	192	54	0	0	100
random	6	1	55	1416564	4	2	2	1	0	858	1	4	0	176	55	0	0	100
random	6	1	56	1418232	1	1	1	1	0	724	1	4	0	168	56	0	0	100
random	6	1	57	1419767	5	4	4	1	0	691	1	4	0	192	57	0	0	100
random	6	1	58	1421362	2	1	1	1	0	623	1	4	0	168	58	0	0	100
random	6	1	59	1422532	6	2	2	1	0	894	1	4	0	176	59	0	0	100
random	6	1	60	1424294	4	3	3	1	0	675	1	4	0	184	60	0	0	100
random	6	1	61	1425781	1	2	2	1	0	908	1	4	0	176	61	0	0	100
random	6	1	62	1427429	6	4	4	1	0	879	1	4	0	192	62	0	0	100
random	6	1	63	1429005	4	1	1	1	0	763	1	4	0	168	63	0	0	100
random	6	1	64	1430608	2	2	2	1	0	823	1	4	0	176	64	0	0	100
random	6	1	65	1432375	4	3	3	1	0	653	1	4	0	184	65	0	0	100
random	6	1	66	1433869	3	1	1	1	0	749	1	4	0	168	66	0	0	100
random	6	1	67	1434905	1	3	3	1	0	857	1	4	0	184	67	0	0	100
random	6	1	68	1436330	5	4	4	1	0	741	1	4	0	192	68	0	0	100
random	6	1	69	1437500	2	2	2	1	0	812	1	4	0	176	69	0	0	100
random	6	1	70	1439204	3	1	1	1	0	804	1	4	0	168	70	0	0	100
random	6	1	71	1440508	5	4	4	1	0	716	1	4	0	192	71	0	0	100
random	6	1	72	1441952	6	3	3	2	0	1239	2	4	0	184	72	0	0	100
random	6	1	73	1444193	2	1	1	1	0	896	1	4	0	168	73	0	0	100
random	6	1	74	1445872	5	3	3	1	0	1137	1	4	0	184	74	0	0	100
random	6	1	75	1447826	1	4	4	1	0	750	1	4	0	192	75	0	0	100
random	6	1	76	1449100	6	2	2	1	0	817	1	4	0	176	76	0	0	100
random	6	1	77	1450416	2	1	1	1	0	897	1	4	0	168	77	0	0	100
random	6	1	78	1451977	4	4	4	1	0	766	1	4	0	192	78	0	0	100
random	6	1	79	1453643	3	2	2	1	0	704	1	4	0	176	79	0	0	100
random	6	1	80	1454768	4	3	3	1	0	520	1	4	0	184	80	0	0	100
random	6	1	81	1455595	1	4	4	1	0	733	1	4	0	192	81	0	0	100
random	6	1	82	1456664	5	1	1	1	0	576	1	4	0	168	82	0	0	100
random	6	1	83	1457685	3	2	2	1	0	829	1	4	0	176	83	0	0	100
random	6	1	84	1459071	6	3	3	1	0	530	1	4	0	184	84	0	0	100
random	6	1	85	1460817	3	2	2	1	0	1056	1	4	0	176	85	0	0	100
random	6	1	86	1462657	1	3	3	1	0	634	1	4	0	184	86	0	0	100
random	6	1	87	1464080	4	4	4	1	0	838	1	4	0	192	87	0	0	100
random	6	1	88	1465625	2	1	1	1	0	557	1	4	0	168	88	0	0	100
random	6	1	89	1467151	6	4	4	1	0	772	1	4	0	192	89	0	0	100
random	6	1	90	1468378	3	3	3	1	0	1024	1	4	0	184	90	0	0	100
random	6	1	91	1469996	5	4	4	1	0	963	1	4	0	192	91	0	0	100
random	6	1	92	1471722	1	2	2	1	0	714	1	4	0	176	92	0	0	100
random	6	1	93	1472781	5	1	1	1	0	709	1	4	0	168	93	0	0	100
random	6	1	94	1474521	4	3	3	1	0	1075	1	4	0	184	94	0	0	100
random	6	1	95	1476124	6	1	1	1	0	1000	1	4	0	168	95	0	0	100
random	6	1	96	1478059	2	2	2	1	0	766	1	4	0	176	96	0	0	100
random	6	1	97	1479596	4	3	3	1	0	1220	1	4	0	184	97	0	0	100
random	6	1	98	1481753	3	2	2	1	0	649	1	4	0	176	98	0	0	100
random	6	1	99	1483045	6	3	3	1	0	643	1	4	0	184	99	0	0	100
random	6	1	100	1484620	1	4	4	1	0	1256	1	4	0	192	100	0	0	100
random	6	1	101	1486438	4	1	1	1	0	515	1	4	0	168	101	0	0	100
random	6	1	102	1487723	5	2	2	1	0	812	1	4	0	176	102	0	0	100
random	6	1	103	1488869	2	4	4	1	0	652	1	4	0	192	103	0	0	100
random	6	1	104	1490493	3	1	1	1	0	631	1	4	0	168	104	0	0	100
random	6	1	105	1492090	1	3	3	1	0	524	1	4	0	184	105	0	0	100
random	6	1	106	1493157	2	2	2	1	0	846	1	4	0	176	106	0	0	100
random	6	1	107	1495012	5	4	4	1	0	664	1	4	0	192	107	0	0	100
random	6	1	108	1496220	6	1	1	1	0	748	1	4	0	168	108	0	0	100
random	6	1	109	1497941	5	4	4	1	0	1115	1	4	0	192	109	0	0	100
random	6	1	110	1499406	6	3	3	2	0	990	2	4	0	184	110	0	0	100
random	6	1	111	1501348	2	2	2	1	0	803	1	4	0	176	111	0	0	100
random	6	1	112	1502640	3	1	1	1	0	829	1	4	0	168	112	0	0	100
random	6	1	113	1504259	1	2	2	1	0	912	1	4	0	176	113	0	0	100
random	6	1	114	1505677	2	3	3	1	0	788	1	4	0	184	114	0	0	100
random	6	1	115	1507382	3	1	1	1	0	764	1	4	0	168	115	0	0	100
random	6	1	116	1509142	4	4	4	1	0	833	1	4	0	192	116	0	0	100
random	6	1	117	1510687	6	1	1	1	0	1032	1	4	0	168	117	0	0	100
random	6	1	118	1512089	5	3	3	1	0	997	1	4	0	184	118	0	0	100
random	6	1	119	1513862	1	4	4	1	0	745	1	4	0	192	119	0	0	100
random	6	1	120	1515010	4	2	2	1	0	721	1	4	0	176	120	0	0	100
fixed	7	1	1	1517220	4	1	1	1	0	947	1	4	0	200	1	0	0	100
fixed	7	1	2	1518983	1	2	2	2	0	1024	2	4	0	208	2	0	0	100
fixed	7	1	3	1520661	6	4	4	1	0	777	1	4	0	224	3	0	0	100
fixed	7	1	4	1522467	2	1	1	1	0	716	1	4	0	200	4	0	0	100
fixed	7	1	5	1524099	5	3	3	1	0	944	1	4	0	216	5	0	0	100
fixed	7	1	6	1525752	6	4	4	1	0	754	1	4	0	224	6	0	0	100
fixed	7	1	7	1527533	3	1	1	1	0	694	1	4	0	200	7	0	0	100
fixed	7	1	8	1529089	2	3	3	1	0	884	1	4	0	216	8	0	0	100
fixed	7	1	9	1530905	3	2	2	1	0	719	1	4	0	208	9	0	0	100
fixed	7	1	10	1532646	1	4	4	1	0	630	1	4	0	224	10	0	0	100
fixed	7	1	11	1533760	5	2	2	1	0	950	1	4	0	208	11	0	0	100
fixed	7	1	12	1535566	4	3	3	1	0	794	1	4	0	216	12	0	0	100
fixed	7	2	1	1537138	4	1	1	1	0	735	1	4	0	200	1	0	0	8
fixed	7	2	2	1538502	1	2	2	1	0	1486	1	4	0	208	2	0	0	14
fixed	7	2	3	1540972	6	4	4	1	0	901	1	4	0	224	3	0	0	20
fixed	7	2	4	1542292	2	1	1	1	0	733	1	4	0	200	4	0	0	25
fixed	7	2	5	1543389	5	3	3	1	0	567	1	4	0	216	5	0	0	29
fixed	7	2	6	1544509	6	4	4	1	0	767	1	4	0	224	6	0	0	33
fixed	7	2	7	1545995	3	1	1	1	0	664	1	4	0	200	7	0	0	37
fixed	7	2	8	1547058	2	3	3	1	0	900	1	4	0	216	8	0	0	40
fixed	7	2	9	1548293	3	2	2	1	0	807	1	4	0	208	9	0	0	43
fixed	7	2	10	1549434	1	4	4	1	0	838	1	4	0	224	10	0	0	45
fixed	7	2	11	1550698	5	2	2	1	0	761	1	4	0	208	11	0	0	48
fixed	7	2	12	1552174	4	3	3	1	0	666	1	4	0	216	12	0	0	50
fixed	7	3	1	1553494	4	1	1	1	0	730	1	4	0	200	1	0	0	4
fixed	7	3	2	1555175	1	2	2	1	0	804	1	4	0	208	2	0	0	8
fixed	7	3	3	1556274	6	4	4	1	0	941	1	4	0	224	3	0	0	11
fixed	7	3	4	1557582	2	1	1	1	0	782	1	4	0	200	4	0	0	14
fixed	7	3	5	1559284	5	3	3	1	0	926	1	4	0	216	5	0	0	17
fixed	7	3	6	1560571	6	4	4	1	0	911	1	4	0	224	6	0	0	20
fixed	7	3	7	1561852	3	1	1	1	0	777	1	4	0	200	7	0	0	23
fixed	7	3	8	1562932	2	3	3	1	0	899	1	4	0	216	8	0	0	25
fixed	7	3	9	1564348	3	2	2	1	0	687	1	4	0	208	9	0	0	27
fixed	7	3	10	1565617	1	4	4	1	0	649	1	4	0	224	10	0	0	29
fixed	7	3	11	1566925	5	2	2	1	0	865	1	4	0	208	11	0	0	31
fixed	7	3	12	1568547	4	3	3	1	0	613	1	4	0	216	12	0	0	33
fixed	7	4	1	1570152	4	1	1	1	0	545	1	4	0	200	1	0	0	3
fixed	7	4	2	1571674	1	2	2	1	0	865	1	4	0	208	2	0	0	5
fixed	7	4	3	1572864	6	4	4	1	0	958	1	4	0	224	3	0	0	8
fixed	7	4	4	1574196	2	1	1	1	0	758	1	4	0	200	4	0	0	10
fixed	7	4	5	1575629	5	3	3	1	0	489	1	4	0	216	5	0	0	12
fixed	7	4	6	1576989	6	4	4	1	0	687	1	4	0	224	6	0	0	14
fixed	7	4	7	1578421	3	1	1	1	0	707	1	4	0	200	7	0	0	16
fixed	7	4	8	1579671	2	3	3	1	0	958	1	4	0	216	8	0	0	18
fixed	7	4	9	1581305	3	2	2	1	0	641	1	4	0	208	9	0	0	20
fixed	7	4	10	1582780	1	4	4	1	0	802	1	4	0	224	10	0	0	22
fixed	7	4	11	1584335	5	2	2	1	0	1104	1	4	0	208	11	0	0	23
fixed	7	4	12	1586447	4	3	3	1	0	695	1	4	0	216	12	0	0	25
fixed	7	5	1	1588029	4	1	1	1	0	644	1	4	0	200	1	0	0	2
fixed	7	5	2	1589222	1	2	2	1	0	953	1	4	0	208	2	0	0	4
fixed	7	5	3	1591157	6	4	4	1	0	783	1	4	0	224	3	0	0	6
fixed	7	5	4	1592952	2	1	1	1	0	668	1	4	0	200	4	0	0	8
fixed	7	5	5	1594107	5	3	3	1	0	483	1	4	0	216	5	0	0	9
fixed	7	5	6	1595598	6	4	4	1	0	683	1	4	0	224	6	0	0	11
fixed	7	5	7	1597296	3	1	1	1	0	684	1	4	0	200	7	0	0	13
fixed	7	5	8	1598442	2	3	3	1	0	835	1	4	0	216	8	0	0	14
fixed	7	5	9	1599844	3	2	2	1	0	583	1	4	0	208	9	0	0	16
fixed	7	5	10	1601283	1	4	4	1	0	843	1	4	0	224	10	0	0	17
fixed	7	5	11	1602825	5	2	2	1	0	777	1	4	0	208	11	0	0	19
fixed	7	5	12	1603956	4	3	3	1	0	577	1	4	0	216	12	0	0	20
fixed	7	6	1	1605188	4	1	1	1	0	517	1	4	0	200	1	0	0	2
fixed	7	6	2	1606474	1	2	2	1	0	878	1	4	0	208	2	0	0	3
fixed	7	6	3	1607991	6	4	4	1	0	711	1	4	0	224	3	0	0	5
fixed	7	6	4	1609622	2	1	1	1	0	745	1	4	0	200	4	0	0	6
fixed	7	6	5	1610652	5	3	3	1	0	726	1	4	0	216	5	0	0	8
fixed	7	6	6	1612312	6	4	4	1	0	1119	1	4	0	224	6	0	0	9
fixed	7	6	7	1614247	3	1	1	1	0	637	1	4	0	200	7	0	0	10
fixed	7	6	8	1615655	2	3	3	1	0	602	1	4	0	216	8	0	0	12
fixed	7	6	9	1616738	3	2	2	1	0	572	1	4	0	208	9	0	0	13
fixed	7	6	10	1617708	1	4	4	1	0	675	1	4	0	224	10	0	0	14
fixed	7	6	11	1619372	5	2	2	1	0	652	1	4	0	208	11	0	0	15
fixed	7	6	12	1620656	4	3	3	1	0	798	1	4	0	216	12	0	0	17
fixed	7	7	1	1622664	4	1	1	1	0	505	1	4	0	200	1	0	0	1
fixed	7	7	2	1623938	1	2	2	1	0	947	1	4	0	208	2	0	0	3
fixed	7	7	3	1625601	6	4	4	1	0	597	1	4	0	224	3	0	0	4
fixed	7	7	4	1626835	2	1	1	1	0	672	1	4	0	200	4	0	0	5
fixed	7	7	5	1627879	5	3	3	1	0	660	1	4	0	216	5	0	0	6
fixed	7	7	6	1629348	6	4	4	1	0	662	1	4	0	224	6	0	0	8
fixed	7	7	7	1630522	3	1	1	1	0	740	1	4	0	200	7	0	0	9
fixed	7	7	8	1631978	2	3	3	1	0	935	1	4	0	216	8	0	0	10
fixed	7	7	9	1633529	3	2	2	1	0	541	1	4	0	208	9	0	0	11
fixed	7	7	10	1635100	1	4	4	1	0	698	1	4	0	224	10	0	0	12
fixed	7	7	11	1636232	5	2	2	1	0	1066	1	4	0	208	11	0	0	13
fixed	7	7	12	1638274	4	3	3	1	0	804	1	4	0	216	12	0	0	14
fixed	7	8	1	1640057	4	1	1	1	0	664	1	4	0	200	1	0	0	1
fixed	7	8	2	1641092	1	2	2	1	0	868	1	4	0	208	2	0	0	2
fixed	7	8	3	1642682	6	4	4	1	0	761	1	4	0	224	3	0	0	3
fixed	7	8	4	1644246	2	1	1	1	0	719	1	4	0	200	4	0	0	5
fixed	7	8	5	1645440	5	3	3	1	0	972	1	4	0	216	5	0	0	6
fixed	7	8	6	1647222	6	4	4	1	0	680	1	4	0	224	6	0	0	7
fixed	7	8	7	1648925	3	1	1	1	0	689	1	4	0	200	7	0	0	8
fixed	7	8	8	1650391	2	3	3	1	0	955	1	4	0	216	8	0	0	9
fixed	7	8	9	1651745	3	2	2	1	0	665	1	4	0	208	9	0	0	10
fixed	7	8	10	1652689	1	4	4	1	0	665	1	4	0	224	10	0	0	11
fixed	7	8	11	1653652	5	2	2	1	0	993	1	4	0	208	11	0	0	12
fixed	7	8	12	1655636	4	3	3	1	0	900	1	4	0	216	12	0	0	13
fixed	7	9	1	1657483	4	1	1	1	0	558	1	4	0	200	1	0	0	1
fixed	7	9	2	1658400	1	2	2	1	0	807	1	4	0	208	2	0	0	2
fixed	7	9	3	1659535	6	4	4	1	0	799	1	4	0	224	3	0	0	3
fixed	7	9	4	1661345	2	1	1	1	0	690	1	4	0	200	4	0	0	4
fixed	7	9	5	1662769	5	3	3	1	0	758	1	4	0	216	5	0	0	5
fixed	7	9	6	1664408	6	4	4	1	0	689	1	4	0	224	6	0	0	6
fixed	7	9	7	1665691	3	1	1	1	0	786	1	4	0	200	7	0	0	7
fixed	7	9	8	1666807	2	3	3	1	0	859	1	4	0	216	8	0	0	8
fixed	7	9	9	1668216	3	2	2	1	0	952	1	4	0	208	9	0	0	9
fixed	7	9	10	1669670	1	4	4	1	0	1522	1	4	0	224	10	0	0	9
fixed	7	9	11	1672171	5	2	2	1	0	744	1	4	0	208	11	0	0	10
fixed	7	9	12	1673709	4	3	3	1	0	735	1	4	0	216	12	0	0	11
fixed	7	10	1	1675544	4	1	1	1	0	617	1	4	0	200	1	0	0	1
fixed	7	10	2	1676748	1	2	2	1	0	846	1	4	0	208	2	0	0	2
fixed	7	10	3	1677935	6	4	4	1	0	748	1	4	0	224	3	0	0	3
fixed	7	10	4	1679688	2	1	1	1	0	601	1	4	0	200	4	0	0	4
fixed	7	10	5	1681122	5	3	3	1	0	861	1	4	0	216	5	0	0	4
fixed	7	10	6	1682486	6	4	4	1	0	715	1	4	0	224	6	0	0	5
fixed	7	10	7	1684097	3	1	1	2	0	1111	2	4	0	200	7	0	0	6
fixed	7	10	8	1685776	2	3	3	2	0	1376	2	4	0	216	8	0	0	7
fixed	7	10	9	1688026	3	2	2	1	0	1024	1	4	0	208	9	0	0	8
fixed	7	10	10	1689424	1	4	4	1	0	766	1	4	0	224	10	0	0	8
fixed	7	10	11	1690705	5	2	2	1	0	807	1	4	0	208	11	0	0	9
fixed	7	10	12	1692236	4	3	3	1	0	830	1	4	0	216	12	0	0	10
