type	block	sequ.	trial	time	Pos.	Color	Button	NumRsp	Resp_1	RT_1	R_Code	Resp_2	RT_2	Trigg.	n_hit	n_inc	n_miss	score_%

random	1	1	1	1640	6	1	1	1	0	1183	1	4	0	8	1	0	0	100
random	1	1	2	3220	4	4	4	1	0	1196	1	4	0	32	2	0	0	100
random	1	1	3	4744	2	2	2	1	0	1020	1	4	0	16	3	0	0	100
random	1	1	4	6565	3	3	3	1	0	630	1	4	0	24	4	0	0	100
random	1	1	5	7525	5	2	2	1	0	997	1	4	0	16	5	0	0	100
random	1	1	6	9321	1	4	4	1	0	746	1	4	0	32	6	0	0	100
random	1	1	7	10506	6	1	1	1	0	751	1	4	0	8	7	0	0	100
random	1	1	8	11574	2	3	3	1	0	1194	1	4	0	24	8	0	0	100
random	1	1	9	13553	4	2	2	1	0	814	1	4	0	16	9	0	0	100
random	1	1	10	14888	1	1	1	1	0	734	1	4	0	8	10	0	0	100
random	1	1	11	16439	5	4	4	1	0	716	1	4	0	32	11	0	0	100
random	1	1	12	18138	3	3	3	1	0	1292	1	4	0	24	12	0	0	100
random	1	1	13	20587	5	2	2	1	0	812	1	4	0	16	13	0	0	100
random	1	1	14	21940	1	4	4	1	0	707	1	4	0	32	14	0	0	100
random	1	1	15	23125	3	1	1	1	0	872	1	4	0	8	15	0	0	100
random	1	1	16	24707	4	3	3	2	0	2366	2	4	0	24	16	0	0	100
random	1	1	17	28099	6	4	4	1	0	734	1	4	0	32	17	0	0	100
random	1	1	18	29378	2	1	1	1	0	872	1	4	0	8	18	0	0	100
random	1	1	19	30563	5	3	3	1	0	1350	1	4	0	24	19	0	0	100
random	1	1	20	32476	2	2	2	1	0	837	1	4	0	16	20	0	0	100
random	1	1	21	34176	3	3	3	1	0	901	1	4	0	24	21	0	0	100
random	1	1	22	36097	6	1	1	1	0	675	1	4	0	8	22	0	0	100
random	1	1	23	37353	4	2	2	1	0	798	1	4	0	16	23	0	0	100
random	1	1	24	38485	1	4	4	1	0	678	1	4	0	32	24	0	0	100
random	1	1	25	40103	4	3	3	1	0	1137	1	4	0	24	25	0	0	100
random	1	1	26	41613	2	1	1	1	0	802	1	4	0	8	26	0	0	100
random	1	1	27	43052	5	2	2	1	0	941	1	4	0	16	27	0	0	100
random	1	1	28	44394	6	4	4	1	0	772	1	4	0	32	28	0	0	100
random	1	1	29	45636	1	3	3	1	0	823	1	4	0	24	29	0	0	100
random	1	1	30	46777	5	2	2	1	0	887	1	4	0	16	30	0	0	100
random	1	1	31	48357	2	1	1	1	0	660	1	4	0	8	31	0	0	100
random	1	1	32	49988	3	3	3	1	0	887	1	4	0	24	32	0	0	100
random	1	1	33	51805	6	4	4	1	0	754	1	4	0	32	33	0	0	100
random	1	1	34	53028	4	2	2	1	0	743	1	4	0	16	34	0	0	100
random	1	1	35	54211	3	4	4	1	0	740	1	4	0	32	35	0	0	100
random	1	1	36	55287	1	1	1	1	0	806	1	4	0	8	36	0	0	100
random	1	1	37	57345	3	4	4	1	0	1191	1	4	0	32	37	0	0	100
random	1	1	38	59447	5	3	3	2	0	1647	2	4	0	24	38	0	0	100
random	1	1	39	61927	6	1	1	1	0	773	1	4	0	8	39	0	0	100
random	1	1	40	63111	1	2	2	1	0	771	1	4	0	16	40	0	0	100
random	1	1	41	64727	2	3	3	1	0	855	1	4	0	24	41	0	0	100
random	1	1	42	66549	4	4	4	1	0	529	1	4	0	32	42	0	0	100
random	1	1	43	68018	1	2	2	1	0	956	1	4	0	16	43	0	0	100
random	1	1	44	69438	6	3	3	1	0	768	1	4	0	24	44	0	0	100
random	1	1	45	70561	3	1	1	1	0	767	1	4	0	8	45	0	0	100
random	1	1	46	72259	4	4	4	1	0	536	1	4	0	32	46	0	0	100
random	1	1	47	73095	2	2	2	1	0	957	1	4	0	16	47	0	0	100
random	1	1	48	74709	5	1	1	1	0	688	1	4	0	8	48	0	0	100
random	1	1	49	76258	2	3	3	1	0	1038	1	4	0	24	49	0	0	100
random	1	1	50	78213	3	1	1	1	0	835	1	4	0	8	50	0	0	100
random	1	1	51	79375	1	4	4	1	0	746	1	4	0	32	51	0	0	100
random	1	1	52	80904	5	3	3	2	0	1041	2	4	0	24	52	0	0	100
random	1	1	53	82526	3	2	2	1	0	749	1	4	0	16	53	0	0	100
random	1	1	54	84072	6	4	4	1	0	812	1	4	0	32	54	0	0	100
random	1	1	55	85590	4	2	2	1	0	915	1	4	0	16	55	0	0	100
random	1	1	56	86825	1	1	1	1	0	951	1	4	0	8	56	0	0	100
random	1	1	57	88226	5	4	4	1	0	731	1	4	0	32	57	0	0	100
random	1	1	58	89899	2	1	1	1	0	957	1	4	0	8	58	0	0	100
random	1	1	59	91795	6	2	2	1	0	1004	1	4	0	16	59	0	0	100
random	1	1	60	93261	4	3	3	1	0	702	1	4	0	24	60	0	0	100
random	1	1	61	95055	1	2	2	1	0	882	1	4	0	16	61	0	0	100
random	1	1	62	96532	6	4	4	1	0	876	1	4	0	32	62	0	0	100
random	1	1	63	98360	4	1	1	1	0	726	1	4	0	8	63	0	0	100
random	1	1	64	99928	2	2	2	1	0	892	1	4	0	16	64	0	0	100
random	1	1	65	101412	4	3	3	1	0	773	1	4	0	24	65	0	0	100
random	1	1	66	102623	3	1	1	1	0	849	1	4	0	8	66	0	0	100
random	1	1	67	104335	1	3	3	1	0	777	1	4	0	24	67	0	0	100
random	1	1	68	105620	5	4	4	1	0	787	1	4	0	32	68	0	0	100
random	1	1	69	107384	2	2	2	1	0	736	1	4	0	16	69	0	0	100
random	1	1	70	108501	3	1	1	1	0	793	1	4	0	8	70	0	0	100
random	1	1	71	110157	5	4	4	1	0	770	1	4	0	32	71	0	0	100
random	1	1	72	111432	6	3	3	1	0	1172	1	4	0	24	72	0	0	100
random	1	1	73	113299	2	1	1	1	0	813	1	4	0	8	73	0	0	100
random	1	1	74	115074	5	3	3	1	0	898	1	4	0	24	74	0	0	100
random	1	1	75	116345	1	4	4	1	0	980	1	4	0	32	75	0	0	100
random	1	1	76	118299	6	2	2	1	0	666	1	4	0	16	76	0	0	100
random	1	1	77	119328	2	1	1	1	0	758	1	4	0	8	77	0	0	100
random	1	1	78	120674	4	4	4	1	0	725	1	4	0	32	78	0	0	100
random	1	1	79	122018	3	2	2	1	0	885	1	4	0	16	79	0	0	100
random	1	1	80	123182	4	3	3	1	0	571	1	4	0	24	80	0	0	100
random	1	1	81	124149	1	4	4	1	0	634	1	4	0	32	81	0	0	100
random	1	1	82	125698	5	1	1	1	0	712	1	4	0	8	82	0	0	100
random	1	1	83	126705	3	2	2	1	0	918	1	4	0	16	83	0	0	100
random	1	1	84	128161	6	3	3	1	0	616	1	4	0	24	84	0	0	100
random	1	1	85	129740	3	2	2	1	0	1125	1	4	0	16	85	0	0	100
random	1	1	86	131346	1	3	3	1	0	721	1	4	0	24	86	0	0	100
random	1	1	87	132832	4	4	4	1	0	786	1	4	0	32	87	0	0	100
random	1	1	88	134303	2	1	1	1	0	628	1	4	0	8	88	0	0	100
random	1	1	89	135709	6	4	4	1	0	960	1	4	0	32	89	0	0	100
random	1	1	90	137577	3	3	3	1	0	1129	1	4	0	24	90	0	0	100
random	1	1	91	139377	5	4	4	1	0	789	1	4	0	32	91	0	0	100
random	1	1	92	140863	1	2	2	1	0	774	1	4	0	16	92	0	0	100
random	1	1	93	142275	5	1	1	1	0	634	1	4	0	8	93	0	0	100
random	1	1	94	143192	4	3	3	1	0	1203	1	4	0	24	94	0	0	100
random	1	1	95	145105	6	1	1	1	0	706	1	4	0	8	95	0	0	100
random	1	1	96	146530	2	2	2	1	0	774	1	4	0	16	96	0	0	100
random	1	1	97	147901	4	3	3	1	0	1084	1	4	0	24	97	0	0	100
random	1	1	98	149882	3	2	2	1	0	952	1	4	0	16	98	0	0	100
random	1	1	99	151871	6	3	3	1	0	788	1	4	0	24	99	0	0	100
random	1	1	100	153301	1	4	4	1	0	615	1	4	0	32	100	0	0	100
random	1	1	101	154928	4	1	1	1	0	826	1	4	0	8	101	0	0	100
random	1	1	102	156376	5	2	2	1	0	1029	1	4	0	16	102	0	0	100
random	1	1	103	158222	2	4	4	1	0	687	1	4	0	32	103	0	0	100
random	1	1	104	159647	3	1	1	1	0	738	1	4	0	8	104	0	0	100
random	1	1	105	160769	1	3	3	1	0	691	1	4	0	24	105	0	0	100
random	1	1	106	162265	2	2	2	1	0	772	1	4	0	16	106	0	0	100
random	1	1	107	163783	5	4	4	1	0	691	1	4	0	32	107	0	0	100
random	1	1	108	165336	6	1	1	1	0	674	1	4	0	8	108	0	0	100
random	1	1	109	166680	5	4	4	1	0	1096	1	4	0	32	109	0	0	100
random	1	1	110	168509	6	3	3	1	0	1155	1	4	0	24	110	0	0	100
random	1	1	111	170528	2	2	2	1	0	718	1	4	0	16	111	0	0	100
random	1	1	112	171839	3	1	1	1	0	582	1	4	0	8	112	0	0	100
random	1	1	113	172985	1	2	2	1	0	933	1	4	0	16	113	0	0	100
random	1	1	114	174624	2	3	3	1	0	712	1	4	0	24	114	0	0	100
random	1	1	115	176288	3	1	1	1	0	601	1	4	0	8	115	0	0	100
random	1	1	116	177696	4	4	4	1	0	678	1	4	0	32	116	0	0	100
random	1	1	117	179252	6	1	1	1	0	716	1	4	0	8	117	0	0	100
random	1	1	118	180889	5	3	3	1	0	1031	1	4	0	24	118	0	0	100
random	1	1	119	182306	1	4	4	1	0	971	1	4	0	32	119	0	0	100
random	1	1	120	183650	4	2	2	1	0	842	1	4	0	16	120	0	0	100
fixed	2	1	1	185374	4	1	1	1	0	952	1	4	0	40	1	0	0	100
fixed	2	1	2	186733	1	2	2	1	0	1167	1	4	0	48	2	0	0	100
fixed	2	1	3	188822	6	4	4	1	0	679	1	4	0	64	3	0	0	100
fixed	2	1	4	190145	2	1	1	1	0	743	1	4	0	40	4	0	0	100
fixed	2	1	5	191801	5	3	3	1	0	801	1	4	0	56	5	0	0	100
fixed	2	1	6	193035	6	4	4	1	0	868	1	4	0	64	6	0	0	100
fixed	2	1	7	194209	3	1	1	1	0	707	1	4	0	40	7	0	0	100
fixed	2	1	8	195897	2	3	3	1	0	1155	1	4	0	56	8	0	0	100
fixed	2	1	9	197950	3	2	2	1	0	652	1	4	0	48	9	0	0	100
fixed	2	1	10	199252	1	4	4	1	0	733	1	4	0	64	10	0	0	100
fixed	2	1	11	200304	5	2	2	1	0	1384	1	4	0	48	11	0	0	100
fixed	2	1	12	202470	4	3	3	1	0	644	1	4	0	56	12	0	0	100
fixed	2	2	1	204406	4	1	1	1	0	730	1	4	0	40	13	0	0	100
fixed	2	2	2	205693	1	2	2	1	0	828	1	4	0	48	14	0	0	100
fixed	2	2	3	207325	6	4	4	1	0	647	1	4	0	64	15	0	0	100
fixed	2	2	4	208767	2	1	1	1	0	650	1	4	0	40	16	0	0	100
fixed	2	2	5	210394	5	3	3	1	0	821	1	4	0	56	17	0	0	100
fixed	2	2	6	212116	6	4	4	1	0	740	1	4	0	64	18	0	0	100
fixed	2	2	7	213576	3	1	1	1	0	710	1	4	0	40	19	0	0	100
fixed	2	2	8	215050	2	3	3	1	0	816	1	4	0	56	20	0	0	100
fixed	2	2	9	216268	3	2	2	1	0	652	1	4	0	48	21	0	0	100
fixed	2	2	10	217522	1	4	4	1	0	999	1	4	0	64	22	0	0	100
fixed	2	2	11	219160	5	2	2	1	0	761	1	4	0	48	23	0	0	100
fixed	2	2	12	220666	4	3	3	1	0	810	1	4	0	56	24	0	0	100
fixed	2	3	1	222066	4	1	1	1	0	774	1	4	0	40	25	0	0	100
fixed	2	3	2	223317	1	2	2	1	0	841	1	4	0	48	26	0	0	100
fixed	2	3	3	224659	6	4	4	1	0	649	1	4	0	64	27	0	0	100
fixed	2	3	4	225719	2	1	1	1	0	732	1	4	0	40	28	0	0	100
fixed	2	3	5	227244	5	3	3	1	0	539	1	4	0	56	29	0	0	100
fixed	2	3	6	228159	6	4	4	1	0	933	1	4	0	64	30	0	0	100
fixed	2	3	7	229596	3	1	1	1	0	720	1	4	0	40	31	0	0	100
fixed	2	3	8	230618	2	3	3	1	0	1020	1	4	0	56	32	0	0	100
fixed	2	3	9	232670	3	2	2	1	0	654	1	4	0	48	33	0	0	100
fixed	2	3	10	234082	1	4	4	1	0	762	1	4	0	64	34	0	0	100
fixed	2	3	11	235878	5	2	2	1	0	742	1	4	0	48	35	0	0	100
fixed	2	3	12	237602	4	3	3	1	0	708	1	4	0	56	36	0	0	100
fixed	2	4	1	238924	4	1	1	1	0	692	1	4	0	40	37	0	0	100
fixed	2	4	2	240386	1	2	2	1	0	959	1	4	0	48	38	0	0	100
fixed	2	4	3	241844	6	4	4	1	0	705	1	4	0	64	39	0	0	100
fixed	2	4	4	242847	2	1	1	1	0	767	1	4	0	40	40	0	0	100
fixed	2	4	5	244120	5	3	3	1	0	544	1	4	0	56	41	0	0	100
fixed	2	4	6	245304	6	4	4	1	0	694	1	4	0	64	42	0	0	100
fixed	2	4	7	247001	3	1	1	1	0	975	1	4	0	40	43	0	0	100
fixed	2	4	8	248442	2	3	3	1	0	866	1	4	0	56	44	0	0	100
fixed	2	4	9	249929	3	2	2	1	0	659	1	4	0	48	45	0	0	100
fixed	2	4	10	251558	1	4	4	1	0	637	1	4	0	64	46	0	0	100
fixed	2	4	11	253218	5	2	2	1	0	751	1	4	0	48	47	0	0	100
fixed	2	4	12	255011	4	3	3	1	0	499	1	4	0	56	48	0	0	100
fixed	2	5	1	256250	4	1	1	1	0	630	1	4	0	40	49	0	0	100
fixed	2	5	2	257830	1	2	2	1	0	884	1	4	0	48	50	0	0	100
fixed	2	5	3	259257	6	4	4	1	0	631	1	4	0	64	51	0	0	100
fixed	2	5	4	260608	2	1	1	1	0	686	1	4	0	40	52	0	0	100
fixed	2	5	5	261774	5	3	3	1	0	525	1	4	0	56	53	0	0	100
fixed	2	5	6	262669	6	4	4	1	0	767	1	4	0	64	54	0	0	100
fixed	2	5	7	264199	3	1	1	1	0	702	1	4	0	40	55	0	0	100
fixed	2	5	8	265446	2	3	3	1	0	881	1	4	0	56	56	0	0	100
fixed	2	5	9	266986	3	2	2	1	0	584	1	4	0	48	57	0	0	100
fixed	2	5	10	268330	1	4	4	1	0	655	1	4	0	64	58	0	0	100
fixed	2	5	11	270000	5	2	2	1	0	808	1	4	0	48	59	0	0	100
fixed	2	5	12	271368	4	3	3	1	0	862	1	4	0	56	60	0	0	100
fixed	2	6	1	273242	4	1	1	1	0	607	1	4	0	40	61	0	0	100
fixed	2	6	2	274596	1	2	2	1	0	821	1	4	0	48	62	0	0	100
fixed	2	6	3	276002	6	4	4	1	0	770	1	4	0	64	63	0	0	100
fixed	2	6	4	277757	2	1	1	1	0	920	1	4	0	40	64	0	0	100
fixed	2	6	5	279477	5	3	3	1	0	1015	1	4	0	56	65	0	0	100
fixed	2	6	6	281256	6	4	4	1	0	700	1	4	0	64	66	0	0	100
fixed	2	6	7	282400	3	1	1	1	0	795	1	4	0	40	67	0	0	100
fixed	2	6	8	284154	2	3	3	1	0	865	1	4	0	56	68	0	0	100
fixed	2	6	9	285942	3	2	2	1	0	613	1	4	0	48	69	0	0	100
fixed	2	6	10	287496	1	4	4	1	0	675	1	4	0	64	70	0	0	100
fixed	2	6	11	288886	5	2	2	1	0	800	1	4	0	48	71	0	0	100
fixed	2	6	12	290605	4	3	3	1	0	888	1	4	0	56	72	0	0	100
fixed	2	7	1	292489	4	1	1	1	0	712	1	4	0	40	73	0	0	100
fixed	2	7	2	294242	1	2	2	1	0	861	1	4	0	48	74	0	0	100
fixed	2	7	3	295798	6	4	4	1	0	723	1	4	0	64	75	0	0	100
fixed	2	7	4	297324	2	1	1	1	0	811	1	4	0	40	76	0	0	100
fixed	2	7	5	298908	5	3	3	1	0	896	1	4	0	56	77	0	0	100
fixed	2	7	6	300662	6	4	4	1	0	757	1	4	0	64	78	0	0	100
fixed	2	7	7	302058	3	1	1	1	0	707	1	4	0	40	79	0	0	100
fixed	2	7	8	303275	2	3	3	1	0	895	1	4	0	56	80	0	0	100
fixed	2	7	9	304689	3	2	2	1	0	659	1	4	0	48	81	0	0	100
fixed	2	7	10	306140	1	4	4	1	0	677	1	4	0	64	82	0	0	100
fixed	2	7	11	307243	5	2	2	1	0	799	1	4	0	48	83	0	0	100
fixed	2	7	12	308591	4	3	3	1	0	1022	1	4	0	56	84	0	0	100
fixed	2	8	1	310751	4	1	1	1	0	682	1	4	0	40	85	0	0	100
fixed	2	8	2	312215	1	2	2	1	0	828	1	4	0	48	86	0	0	100
fixed	2	8	3	314024	6	4	4	1	0	607	1	4	0	64	87	0	0	100
fixed	2	8	4	315397	2	1	1	1	0	581	1	4	0	40	88	0	0	100
fixed	2	8	5	316443	5	3	3	1	0	513	1	4	0	56	89	0	0	100
fixed	2	8	6	317798	6	4	4	1	0	800	1	4	0	64	90	0	0	100
fixed	2	8	7	319383	3	1	1	1	0	565	1	4	0	40	91	0	0	100
fixed	2	8	8	320328	2	3	3	1	0	965	1	4	0	56	92	0	0	100
fixed	2	8	9	322121	3	2	2	1	0	505	1	4	0	48	93	0	0	100
fixed	2	8	10	323038	1	4	4	1	0	634	1	4	0	64	94	0	0	100
fixed	2	8	11	324103	5	2	0	0	2	0	3	4	0	48	94	0	1	99
fixed	2	8	12	327085	4	3	3	1	0	983	1	4	0	56	95	0	1	99
fixed	2	9	1	329029	4	1	1	1	0	788	1	4	0	40	96	0	1	99
fixed	2	9	2	330464	1	2	2	1	0	1207	1	4	0	48	97	0	1	99
fixed	2	9	3	332149	6	4	4	1	0	800	1	4	0	64	98	0	1	99
fixed	2	9	4	333859	2	1	1	1	0	807	1	4	0	40	99	0	1	99
fixed	2	9	5	335433	5	3	3	1	0	853	1	4	0	56	100	0	1	99
fixed	2	9	6	336670	6	4	4	1	0	736	1	4	0	64	101	0	1	99
fixed	2	9	7	338302	3	1	1	1	0	691	1	4	0	40	102	0	1	99
fixed	2	9	8	339628	2	3	3	1	0	803	1	4	0	56	103	0	1	99
fixed	2	9	9	341291	3	2	2	1	0	692	1	4	0	48	104	0	1	99
fixed	2	9	10	342831	1	4	4	1	0	587	1	4	0	64	105	0	1	99
fixed	2	9	11	344407	5	2	2	1	0	849	1	4	0	48	106	0	1	99
fixed	2	9	12	345766	4	3	3	1	0	744	1	4	0	56	107	0	1	99
fixed	2	10	1	347307	4	1	1	1	0	918	1	4	0	40	108	0	1	99
fixed	2	10	2	348512	1	2	2	1	0	979	1	4	0	48	109	0	1	99
fixed	2	10	3	350037	6	4	4	1	0	674	1	4	0	64	110	0	1	99
fixed	2	10	4	351037	2	1	1	1	0	856	1	4	0	40	111	0	1	99
fixed	2	10	5	352604	5	3	3	1	0	461	1	4	0	56	112	0	1	99
fixed	2	10	6	353991	6	4	4	1	0	635	1	4	0	64	113	0	1	99
fixed	2	10	7	355457	3	1	1	1	0	669	1	4	0	40	114	0	1	99
fixed	2	10	8	356521	2	3	3	1	0	784	1	4	0	56	115	0	1	99
fixed	2	10	9	357624	3	2	2	1	0	569	1	4	0	48	116	0	1	99
fixed	2	10	10	359007	1	4	4	1	0	646	1	4	0	64	117	0	1	99
fixed	2	10	11	360374	5	2	2	1	0	772	1	4	0	48	118	0	1	99
fixed	2	10	12	362085	4	3	3	1	0	964	1	4	0	56	119	0	1	99
fixed	3	1	1	364113	4	1	1	1	0	710	1	4	0	72	1	0	0	100
fixed	3	1	2	365336	1	2	2	1	0	786	1	4	0	80	2	0	0	100
fixed	3	1	3	366471	6	4	4	1	0	746	1	4	0	96	3	0	0	100
fixed	3	1	4	367693	2	1	1	1	0	782	1	4	0	72	4	0	0	100
fixed	3	1	5	369170	5	3	3	1	0	464	1	4	0	88	5	0	0	100
fixed	3	1	6	370611	6	4	4	1	0	650	1	4	0	96	6	0	0	100
fixed	3	1	7	371674	3	1	1	1	0	1022	1	4	0	72	7	0	0	100
fixed	3	1	8	373723	2	3	3	1	0	799	1	4	0	88	8	0	0	100
fixed	3	1	9	375435	3	2	2	1	0	511	1	4	0	80	9	0	0	100
fixed	3	1	10	376393	1	4	4	1	0	454	1	4	0	96	10	0	0	100
fixed	3	1	11	377729	5	2	2	1	0	685	1	4	0	80	11	0	0	100
fixed	3	1	12	378933	4	3	3	1	0	522	1	4	0	88	12	0	0	100
fixed	3	2	1	380037	4	1	1	1	0	563	1	4	0	72	13	0	0	100
fixed	3	2	2	381224	1	2	2	1	0	985	1	4	0	80	14	0	0	100
fixed	3	2	3	383093	6	4	4	1	0	738	1	4	0	96	15	0	0	100
fixed	3	2	4	384364	2	1	1	1	0	764	1	4	0	72	16	0	0	100
fixed	3	2	5	385713	5	3	3	1	0	771	1	4	0	88	17	0	0	100
fixed	3	2	6	387057	6	4	4	1	0	778	1	4	0	96	18	0	0	100
fixed	3	2	7	388700	3	1	1	1	0	717	1	4	0	72	19	0	0	100
fixed	3	2	8	390082	2	3	3	1	0	890	1	4	0	88	20	0	0	100
fixed	3	2	9	391397	3	2	2	1	0	698	1	4	0	80	21	0	0	100
fixed	3	2	10	393068	1	4	4	1	0	523	1	4	0	96	22	0	0	100
fixed	3	2	11	394077	5	2	2	1	0	817	1	4	0	80	23	0	0	100
fixed	3	2	12	395775	4	3	3	1	0	913	1	4	0	88	24	0	0	100
fixed	3	3	1	397530	4	1	1	1	0	766	1	4	0	72	25	0	0	100
fixed	3	3	2	399114	1	2	2	1	0	860	1	4	0	80	26	0	0	100
fixed	3	3	3	400845	6	4	4	1	0	714	1	4	0	96	27	0	0	100
fixed	3	3	4	402326	2	1	1	1	0	635	1	4	0	72	28	0	0	100
fixed	3	3	5	403743	5	3	3	1	0	735	1	4	0	88	29	0	0	100
fixed	3	3	6	404842	6	4	4	1	0	705	1	4	0	96	30	0	0	100
fixed	3	3	7	406301	3	1	1	1	0	635	1	4	0	72	31	0	0	100
fixed	3	3	8	407549	2	3	3	1	0	711	1	4	0	88	32	0	0	100
fixed	3	3	9	408724	3	2	2	1	0	644	1	4	0	80	33	0	0	100
fixed	3	3	10	409957	1	4	4	1	0	665	1	4	0	96	34	0	0	100
fixed	3	3	11	411427	5	2	2	1	0	746	1	4	0	80	35	0	0	100
fixed	3	3	12	412866	4	3	3	1	0	725	1	4	0	88	36	0	0	100
fixed	3	4	1	414389	4	1	1	1	0	636	1	4	0	72	37	0	0	100
fixed	3	4	2	415559	1	2	2	1	0	859	1	4	0	80	38	0	0	100
fixed	3	4	3	417406	6	4	4	1	0	637	1	4	0	96	39	0	0	100
fixed	3	4	4	418838	2	1	1	1	0	672	1	4	0	72	40	0	0	100
fixed	3	4	5	420264	5	3	3	1	0	1268	1	4	0	88	41	0	0	100
fixed	3	4	6	422046	6	4	4	1	0	656	1	4	0	96	42	0	0	100
fixed	3	4	7	423522	3	1	1	1	0	626	1	4	0	72	43	0	0	100
fixed	3	4	8	425105	2	3	3	1	0	879	1	4	0	88	44	0	0	100
fixed	3	4	9	426481	3	2	2	1	0	581	1	4	0	80	45	0	0	100
fixed	3	4	10	427516	1	4	4	1	0	633	1	4	0	96	46	0	0	100
fixed	3	4	11	429073	5	2	2	1	0	694	1	4	0	80	47	0	0	100
fixed	3	4	12	430690	4	3	3	1	0	666	1	4	0	88	48	0	0	100
fixed	3	5	1	431981	4	1	1	1	0	803	1	4	0	72	49	0	0	100
fixed	3	5	2	433242	1	2	2	1	0	838	1	4	0	80	50	0	0	100
fixed	3	5	3	435099	6	4	4	1	0	592	1	4	0	96	51	0	0	100
fixed	3	5	4	436062	2	1	1	1	0	775	1	4	0	72	52	0	0	100
fixed	3	5	5	437817	5	3	3	1	0	844	1	4	0	88	53	0	0	100
fixed	3	5	6	439618	6	4	4	1	0	664	1	4	0	96	54	0	0	100
fixed	3	5	7	440572	3	1	1	1	0	1047	1	4	0	72	55	0	0	100
fixed	3	5	8	442326	2	3	3	1	0	757	1	4	0	88	56	0	0	100
fixed	3	5	9	443573	3	2	2	1	0	585	1	4	0	80	57	0	0	100
fixed	3	5	10	444786	1	4	4	1	0	581	1	4	0	96	58	0	0	100
fixed	3	5	11	446108	5	2	2	1	0	837	1	4	0	80	59	0	0	100
fixed	3	5	12	447506	4	3	3	2	0	1546	2	4	0	88	60	0	0	100
fixed	3	6	1	449708	4	1	1	1	0	724	1	4	0	72	61	0	0	100
fixed	3	6	2	451084	1	2	2	1	0	938	1	4	0	80	62	0	0	100
fixed	3	6	3	452723	6	4	4	1	0	1229	1	4	0	96	63	0	0	100
fixed	3	6	4	454755	2	1	1	1	0	791	1	4	0	72	64	0	0	100
fixed	3	6	5	456046	5	3	3	1	0	808	1	4	0	88	65	0	0	100
fixed	3	6	6	457713	6	4	4	1	0	713	1	4	0	96	66	0	0	100
fixed	3	6	7	458756	3	1	1	1	0	838	1	4	0	72	67	0	0	100
fixed	3	6	8	460402	2	3	3	1	0	879	1	4	0	88	68	0	0	100
fixed	3	6	9	462051	3	2	2	1	0	698	1	4	0	80	69	0	0	100
fixed	3	6	10	463770	1	4	4	1	0	761	1	4	0	96	70	0	0	100
fixed	3	6	11	465433	5	2	2	1	0	658	1	4	0	80	71	0	0	100
fixed	3	6	12	466543	4	3	3	1	0	524	1	4	0	88	72	0	0	100
fixed	3	7	1	467786	4	1	1	1	0	591	1	4	0	72	73	0	0	100
fixed	3	7	2	469151	1	2	2	1	0	861	1	4	0	80	74	0	0	100
fixed	3	7	3	471028	6	4	4	1	0	637	1	4	0	96	75	0	0	100
fixed	3	7	4	472592	2	1	1	2	0	980	2	4	0	72	76	0	0	100
fixed	3	7	5	474415	5	3	3	1	0	1318	1	4	0	88	77	0	0	100
fixed	3	7	6	476709	6	4	4	1	0	725	1	4	0	96	78	0	0	100
fixed	3	7	7	477841	3	1	1	1	0	1029	1	4	0	72	79	0	0	100
fixed	3	7	8	479651	2	3	3	1	0	1376	1	4	0	88	80	0	0	100
fixed	3	7	9	481673	3	2	2	1	0	523	1	4	0	80	81	0	0	100
fixed	3	7	10	482537	1	4	4	1	0	702	1	4	0	96	82	0	0	100
fixed	3	7	11	484099	5	2	2	2	0	1356	2	4	0	80	83	0	0	100
fixed	3	7	12	485976	4	3	3	1	0	1261	1	4	0	88	84	0	0	100
fixed	3	8	1	488470	4	1	1	1	0	819	1	4	0	72	85	0	0	100
fixed	3	8	2	490015	1	2	2	1	0	857	1	4	0	80	86	0	0	100
fixed	3	8	3	491573	6	4	4	1	0	664	1	4	0	96	87	0	0	100
fixed	3	8	4	493208	2	1	1	1	0	738	1	4	0	72	88	0	0	100
fixed	3	8	5	494383	5	3	3	1	0	1016	1	4	0	88	89	0	0	100
fixed	3	8	6	496164	6	4	4	1	0	717	1	4	0	96	90	0	0	100
fixed	3	8	7	497325	3	1	1	1	0	1052	1	4	0	72	91	0	0	100
fixed	3	8	8	499280	2	3	3	1	0	817	1	4	0	88	92	0	0	100
fixed	3	8	9	500762	3	2	2	1	0	690	1	4	0	80	93	0	0	100
fixed	3	8	10	502053	1	4	4	1	0	763	1	4	0	96	94	0	0	100
fixed	3	8	11	503247	5	2	2	1	0	833	1	4	0	80	95	0	0	100
fixed	3	8	12	504536	4	3	3	1	0	571	1	4	0	88	96	0	0	100
fixed	3	9	1	506197	4	1	1	1	0	596	1	4	0	72	97	0	0	100
fixed	3	9	2	507684	1	2	2	1	0	885	1	4	0	80	98	0	0	100
fixed	3	9	3	509155	6	4	4	1	0	646	1	4	0	96	99	0	0	100
fixed	3	9	4	510405	2	1	1	1	0	713	1	4	0	72	100	0	0	100
fixed	3	9	5	511838	5	3	3	1	0	981	1	4	0	88	101	0	0	100
fixed	3	9	6	513504	6	4	4	1	0	687	1	4	0	96	102	0	0	100
fixed	3	9	7	514513	3	1	1	1	0	852	1	4	0	72	103	0	0	100
fixed	3	9	8	516047	2	3	3	1	0	787	1	4	0	88	104	0	0	100
fixed	3	9	9	517472	3	2	2	1	0	510	1	4	0	80	105	0	0	100
fixed	3	9	10	518310	1	4	4	1	0	707	1	4	0	96	106	0	0	100
fixed	3	9	11	519534	5	2	2	1	0	983	1	4	0	80	107	0	0	100
fixed	3	9	12	521136	4	3	3	1	0	667	1	4	0	88	108	0	0	100
fixed	3	10	1	522470	4	1	1	1	0	762	1	4	0	72	109	0	0	100
fixed	3	10	2	524158	1	2	2	1	0	971	1	4	0	80	110	0	0	100
fixed	3	10	3	525690	6	4	4	1	0	747	1	4	0	96	111	0	0	100
fixed	3	10	4	527459	2	1	1	1	0	616	1	4	0	72	112	0	0	100
fixed	3	10	5	528809	5	3	3	1	0	958	1	4	0	88	113	0	0	100
fixed	3	10	6	530213	6	4	4	1	0	707	1	4	0	96	114	0	0	100
fixed	3	10	7	531633	3	1	1	1	0	999	1	4	0	72	115	0	0	100
fixed	3	10	8	533053	2	3	3	1	0	971	1	4	0	88	116	0	0	100
fixed	3	10	9	534832	3	2	2	1	0	496	1	4	0	80	117	0	0	100
fixed	3	10	10	535622	1	4	4	1	0	854	1	4	0	96	118	0	0	100
fixed	3	10	11	536864	5	2	2	1	0	865	1	4	0	80	119	0	0	100
fixed	3	10	12	538094	4	3	3	1	0	773	1	4	0	88	120	0	0	100
fixed	4	1	1	654726	4	1	1	1	0	1049	1	4	0	104	1	0	0	100
fixed	4	1	2	656098	1	2	2	1	0	1063	1	4	0	112	2	0	0	100
fixed	4	1	3	657654	6	4	4	1	0	605	1	4	0	128	3	0	0	100
fixed	4	1	4	659070	2	1	1	1	0	777	1	4	0	104	4	0	0	100
fixed	4	1	5	660198	5	3	3	1	0	785	1	4	0	120	5	0	0	100
fixed	4	1	6	661850	6	4	4	1	0	731	1	4	0	128	6	0	0	100
fixed	4	1	7	663401	3	1	1	1	0	673	1	4	0	104	7	0	0	100
fixed	4	1	8	664549	2	3	3	2	0	1528	2	4	0	120	8	0	0	100
fixed	4	1	9	667075	3	2	2	1	0	806	1	4	0	112	9	0	0	100
fixed	4	1	10	668878	1	4	4	1	0	593	1	4	0	128	10	0	0	100
fixed	4	1	11	670395	5	2	2	1	0	1042	1	4	0	112	11	0	0	100
fixed	4	1	12	672127	4	3	3	1	0	744	1	4	0	120	12	0	0	100
fixed	4	2	1	674076	4	1	1	1	0	733	1	4	0	104	13	0	0	100
fixed	4	2	2	675724	1	2	2	1	0	952	1	4	0	112	14	0	0	100
fixed	4	2	3	677572	6	4	4	1	0	825	1	4	0	128	15	0	0	100
fixed	4	2	4	678991	2	1	1	1	0	741	1	4	0	104	16	0	0	100
fixed	4	2	5	680258	5	3	3	1	0	607	1	4	0	120	17	0	0	100
fixed	4	2	6	681627	6	4	4	1	0	789	1	4	0	128	18	0	0	100
fixed	4	2	7	682796	3	1	1	1	0	940	1	4	0	104	19	0	0	100
fixed	4	2	8	684527	2	3	3	1	0	899	1	4	0	120	20	0	0	100
fixed	4	2	9	686108	3	2	2	1	0	616	1	4	0	112	21	0	0	100
fixed	4	2	10	687067	1	4	4	1	0	727	1	4	0	128	22	0	0	100
fixed	4	2	11	688166	5	2	2	1	0	1001	1	4	0	112	23	0	0	100
fixed	4	2	12	689468	4	3	3	1	0	633	1	4	0	120	24	0	0	100
fixed	4	3	1	691335	4	1	1	1	0	674	1	4	0	104	25	0	0	100
fixed	4	3	2	692591	1	2	2	1	0	781	1	4	0	112	26	0	0	100
fixed	4	3	3	693826	6	4	4	1	0	625	1	4	0	128	27	0	0	100
fixed	4	3	4	695058	2	1	1	1	0	788	1	4	0	104	28	0	0	100
fixed	4	3	5	696702	5	3	3	1	0	759	1	4	0	120	29	0	0	100
fixed	4	3	6	698328	6	4	4	1	0	714	1	4	0	128	30	0	0	100
fixed	4	3	7	699356	3	1	1	1	0	846	1	4	0	104	31	0	0	100
fixed	4	3	8	701119	2	3	3	1	0	868	1	4	0	120	32	0	0	100
fixed	4	3	9	702971	3	2	2	1	0	726	1	4	0	112	33	0	0	100
fixed	4	3	10	704098	1	4	4	1	0	1317	1	4	0	128	34	0	0	100
fixed	4	3	11	706185	5	2	2	1	0	949	1	4	0	112	35	0	0	100
fixed	4	3	12	707724	4	3	3	1	0	676	1	4	0	120	36	0	0	100
fixed	4	4	1	709512	4	1	1	1	0	568	1	4	0	104	37	0	0	100
fixed	4	4	2	710581	1	2	2	1	0	851	1	4	0	112	38	0	0	100
fixed	4	4	3	711905	6	4	4	1	0	635	1	4	0	128	39	0	0	100
fixed	4	4	4	713255	2	1	1	1	0	626	1	4	0	104	40	0	0	100
fixed	4	4	5	714444	5	3	3	1	0	535	1	4	0	120	41	0	0	100
fixed	4	4	6	715791	6	4	4	1	0	775	1	4	0	128	42	0	0	100
fixed	4	4	7	717190	3	1	1	1	0	827	1	4	0	104	43	0	0	100
fixed	4	4	8	718538	2	3	3	1	0	802	1	4	0	120	44	0	0	100
fixed	4	4	9	719648	3	2	2	1	0	667	1	4	0	112	45	0	0	100
fixed	4	4	10	720769	1	4	4	1	0	604	1	4	0	128	46	0	0	100
fixed	4	4	11	722235	5	2	2	1	0	734	1	4	0	112	47	0	0	100
fixed	4	4	12	723322	4	3	3	1	0	680	1	4	0	120	48	0	0	100
fixed	4	5	1	725251	4	1	1	1	0	694	1	4	0	104	49	0	0	100
fixed	4	5	2	726602	1	2	2	1	0	924	1	4	0	112	50	0	0	100
fixed	4	5	3	727881	6	4	4	1	0	694	1	4	0	128	51	0	0	100
fixed	4	5	4	729249	2	1	1	1	0	676	1	4	0	104	52	0	0	100
fixed	4	5	5	730908	5	3	3	1	0	734	1	4	0	120	53	0	0	100
fixed	4	5	6	732441	6	4	4	1	0	581	1	4	0	128	54	0	0	100
fixed	4	5	7	733480	3	1	1	1	0	721	1	4	0	104	55	0	0	100
fixed	4	5	8	735038	2	3	3	1	0	800	1	4	0	120	56	0	0	100
fixed	4	5	9	736856	3	2	2	1	0	642	1	4	0	112	57	0	0	100
fixed	4	5	10	738068	1	4	4	1	0	639	1	4	0	128	58	0	0	100
fixed	4	5	11	739748	5	2	2	1	0	768	1	4	0	112	59	0	0	100
fixed	4	5	12	740875	4	3	3	1	0	872	1	4	0	120	60	0	0	100
fixed	4	6	1	742928	4	1	1	1	0	649	1	4	0	104	61	0	0	100
fixed	4	6	2	744334	1	2	2	1	0	845	1	4	0	112	62	0	0	100
fixed	4	6	3	745712	6	4	4	1	0	739	1	4	0	128	63	0	0	100
fixed	4	6	4	746752	2	1	1	1	0	743	1	4	0	104	64	0	0	100
fixed	4	6	5	748490	5	3	3	1	0	821	1	4	0	120	65	0	0	100
fixed	4	6	6	750113	6	4	4	1	0	793	1	4	0	128	66	0	0	100
fixed	4	6	7	751359	3	1	1	1	0	924	1	4	0	104	67	0	0	100
fixed	4	6	8	753219	2	3	3	1	0	877	1	4	0	120	68	0	0	100
fixed	4	6	9	754502	3	2	2	1	0	519	1	4	0	112	69	0	0	100
fixed	4	6	10	755832	1	4	4	1	0	502	1	4	0	128	70	0	0	100
fixed	4	6	11	757311	5	2	2	1	0	695	1	4	0	112	71	0	0	100
fixed	4	6	12	758707	4	3	3	1	0	709	1	4	0	120	72	0	0	100
fixed	4	7	1	760053	4	1	1	1	0	699	1	4	0	104	73	0	0	100
fixed	4	7	2	761044	1	2	2	1	0	834	1	4	0	112	74	0	0	100
fixed	4	7	3	762856	6	4	4	1	0	549	1	4	0	128	75	0	0	100
fixed	4	7	4	764142	2	1	1	1	0	647	1	4	0	104	76	0	0	100
fixed	4	7	5	765093	5	3	3	1	0	558	1	4	0	120	77	0	0	100
fixed	4	7	6	766563	6	4	4	1	0	624	1	4	0	128	78	0	0	100
fixed	4	7	7	767940	3	1	1	1	0	605	1	4	0	104	79	0	0	100
fixed	4	7	8	769070	2	3	3	1	0	774	1	4	0	120	80	0	0	100
fixed	4	7	9	770355	3	2	2	1	0	488	1	4	0	112	81	0	0	100
fixed	4	7	10	771179	1	4	4	1	0	564	1	4	0	128	82	0	0	100
fixed	4	7	11	772706	5	2	2	1	0	748	1	4	0	112	83	0	0	100
fixed	4	7	12	774273	4	3	3	1	0	569	1	4	0	120	84	0	0	100
fixed	4	8	1	775491	4	1	1	1	0	774	1	4	0	104	85	0	0	100
fixed	4	8	2	776765	1	2	2	1	0	1432	1	4	0	112	86	0	0	100
fixed	4	8	3	778485	6	4	4	1	0	719	1	4	0	128	87	0	0	100
fixed	4	8	4	779845	2	1	1	1	0	638	1	4	0	104	88	0	0	100
fixed	4	8	5	781396	5	3	3	1	0	876	1	4	0	120	89	0	0	100
fixed	4	8	6	782644	6	4	4	1	0	695	1	4	0	128	90	0	0	100
fixed	4	8	7	783954	3	1	1	1	0	631	1	4	0	104	91	0	0	100
fixed	4	8	8	785160	2	3	3	1	0	781	1	4	0	120	92	0	0	100
fixed	4	8	9	786537	3	2	2	1	0	618	1	4	0	112	93	0	0	100
fixed	4	8	10	787653	1	4	4	1	0	554	1	4	0	128	94	0	0	100
fixed	4	8	11	788744	5	2	2	1	0	668	1	4	0	112	95	0	0	100
fixed	4	8	12	790409	4	3	3	2	0	1366	2	4	0	120	96	0	0	100
fixed	4	9	1	792550	4	1	1	1	0	803	1	4	0	104	97	0	0	100
fixed	4	9	2	793677	1	2	2	1	0	1084	1	4	0	112	98	0	0	100
fixed	4	9	3	795124	6	4	4	1	0	742	1	4	0	128	99	0	0	100
fixed	4	9	4	796739	2	1	1	1	0	682	1	4	0	104	100	0	0	100
fixed	4	9	5	798420	5	3	3	1	0	867	1	4	0	120	101	0	0	100
fixed	4	9	6	799695	6	4	4	1	0	741	1	4	0	128	102	0	0	100
fixed	4	9	7	801015	3	1	1	1	0	845	1	4	0	104	103	0	0	100
fixed	4	9	8	802594	2	3	3	1	0	722	1	4	0	120	104	0	0	100
fixed	4	9	9	804280	3	2	2	1	0	658	1	4	0	112	105	0	0	100
fixed	4	9	10	805320	1	4	4	1	0	710	1	4	0	128	106	0	0	100
fixed	4	9	11	806691	5	2	2	1	0	844	1	4	0	112	107	0	0	100
fixed	4	9	12	808299	4	3	3	1	0	704	1	4	0	120	108	0	0	100
fixed	4	10	1	809775	4	1	1	1	0	618	1	4	0	104	109	0	0	100
fixed	4	10	2	811237	1	2	2	1	0	876	1	4	0	112	110	0	0	100
fixed	4	10	3	813100	6	4	4	1	0	597	1	4	0	128	111	0	0	100
fixed	4	10	4	814191	2	1	1	1	0	647	1	4	0	104	112	0	0	100
fixed	4	10	5	815436	5	3	3	1	0	554	1	4	0	120	113	0	0	100
fixed	4	10	6	816765	6	4	4	1	0	866	1	4	0	128	114	0	0	100
fixed	4	10	7	818249	3	1	1	1	0	827	1	4	0	104	115	0	0	100
fixed	4	10	8	819792	2	3	3	1	0	818	1	4	0	120	116	0	0	100
fixed	4	10	9	821527	3	2	2	1	0	656	1	4	0	112	117	0	0	100
fixed	4	10	10	822786	1	4	4	1	0	619	1	4	0	128	118	0	0	100
fixed	4	10	11	824187	5	2	2	1	0	791	1	4	0	112	119	0	0	100
fixed	4	10	12	825485	4	3	3	1	0	560	1	4	0	120	120	0	0	100
fixed	5	1	1	827567	4	1	1	1	0	584	1	4	0	136	1	0	0	100
fixed	5	1	2	828534	1	2	2	1	0	1231	1	4	0	144	2	0	0	100
fixed	5	1	3	830772	6	4	4	1	0	665	1	4	0	160	3	0	0	100
fixed	5	1	4	832112	2	1	1	1	0	719	1	4	0	136	4	0	0	100
fixed	5	1	5	833270	5	3	3	1	0	871	1	4	0	152	5	0	0	100
fixed	5	1	6	834448	6	4	4	1	0	717	1	4	0	160	6	0	0	100
fixed	5	1	7	835652	3	1	1	1	0	762	1	4	0	136	7	0	0	100
fixed	5	1	8	837062	2	3	3	1	0	798	1	4	0	152	8	0	0	100
fixed	5	1	9	838658	3	2	2	1	0	507	1	4	0	144	9	0	0	100
fixed	5	1	10	839976	1	4	4	1	0	683	1	4	0	160	10	0	0	100
fixed	5	1	11	841018	5	2	2	1	0	774	1	4	0	144	11	0	0	100
fixed	5	1	12	842179	4	3	3	1	0	1437	1	4	0	152	12	0	0	100
fixed	5	2	1	844193	4	1	1	1	0	656	1	4	0	136	13	0	0	100
fixed	5	2	2	845295	1	2	2	1	0	1401	1	4	0	144	14	0	0	100
fixed	5	2	3	847503	6	4	4	1	0	692	1	4	0	160	15	0	0	100
fixed	5	2	4	849233	2	1	1	1	0	691	1	4	0	136	16	0	0	100
fixed	5	2	5	850705	5	3	3	1	0	788	1	4	0	152	17	0	0	100
fixed	5	2	6	852266	6	4	4	1	0	626	1	4	0	160	18	0	0	100
fixed	5	2	7	853870	3	1	1	1	0	750	1	4	0	136	19	0	0	100
fixed	5	2	8	855516	2	3	3	1	0	729	1	4	0	152	20	0	0	100
fixed	5	2	9	856674	3	2	2	1	0	623	1	4	0	144	21	0	0	100
fixed	5	2	10	857870	1	4	4	1	0	629	1	4	0	160	22	0	0	100
fixed	5	2	11	858784	5	2	2	1	0	774	1	4	0	144	23	0	0	100
fixed	5	2	12	860287	4	3	3	1	0	1126	1	4	0	152	24	0	0	100
fixed	5	3	1	862204	4	1	1	1	0	693	1	4	0	136	25	0	0	100
fixed	5	3	2	863696	1	2	2	1	0	1038	1	4	0	144	26	0	0	100
fixed	5	3	3	865417	6	4	4	1	0	725	1	4	0	160	27	0	0	100
fixed	5	3	4	866531	2	1	1	1	0	805	1	4	0	136	28	0	0	100
fixed	5	3	5	868010	5	3	3	2	0	1383	2	4	0	152	29	0	0	100
fixed	5	3	6	870016	6	4	4	1	0	802	1	4	0	160	30	0	0	100
fixed	5	3	7	871651	3	1	1	1	0	789	1	4	0	136	31	0	0	100
fixed	5	3	8	873257	2	3	3	1	0	857	1	4	0	152	32	0	0	100
fixed	5	3	9	874681	3	2	2	1	0	645	1	4	0	144	33	0	0	100
fixed	5	3	10	876300	1	4	4	1	0	640	1	4	0	160	34	0	0	100
fixed	5	3	11	877706	5	2	2	1	0	676	1	4	0	144	35	0	0	100
fixed	5	3	12	878976	4	3	3	1	0	630	1	4	0	152	36	0	0	100
fixed	5	4	1	880800	4	1	1	1	0	721	1	4	0	136	37	0	0	100
fixed	5	4	2	882100	1	2	2	1	0	922	1	4	0	144	38	0	0	100
fixed	5	4	3	884033	6	4	4	1	0	753	1	4	0	160	39	0	0	100
fixed	5	4	4	885082	2	1	1	1	0	796	1	4	0	136	40	0	0	100
fixed	5	4	5	886872	5	3	3	1	0	776	1	4	0	152	41	0	0	100
fixed	5	4	6	888035	6	4	4	1	0	839	1	4	0	160	42	0	0	100
fixed	5	4	7	889300	3	1	1	1	0	770	1	4	0	136	43	0	0	100
fixed	5	4	8	890530	2	3	3	1	0	909	1	4	0	152	44	0	0	100
fixed	5	4	9	891887	3	2	2	1	0	660	1	4	0	144	45	0	0	100
fixed	5	4	10	893151	1	4	4	1	0	630	1	4	0	160	46	0	0	100
fixed	5	4	11	894207	5	2	2	1	0	754	1	4	0	144	47	0	0	100
fixed	5	4	12	895836	4	3	3	1	0	604	1	4	0	152	48	0	0	100
fixed	5	5	1	897641	4	1	1	1	0	584	1	4	0	136	49	0	0	100
fixed	5	5	2	898721	1	2	2	1	0	1027	1	4	0	144	50	0	0	100
fixed	5	5	3	900395	6	4	4	1	0	651	1	4	0	160	51	0	0	100
fixed	5	5	4	901684	2	1	1	1	0	629	1	4	0	136	52	0	0	100
fixed	5	5	5	902863	5	3	3	1	0	787	1	4	0	152	53	0	0	100
fixed	5	5	6	904272	6	4	4	1	0	639	1	4	0	160	54	0	0	100
fixed	5	5	7	905343	3	1	1	1	0	786	1	4	0	136	55	0	0	100
fixed	5	5	8	906467	2	3	3	1	0	754	1	4	0	152	56	0	0	100
fixed	5	5	9	907914	3	2	2	1	0	773	1	4	0	144	57	0	0	100
fixed	5	5	10	909387	1	4	4	1	0	758	1	4	0	160	58	0	0	100
fixed	5	5	11	910736	5	2	2	1	0	670	1	4	0	144	59	0	0	100
fixed	5	5	12	912285	4	3	3	1	0	580	1	4	0	152	60	0	0	100
fixed	5	6	1	914048	4	1	1	1	0	457	1	4	0	136	61	0	0	100
fixed	5	6	2	915397	1	2	2	1	0	1768	1	4	0	144	62	0	0	100
fixed	5	6	3	917673	6	4	4	1	0	703	1	4	0	160	63	0	0	100
fixed	5	6	4	918878	2	1	1	1	0	900	1	4	0	136	64	0	0	100
fixed	5	6	5	920787	5	3	3	1	0	964	1	4	0	152	65	0	0	100
fixed	5	6	6	922544	6	4	4	1	0	737	1	4	0	160	66	0	0	100
fixed	5	6	7	923652	3	1	1	1	0	754	1	4	0	136	67	0	0	100
fixed	5	6	8	924733	2	3	3	1	0	869	1	4	0	152	68	0	0	100
fixed	5	6	9	926314	3	2	2	1	0	522	1	4	0	144	69	0	0	100
fixed	5	6	10	927476	1	4	4	1	0	513	1	4	0	160	70	0	0	100
fixed	5	6	11	928393	5	2	2	1	0	986	1	4	0	144	71	0	0	100
fixed	5	6	12	930061	4	3	3	1	0	443	1	4	0	152	72	0	0	100
fixed	5	7	1	931724	4	1	1	1	0	340	1	4	0	136	73	0	0	100
fixed	5	7	2	932386	1	2	2	1	0	1081	1	4	0	144	74	0	0	100
fixed	5	7	3	934008	6	4	4	1	0	676	1	4	0	160	75	0	0	100
fixed	5	7	4	935122	2	1	1	1	0	652	1	4	0	136	76	0	0	100
fixed	5	7	5	936768	5	3	3	1	0	975	1	4	0	152	77	0	0	100
fixed	5	7	6	938138	6	4	4	1	0	660	1	4	0	160	78	0	0	100
fixed	5	7	7	939583	3	1	1	1	0	624	1	4	0	136	79	0	0	100
fixed	5	7	8	941147	2	3	3	1	0	709	1	4	0	152	80	0	0	100
fixed	5	7	9	942390	3	2	2	1	0	593	1	4	0	144	81	0	0	100
fixed	5	7	10	943774	1	4	4	1	0	662	1	4	0	160	82	0	0	100
fixed	5	7	11	945244	5	2	2	1	0	712	1	4	0	144	83	0	0	100
fixed	5	7	12	946978	4	3	3	1	0	966	1	4	0	152	84	0	0	100
fixed	5	8	1	948549	4	1	1	1	0	564	1	4	0	136	85	0	0	100
fixed	5	8	2	949644	1	2	2	1	0	782	1	4	0	144	86	0	0	100
fixed	5	8	3	951252	6	4	4	1	0	754	1	4	0	160	87	0	0	100
fixed	5	8	4	952837	2	1	1	1	0	750	1	4	0	136	88	0	0	100
fixed	5	8	5	954029	5	3	3	1	0	891	1	4	0	152	89	0	0	100
fixed	5	8	6	955354	6	4	4	1	0	716	1	4	0	160	90	0	0	100
fixed	5	8	7	957057	3	1	1	1	0	731	1	4	0	136	91	0	0	100
fixed	5	8	8	958787	2	3	3	1	0	850	1	4	0	152	92	0	0	100
fixed	5	8	9	959930	3	2	2	1	0	754	1	4	0	144	93	0	0	100
fixed	5	8	10	961510	1	4	4	1	0	551	1	4	0	160	94	0	0	100
fixed	5	8	11	963079	5	2	2	1	0	677	1	4	0	144	95	0	0	100
fixed	5	8	12	964709	4	3	3	1	0	983	1	4	0	152	96	0	0	100
fixed	5	9	1	966811	4	1	1	1	0	558	1	4	0	136	97	0	0	100
fixed	5	9	2	968386	1	2	2	1	0	724	1	4	0	144	98	0	0	100
fixed	5	9	3	969544	6	4	4	1	0	627	1	4	0	160	99	0	0	100
fixed	5	9	4	970514	2	1	1	1	0	706	1	4	0	136	100	0	0	100
fixed	5	9	5	971549	5	3	3	1	0	582	1	4	0	152	101	0	0	100
fixed	5	9	6	972535	6	4	4	1	0	588	1	4	0	160	102	0	0	100
fixed	5	9	7	974137	3	1	1	1	0	664	1	4	0	136	103	0	0	100
fixed	5	9	8	975594	2	3	3	1	0	803	1	4	0	152	104	0	0	100
fixed	5	9	9	976719	3	2	2	1	0	627	1	4	0	144	105	0	0	100
fixed	5	9	10	978043	1	4	4	1	0	451	1	4	0	160	106	0	0	100
fixed	5	9	11	979334	5	2	2	1	0	788	1	4	0	144	107	0	0	100
fixed	5	9	12	980571	4	3	3	1	0	592	1	4	0	152	108	0	0	100
fixed	5	10	1	981781	4	1	1	1	0	460	1	4	0	136	109	0	0	100
fixed	5	10	2	983247	1	2	2	1	0	855	1	4	0	144	110	0	0	100
fixed	5	10	3	985137	6	4	4	1	0	870	1	4	0	160	111	0	0	100
fixed	5	10	4	986798	2	1	1	1	0	624	1	4	0	136	112	0	0	100
fixed	5	10	5	987803	5	3	3	1	0	885	1	4	0	152	113	0	0	100
fixed	5	10	6	989089	6	4	4	1	0	687	1	4	0	160	114	0	0	100
fixed	5	10	7	990205	3	1	1	1	0	743	1	4	0	136	115	0	0	100
fixed	5	10	8	991322	2	3	3	1	0	744	1	4	0	152	116	0	0	100
fixed	5	10	9	992895	3	2	2	1	0	589	1	4	0	144	117	0	0	100
fixed	5	10	10	994184	1	4	4	1	0	503	1	4	0	160	118	0	0	100
fixed	5	10	11	995109	5	2	2	1	0	728	1	4	0	144	119	0	0	100
fixed	5	10	12	996505	4	3	3	1	0	493	1	4	0	152	120	0	0	100
random	6	1	1	1105933	6	1	1	1	0	1033	1	4	0	168	1	0	0	100
random	6	1	2	1107756	4	4	4	1	0	700	1	4	0	192	2	0	0	100
random	6	1	3	1108886	2	2	2	1	0	749	1	4	0	176	3	0	0	100
random	6	1	4	1110421	3	3	3	1	0	828	1	4	0	184	4	0	0	100
random	6	1	5	1112042	5	2	2	1	0	711	1	4	0	176	5	0	0	100
random	6	1	6	1113093	1	4	4	1	0	667	1	4	0	192	6	0	0	100
random	6	1	7	1114435	6	1	1	1	0	602	1	4	0	168	7	0	0	100
random	6	1	8	1115438	2	3	3	1	0	1055	1	4	0	184	8	0	0	100
random	6	1	9	1117046	4	2	2	1	0	531	1	4	0	176	9	0	0	100
random	6	1	10	1118386	1	1	1	2	0	866	2	4	0	168	10	0	0	100
random	6	1	11	1119895	5	4	4	1	0	683	1	4	0	192	11	0	0	100
random	6	1	12	1120895	3	3	3	1	0	1024	1	4	0	184	12	0	0	100
random	6	1	13	1122509	5	2	2	1	0	779	1	4	0	176	13	0	0	100
random	6	1	14	1124273	1	4	4	1	0	745	1	4	0	192	14	0	0	100
random	6	1	15	1126046	3	1	1	1	0	886	1	4	0	168	15	0	0	100
random	6	1	16	1127943	4	3	3	2	0	1173	2	4	0	184	16	0	0	100
random	6	1	17	1129637	6	4	4	1	0	686	1	4	0	192	17	0	0	100
random	6	1	18	1130717	2	1	1	1	0	808	1	4	0	168	18	0	0	100
random	6	1	19	1132276	5	3	3	1	0	910	1	4	0	184	19	0	0	100
random	6	1	20	1134173	2	2	2	1	0	693	1	4	0	176	20	0	0	100
random	6	1	21	1135349	3	3	3	1	0	972	1	4	0	184	21	0	0	100
random	6	1	22	1137065	6	1	1	1	0	667	1	4	0	168	22	0	0	100
random	6	1	23	1138519	4	2	2	1	0	733	1	4	0	176	23	0	0	100
random	6	1	24	1139637	1	4	4	1	0	646	1	4	0	192	24	0	0	100
random	6	1	25	1140971	4	3	3	1	0	973	1	4	0	184	25	0	0	100
random	6	1	26	1142705	2	1	1	1	0	917	1	4	0	168	26	0	0	100
random	6	1	27	1144538	5	2	2	1	0	1015	1	4	0	176	27	0	0	100
random	6	1	28	1146265	6	4	4	1	0	941	1	4	0	192	28	0	0	100
random	6	1	29	1147853	1	3	3	1	0	1410	1	4	0	184	29	0	0	100
random	6	1	30	1150285	5	2	2	1	0	619	1	4	0	176	30	0	0	100
random	6	1	31	1151342	2	1	1	1	0	783	1	4	0	168	31	0	0	100
random	6	1	32	1153142	3	3	3	1	0	938	1	4	0	184	32	0	0	100
random	6	1	33	1154768	6	4	4	1	0	694	1	4	0	192	33	0	0	100
random	6	1	34	1155887	4	2	2	1	0	734	1	4	0	176	34	0	0	100
random	6	1	35	1157205	3	4	4	1	0	822	1	4	0	192	35	0	0	100
random	6	1	36	1158494	1	1	1	1	0	720	1	4	0	168	36	0	0	100
random	6	1	37	1160135	3	4	4	1	0	1146	1	4	0	192	37	0	0	100
random	6	1	38	1161741	5	3	3	1	0	974	1	4	0	184	38	0	0	100
random	6	1	39	1163699	6	1	1	1	0	819	1	4	0	168	39	0	0	100
random	6	1	40	1165252	1	2	2	1	0	1145	1	4	0	176	40	0	0	100
random	6	1	41	1166748	2	3	3	1	0	994	1	4	0	184	41	0	0	100
random	6	1	42	1168465	4	4	4	1	0	665	1	4	0	192	42	0	0	100
random	6	1	43	1169814	1	2	2	1	0	944	1	4	0	176	43	0	0	100
random	6	1	44	1171485	6	3	3	1	0	825	1	4	0	184	44	0	0	100
random	6	1	45	1172653	3	1	1	1	0	592	1	4	0	168	45	0	0	100
random	6	1	46	1173558	4	4	4	1	0	865	1	4	0	192	46	0	0	100
random	6	1	47	1174765	2	2	2	1	0	799	1	4	0	176	47	0	0	100
random	6	1	48	1176286	5	1	1	2	0	1142	2	4	0	168	48	0	0	100
random	6	1	49	1178163	2	3	3	1	0	1214	1	4	0	184	49	0	0	100
random	6	1	50	1179681	3	1	1	1	0	654	1	4	0	168	50	0	0	100
random	6	1	51	1181271	1	4	4	1	0	747	1	4	0	192	51	0	0	100
random	6	1	52	1182356	5	3	3	1	0	925	1	4	0	184	52	0	0	100
random	6	1	53	1183979	3	2	2	1	0	576	1	4	0	176	53	0	0	100
random	6	1	54	1185077	6	4	4	1	0	649	1	4	0	192	54	0	0	100
random	6	1	55	1186146	4	2	2	1	0	837	1	4	0	176	55	0	0	100
random	6	1	56	1187953	1	1	1	1	0	567	1	4	0	168	56	0	0	100
random	6	1	57	1188924	5	4	4	1	0	726	1	4	0	192	57	0	0	100
random	6	1	58	1190457	2	1	1	1	0	741	1	4	0	168	58	0	0	100
random	6	1	59	1191676	6	2	2	1	0	1018	1	4	0	176	59	0	0	100
random	6	1	60	1193203	4	3	3	1	0	665	1	4	0	184	60	0	0	100
random	6	1	61	1195138	1	2	2	1	0	1207	1	4	0	176	61	0	0	100
random	6	1	62	1197178	6	4	4	1	0	689	1	4	0	192	62	0	0	100
random	6	1	63	1198409	4	1	1	1	0	765	1	4	0	168	63	0	0	100
random	6	1	64	1199667	2	2	2	1	0	967	1	4	0	176	64	0	0	100
random	6	1	65	1201308	4	3	3	1	0	594	1	4	0	184	65	0	0	100
random	6	1	66	1202371	3	1	1	1	0	765	1	4	0	168	66	0	0	100
random	6	1	67	1203603	1	3	3	1	0	969	1	4	0	184	67	0	0	100
random	6	1	68	1205501	5	4	4	1	0	672	1	4	0	192	68	0	0	100
random	6	1	69	1207191	2	2	2	1	0	849	1	4	0	176	69	0	0	100
random	6	1	70	1209001	3	1	1	1	0	781	1	4	0	168	70	0	0	100
random	6	1	71	1210651	5	4	4	1	0	790	1	4	0	192	71	0	0	100
random	6	1	72	1211998	6	3	3	1	0	1149	1	4	0	184	72	0	0	100
random	6	1	73	1213750	2	1	1	1	0	691	1	4	0	168	73	0	0	100
random	6	1	74	1215170	5	3	3	1	0	1095	1	4	0	184	74	0	0	100
random	6	1	75	1216788	1	4	4	1	0	666	1	4	0	192	75	0	0	100
random	6	1	76	1218490	6	2	2	1	0	851	1	4	0	176	76	0	0	100
random	6	1	77	1220070	2	1	1	1	0	895	1	4	0	168	77	0	0	100
random	6	1	78	1221272	4	4	4	1	0	804	1	4	0	192	78	0	0	100
random	6	1	79	1223080	3	2	2	1	0	920	1	4	0	176	79	0	0	100
random	6	1	80	1224456	4	3	3	1	0	558	1	4	0	184	80	0	0	100
random	6	1	81	1225815	1	4	4	1	0	540	1	4	0	192	81	0	0	100
random	6	1	82	1227081	5	1	1	1	0	750	1	4	0	168	82	0	0	100
random	6	1	83	1228373	3	2	2	1	0	792	1	4	0	176	83	0	0	100
random	6	1	84	1229787	6	3	3	1	0	627	1	4	0	184	84	0	0	100
random	6	1	85	1231076	3	2	2	1	0	1293	1	4	0	176	85	0	0	100
random	6	1	86	1232679	1	3	3	1	0	857	1	4	0	184	86	0	0	100
random	6	1	87	1233858	4	4	4	1	0	872	1	4	0	192	87	0	0	100
random	6	1	88	1235522	2	1	1	1	0	593	1	4	0	168	88	0	0	100
random	6	1	89	1236490	6	4	4	1	0	896	1	4	0	192	89	0	0	100
random	6	1	90	1237811	3	3	3	1	0	1144	1	4	0	184	90	0	0	100
random	6	1	91	1239960	5	4	4	1	0	861	1	4	0	192	91	0	0	100
random	6	1	92	1241567	1	2	2	1	0	729	1	4	0	176	92	0	0	100
random	6	1	93	1243263	5	1	1	1	0	537	1	4	0	168	93	0	0	100
random	6	1	94	1244164	4	3	3	1	0	979	1	4	0	184	94	0	0	100
random	6	1	95	1245462	6	1	1	1	0	828	1	4	0	168	95	0	0	100
random	6	1	96	1246938	2	2	2	1	0	885	1	4	0	176	96	0	0	100
random	6	1	97	1248652	4	3	3	1	0	1229	1	4	0	184	97	0	0	100
random	6	1	98	1250326	3	2	2	1	0	990	1	4	0	176	98	0	0	100
random	6	1	99	1251967	6	3	3	1	0	592	1	4	0	184	99	0	0	100
random	6	1	100	1253469	1	4	4	1	0	1105	1	4	0	192	100	0	0	100
random	6	1	101	1255310	4	1	1	1	0	403	1	4	0	168	101	0	0	100
random	6	1	102	1256339	5	2	2	1	0	807	1	4	0	176	102	0	0	100
random	6	1	103	1257750	2	4	4	1	0	860	1	4	0	192	103	0	0	100
random	6	1	104	1259534	3	1	1	1	0	688	1	4	0	168	104	0	0	100
random	6	1	105	1260929	1	3	3	1	0	893	1	4	0	184	105	0	0	100
random	6	1	106	1262361	2	2	2	1	0	648	1	4	0	176	106	0	0	100
random	6	1	107	1263324	5	4	4	1	0	719	1	4	0	192	107	0	0	100
random	6	1	108	1264748	6	1	1	1	0	451	1	4	0	168	108	0	0	100
random	6	1	109	1266028	5	4	4	1	0	837	1	4	0	192	109	0	0	100
random	6	1	110	1267267	6	3	3	2	0	1376	2	4	0	184	110	0	0	100
random	6	1	111	1269387	2	2	2	1	0	774	1	4	0	176	111	0	0	100
random	6	1	112	1271024	3	1	1	1	0	673	1	4	0	168	112	0	0	100
random	6	1	113	1272649	1	2	2	1	0	932	1	4	0	176	113	0	0	100
random	6	1	114	1274320	2	3	3	1	0	798	1	4	0	184	114	0	0	100
random	6	1	115	1276076	3	1	1	1	0	587	1	4	0	168	115	0	0	100
random	6	1	116	1277271	4	4	4	1	0	584	1	4	0	192	116	0	0	100
random	6	1	117	1278290	6	1	1	1	0	885	1	4	0	168	117	0	0	100
random	6	1	118	1280166	5	3	3	1	0	862	1	4	0	184	118	0	0	100
random	6	1	119	1281675	1	4	4	1	0	718	1	4	0	192	119	0	0	100
random	6	1	120	1283246	4	2	2	1	0	708	1	4	0	176	120	0	0	100
fixed	7	1	1	1285373	4	1	1	1	0	769	1	4	0	200	1	0	0	100
fixed	7	1	2	1286752	1	2	2	1	0	887	1	4	0	208	2	0	0	100
fixed	7	1	3	1287962	6	4	4	1	0	644	1	4	0	224	3	0	0	100
fixed	7	1	4	1289021	2	1	1	1	0	759	1	4	0	200	4	0	0	100
fixed	7	1	5	1290327	5	3	3	1	0	624	1	4	0	216	5	0	0	100
fixed	7	1	6	1291505	6	4	4	1	0	581	1	4	0	224	6	0	0	100
fixed	7	1	7	1292547	3	1	1	1	0	617	1	4	0	200	7	0	0	100
fixed	7	1	8	1293841	2	3	3	1	0	859	1	4	0	216	8	0	0	100
fixed	7	1	9	1295551	3	2	2	1	0	730	1	4	0	208	9	0	0	100
fixed	7	1	10	1297264	1	4	4	1	0	546	1	4	0	224	10	0	0	100
fixed	7	1	11	1298329	5	2	2	1	0	933	1	4	0	208	11	0	0	100
fixed	7	1	12	1299562	4	3	3	1	0	848	1	4	0	216	12	0	0	100
fixed	7	2	1	1301515	4	1	1	1	0	573	1	4	0	200	1	0	0	8
fixed	7	2	2	1302971	1	2	2	1	0	824	1	4	0	208	2	0	0	14
fixed	7	2	3	1304422	6	4	4	1	0	602	1	4	0	224	3	0	0	20
fixed	7	2	4	1305499	2	1	1	1	0	773	1	4	0	200	4	0	0	25
fixed	7	2	5	1307026	5	3	3	1	0	572	1	4	0	216	5	0	0	29
fixed	7	2	6	1308554	6	4	4	1	0	620	1	4	0	224	6	0	0	33
fixed	7	2	7	1309592	3	1	1	1	0	664	1	4	0	200	7	0	0	37
fixed	7	2	8	1310833	2	3	3	1	0	955	1	4	0	216	8	0	0	40
fixed	7	2	9	1312761	3	2	2	1	0	713	1	4	0	208	9	0	0	43
fixed	7	2	10	1314085	1	4	4	1	0	697	1	4	0	224	10	0	0	45
fixed	7	2	11	1315484	5	2	2	1	0	774	1	4	0	208	11	0	0	48
fixed	7	2	12	1316648	4	3	3	1	0	685	1	4	0	216	12	0	0	50
fixed	7	3	1	1318173	4	1	1	1	0	708	1	4	0	200	1	0	0	4
fixed	7	3	2	1319375	1	2	2	1	0	1001	1	4	0	208	2	0	0	8
fixed	7	3	3	1320701	6	4	4	1	0	737	1	4	0	224	3	0	0	11
fixed	7	3	4	1321859	2	1	1	1	0	648	1	4	0	200	4	0	0	14
fixed	7	3	5	1323410	5	3	3	1	0	1422	1	4	0	216	5	0	0	17
fixed	7	3	6	1325361	6	4	4	1	0	588	1	4	0	224	6	0	0	20
fixed	7	3	7	1326621	3	1	1	1	0	687	1	4	0	200	7	0	0	23
fixed	7	3	8	1327633	2	3	3	1	0	763	1	4	0	216	8	0	0	25
fixed	7	3	9	1329042	3	2	2	1	0	648	1	4	0	208	9	0	0	27
fixed	7	3	10	1329977	1	4	4	1	0	712	1	4	0	224	10	0	0	29
fixed	7	3	11	1331444	5	2	2	1	0	1026	1	4	0	208	11	0	0	31
fixed	7	3	12	1333256	4	3	3	1	0	694	1	4	0	216	12	0	0	33
fixed	7	4	1	1334546	4	1	1	1	0	502	1	4	0	200	1	0	0	3
fixed	7	4	2	1335838	1	2	2	1	0	856	1	4	0	208	2	0	0	5
fixed	7	4	3	1337660	6	4	4	1	0	475	1	4	0	224	3	0	0	8
fixed	7	4	4	1339012	2	1	1	1	0	633	1	4	0	200	4	0	0	10
fixed	7	4	5	1339931	5	3	3	1	0	819	1	4	0	216	5	0	0	12
fixed	7	4	6	1341734	6	4	4	1	0	638	1	4	0	224	6	0	0	14
fixed	7	4	7	1343107	3	1	1	1	0	852	1	4	0	200	7	0	0	16
fixed	7	4	8	1344560	2	3	3	1	0	751	1	4	0	216	8	0	0	18
fixed	7	4	9	1345850	3	2	2	1	0	608	1	4	0	208	9	0	0	20
fixed	7	4	10	1347169	1	4	4	1	0	568	1	4	0	224	10	0	0	22
fixed	7	4	11	1348586	5	2	2	1	0	1012	1	4	0	208	11	0	0	23
fixed	7	4	12	1350111	4	3	3	1	0	556	1	4	0	216	12	0	0	25
fixed	7	5	1	1351622	4	1	1	1	0	747	1	4	0	200	1	0	0	2
fixed	7	5	2	1352732	1	2	2	1	0	828	1	4	0	208	2	0	0	4
fixed	7	5	3	1354019	6	4	4	1	0	502	1	4	0	224	3	0	0	6
fixed	7	5	4	1354997	2	1	1	1	0	572	1	4	0	200	4	0	0	8
fixed	7	5	5	1356283	5	3	3	1	0	462	1	4	0	216	5	0	0	9
fixed	7	5	6	1357125	6	4	4	1	0	674	1	4	0	224	6	0	0	11
fixed	7	5	7	1358470	3	1	1	1	0	529	1	4	0	200	7	0	0	13
fixed	7	5	8	1359401	2	3	3	1	0	842	1	4	0	216	8	0	0	14
fixed	7	5	9	1361085	3	2	2	1	0	571	1	4	0	208	9	0	0	16
fixed	7	5	10	1362057	1	4	4	1	0	626	1	4	0	224	10	0	0	17
fixed	7	5	11	1363483	5	2	2	1	0	645	1	4	0	208	11	0	0	19
fixed	7	5	12	1364993	4	3	3	1	0	893	1	4	0	216	12	0	0	20
fixed	7	6	1	1366742	4	1	1	1	0	523	1	4	0	200	1	0	0	2
fixed	7	6	2	1368010	1	2	2	1	0	821	1	4	0	208	2	0	0	3
fixed	7	6	3	1369688	6	4	4	1	0	678	1	4	0	224	3	0	0	5
fixed	7	6	4	1370707	2	1	1	1	0	691	1	4	0	200	4	0	0	6
fixed	7	6	5	1372087	5	3	3	1	0	848	1	4	0	216	5	0	0	8
fixed	7	6	6	1373803	6	4	4	1	0	912	1	4	0	224	6	0	0	9
fixed	7	6	7	1375228	3	1	1	1	0	803	1	4	0	200	7	0	0	10
fixed	7	6	8	1377020	2	3	3	1	0	840	1	4	0	216	8	0	0	12
fixed	7	6	9	1378319	3	2	2	1	0	592	1	4	0	208	9	0	0	13
fixed	7	6	10	1379915	1	4	4	1	0	629	1	4	0	224	10	0	0	14
fixed	7	6	11	1381428	5	2	2	1	0	661	1	4	0	208	11	0	0	15
fixed	7	6	12	1382907	4	3	3	1	0	846	1	4	0	216	12	0	0	17
fixed	7	7	1	1384653	4	1	1	1	0	524	1	4	0	200	1	0	0	1
fixed	7	7	2	1385792	1	2	2	1	0	804	1	4	0	208	2	0	0	3
fixed	7	7	3	1387288	6	4	4	1	0	565	1	4	0	224	3	0	0	4
fixed	7	7	4	1388541	2	1	1	1	0	672	1	4	0	200	4	0	0	5
fixed	7	7	5	1389723	5	3	3	1	0	694	1	4	0	216	5	0	0	6
fixed	7	7	6	1391310	6	4	4	1	0	618	1	4	0	224	6	0	0	8
fixed	7	7	7	1392405	3	1	1	1	0	676	1	4	0	200	7	0	0	9
fixed	7	7	8	1394110	2	3	3	1	0	828	1	4	0	216	8	0	0	10
fixed	7	7	9	1395387	3	2	2	1	0	694	1	4	0	208	9	0	0	11
fixed	7	7	10	1396844	1	4	4	1	0	544	1	4	0	224	10	0	0	12
fixed	7	7	11	1398195	5	2	2	1	0	679	1	4	0	208	11	0	0	13
fixed	7	7	12	1399591	4	3	3	1	0	747	1	4	0	216	12	0	0	14
fixed	7	8	1	1401594	4	1	1	1	0	671	1	4	0	200	1	0	0	1
fixed	7	8	2	1402816	1	2	2	2	0	2043	2	4	0	208	2	0	0	2
fixed	7	8	3	1405702	6	4	4	1	0	768	1	4	0	224	3	0	0	3
fixed	7	8	4	1407229	2	1	1	1	0	976	1	4	0	200	4	0	0	5
fixed	7	8	5	1409173	5	3	3	1	0	878	1	4	0	216	5	0	0	6
fixed	7	8	6	1410665	6	4	4	1	0	622	1	4	0	224	6	0	0	7
fixed	7	8	7	1412280	3	1	1	1	0	714	1	4	0	200	7	0	0	8
fixed	7	8	8	1413318	2	3	3	1	0	814	1	4	0	216	8	0	0	9
fixed	7	8	9	1414793	3	2	2	1	0	688	1	4	0	208	9	0	0	10
fixed	7	8	10	1416255	1	4	4	1	0	578	1	4	0	224	10	0	0	11
fixed	7	8	11	1417800	5	2	2	1	0	648	1	4	0	208	11	0	0	12
fixed	7	8	12	1419331	4	3	3	1	0	784	1	4	0	216	12	0	0	13
fixed	7	9	1	1421125	4	1	1	1	0	723	1	4	0	200	1	0	0	1
fixed	7	9	2	1422493	1	2	2	1	0	865	1	4	0	208	2	0	0	2
fixed	7	9	3	1424328	6	4	4	1	0	460	1	4	0	224	3	0	0	3
fixed	7	9	4	1425651	2	1	1	1	0	580	1	4	0	200	4	0	0	4
fixed	7	9	5	1426812	5	3	3	1	0	515	1	4	0	216	5	0	0	5
fixed	7	9	6	1427995	6	4	4	1	0	736	1	4	0	224	6	0	0	6
fixed	7	9	7	1429107	3	1	1	1	0	738	1	4	0	200	7	0	0	7
fixed	7	9	8	1430715	2	3	3	1	0	949	1	4	0	216	8	0	0	8
fixed	7	9	9	1431968	3	2	2	1	0	632	1	4	0	208	9	0	0	9
fixed	7	9	10	1432897	1	4	4	1	0	505	1	4	0	224	10	0	0	9
fixed	7	9	11	1434364	5	2	2	1	0	947	1	4	0	208	11	0	0	10
fixed	7	9	12	1435851	4	3	3	2	0	884	2	4	0	216	12	0	0	11
fixed	7	10	1	1437466	4	1	1	1	0	679	1	4	0	200	1	0	0	1
fixed	7	10	2	1438587	1	2	2	1	0	864	1	4	0	208	2	0	0	2
fixed	7	10	3	1439871	6	4	4	1	0	601	1	4	0	224	3	0	0	3
fixed	7	10	4	1440896	2	1	1	1	0	638	1	4	0	200	4	0	0	4
fixed	7	10	5	1442133	5	3	3	1	0	498	1	4	0	216	5	0	0	4
fixed	7	10	6	1443224	6	4	4	1	0	708	1	4	0	224	6	0	0	5
fixed	7	10	7	1444342	3	1	1	1	0	652	1	4	0	200	7	0	0	6
fixed	7	10	8	1445310	2	3	3	2	0	1259	2	4	0	216	8	0	0	7
fixed	7	10	9	1447507	3	2	2	1	0	750	1	4	0	208	9	0	0	8
fixed	7	10	10	1449165	1	4	4	1	0	736	1	4	0	224	10	0	0	8
fixed	7	10	11	1450468	5	2	2	1	0	697	1	4	0	208	11	0	0	9
fixed	7	10	12	1451534	4	3	3	1	0	755	1	4	0	216	12	0	0	10
