type	block	sequ.	trial	time	Pos.	Color	Button	NumRsp	Resp_1	RT_1	R_Code	Resp_2	RT_2	Trigg.	n_hit	n_inc	n_miss	score_%

random	1	1	1	2498	6	1	1	1	0	1148	1	4	0	8	1	0	0	100
random	1	1	2	4202	4	4	4	1	0	580	1	4	0	32	2	0	0	100
random	1	1	3	5164	2	2	2	1	0	948	1	4	0	16	3	0	0	100
random	1	1	4	6707	3	3	3	1	0	474	1	4	0	24	4	0	0	100
random	1	1	5	7678	5	2	2	1	0	825	1	4	0	16	5	0	0	100
random	1	1	6	8983	1	4	4	1	0	721	1	4	0	32	6	0	0	100
random	1	1	7	10476	6	1	1	1	0	771	1	4	0	8	7	0	0	100
random	1	1	8	11681	2	3	3	2	0	1304	2	4	0	24	8	0	0	100
random	1	1	9	13603	4	2	2	1	0	790	1	4	0	16	9	0	0	100
random	1	1	10	15304	1	1	1	1	0	814	1	4	0	8	10	0	0	100
random	1	1	11	16547	5	4	4	1	0	754	1	4	0	32	11	0	0	100
random	1	1	12	17938	3	3	3	1	0	1062	1	4	0	24	12	0	0	100
random	1	1	13	19875	5	2	2	1	0	812	1	4	0	16	13	0	0	100
random	1	1	14	21029	1	4	4	1	0	931	1	4	0	32	14	0	0	100
random	1	1	15	22490	3	1	1	1	0	574	1	4	0	8	15	0	0	100
random	1	1	16	23764	4	3	3	1	0	1080	1	4	0	24	16	0	0	100
random	1	1	17	25319	6	4	4	1	0	790	1	4	0	32	17	0	0	100
random	1	1	18	26772	2	1	1	1	0	729	1	4	0	8	18	0	0	100
random	1	1	19	28163	5	3	3	2	0	1461	2	4	0	24	19	0	0	100
random	1	1	20	30648	2	2	2	1	0	724	1	4	0	16	20	0	0	100
random	1	1	21	32019	3	3	3	1	0	962	1	4	0	24	21	0	0	100
random	1	1	22	34008	6	1	1	1	0	1181	1	4	0	8	22	0	0	100
random	1	1	23	36137	4	2	2	1	0	820	1	4	0	16	23	0	0	100
random	1	1	24	37470	1	4	4	1	0	515	1	4	0	32	24	0	0	100
random	1	1	25	38538	4	3	3	1	0	974	1	4	0	24	25	0	0	100
random	1	1	26	40287	2	1	1	1	0	652	1	4	0	8	26	0	0	100
random	1	1	27	41456	5	2	2	1	0	1042	1	4	0	16	27	0	0	100
random	1	1	28	43105	6	4	4	1	0	700	1	4	0	32	28	0	0	100
random	1	1	29	44653	1	3	3	1	0	611	1	4	0	24	29	0	0	100
random	1	1	30	46155	5	2	2	1	0	587	1	4	0	16	30	0	0	100
random	1	1	31	47431	2	1	1	1	0	765	1	4	0	8	31	0	0	100
random	1	1	32	49122	3	3	3	1	0	774	1	4	0	24	32	0	0	100
random	1	1	33	50448	6	4	4	1	0	814	1	4	0	32	33	0	0	100
random	1	1	34	52006	4	2	2	1	0	683	1	4	0	16	34	0	0	100
random	1	1	35	53406	3	4	4	1	0	1416	1	4	0	32	35	0	0	100
random	1	1	36	55611	1	1	1	1	0	579	1	4	0	8	36	0	0	100
random	1	1	37	56733	3	4	4	1	0	1035	1	4	0	32	37	0	0	100
random	1	1	38	58303	5	3	3	1	0	888	1	4	0	24	38	0	0	100
random	1	1	39	59606	6	1	1	1	0	1041	1	4	0	8	39	0	0	100
random	1	1	40	61408	1	2	2	1	0	709	1	4	0	16	40	0	0	100
random	1	1	41	62922	2	3	3	1	0	669	1	4	0	24	41	0	0	100
random	1	1	42	64348	4	4	4	1	0	849	1	4	0	32	42	0	0	100
random	1	1	43	65952	1	2	2	1	0	789	1	4	0	16	43	0	0	100
random	1	1	44	67039	6	3	3	1	0	870	1	4	0	24	44	0	0	100
random	1	1	45	68314	3	1	1	1	0	713	1	4	0	8	45	0	0	100
random	1	1	46	69331	4	4	4	1	0	1021	1	4	0	32	46	0	0	100
random	1	1	47	70747	2	2	2	1	0	1042	1	4	0	16	47	0	0	100
random	1	1	48	72811	5	1	1	1	0	794	1	4	0	8	48	0	0	100
random	1	1	49	74376	2	3	3	1	0	952	1	4	0	24	49	0	0	100
random	1	1	50	75911	3	1	1	1	0	1071	1	4	0	8	50	0	0	100
random	1	1	51	77623	1	4	4	1	0	622	1	4	0	32	51	0	0	100
random	1	1	52	78786	5	3	3	1	0	1061	1	4	0	24	52	0	0	100
random	1	1	53	80333	3	2	2	1	0	652	1	4	0	16	53	0	0	100
random	1	1	54	81605	6	4	4	1	0	630	1	4	0	32	54	0	0	100
random	1	1	55	82604	4	2	2	1	0	715	1	4	0	16	55	0	0	100
random	1	1	56	83852	1	1	1	1	0	854	1	4	0	8	56	0	0	100
random	1	1	57	85480	5	4	4	1	0	682	1	4	0	32	57	0	0	100
random	1	1	58	87167	2	1	1	1	0	690	1	4	0	8	58	0	0	100
random	1	1	59	88744	6	2	2	1	0	959	1	4	0	16	59	0	0	100
random	1	1	60	90434	4	3	3	1	0	544	1	4	0	24	60	0	0	100
random	1	1	61	92187	1	2	2	1	0	1069	1	4	0	16	61	0	0	100
random	1	1	62	93913	6	4	4	1	0	692	1	4	0	32	62	0	0	100
random	1	1	63	95555	4	1	1	1	0	751	1	4	0	8	63	0	0	100
random	1	1	64	97201	2	2	2	1	0	969	1	4	0	16	64	0	0	100
random	1	1	65	98614	4	3	3	1	0	502	1	4	0	24	65	0	0	100
random	1	1	66	99824	3	1	1	1	0	530	1	4	0	8	66	0	0	100
random	1	1	67	100864	1	3	3	1	0	838	1	4	0	24	67	0	0	100
random	1	1	68	102615	5	4	4	1	0	828	1	4	0	32	68	0	0	100
random	1	1	69	104050	2	2	2	1	0	687	1	4	0	16	69	0	0	100
random	1	1	70	105229	3	1	1	1	0	717	1	4	0	8	70	0	0	100
random	1	1	71	106586	5	4	4	1	0	731	1	4	0	32	71	0	0	100
random	1	1	72	107788	6	3	3	1	0	1105	1	4	0	24	72	0	0	100
random	1	1	73	109546	2	1	1	1	0	742	1	4	0	8	73	0	0	100
random	1	1	74	111097	5	3	3	1	0	844	1	4	0	24	74	0	0	100
random	1	1	75	112266	1	4	4	1	0	707	1	4	0	32	75	0	0	100
random	1	1	76	113762	6	2	2	1	0	748	1	4	0	16	76	0	0	100
random	1	1	77	115236	2	1	1	1	0	725	1	4	0	8	77	0	0	100
random	1	1	78	116255	4	4	4	1	0	738	1	4	0	32	78	0	0	100
random	1	1	79	118028	3	2	2	1	0	839	1	4	0	16	79	0	0	100
random	1	1	80	119727	4	3	3	1	0	559	1	4	0	24	80	0	0	100
random	1	1	81	120696	1	4	4	1	0	686	1	4	0	32	81	0	0	100
random	1	1	82	121778	5	1	1	1	0	840	1	4	0	8	82	0	0	100
random	1	1	83	122986	3	2	2	1	0	909	1	4	0	16	83	0	0	100
random	1	1	84	124777	6	3	3	1	0	745	1	4	0	24	84	0	0	100
random	1	1	85	126454	3	2	2	1	0	1106	1	4	0	16	85	0	0	100
random	1	1	86	127933	1	3	3	1	0	780	1	4	0	24	86	0	0	100
random	1	1	87	129483	4	4	4	2	0	1786	2	4	0	32	87	0	0	100
random	1	1	88	131595	2	1	1	1	0	601	1	4	0	8	88	0	0	100
random	1	1	89	133060	6	4	4	1	0	866	1	4	0	32	89	0	0	100
random	1	1	90	134522	3	3	3	1	0	932	1	4	0	24	90	0	0	100
random	1	1	91	135980	5	4	4	1	0	711	1	4	0	32	91	0	0	100
random	1	1	92	137148	1	2	2	1	0	1205	1	4	0	16	92	0	0	100
random	1	1	93	139190	5	1	1	1	0	647	1	4	0	8	93	0	0	100
random	1	1	94	140319	4	3	3	1	0	1391	1	4	0	24	94	0	0	100
random	1	1	95	142753	6	1	1	1	0	648	1	4	0	8	95	0	0	100
random	1	1	96	144066	2	2	2	1	0	784	1	4	0	16	96	0	0	100
random	1	1	97	146052	4	3	3	1	0	1124	1	4	0	24	97	0	0	100
random	1	1	98	147502	3	2	2	1	0	815	1	4	0	16	98	0	0	100
random	1	1	99	149292	6	3	3	1	0	938	1	4	0	24	99	0	0	100
random	1	1	100	151142	1	4	4	1	0	765	1	4	0	32	100	0	0	100
random	1	1	101	152602	4	1	1	1	0	598	1	4	0	8	101	0	0	100
random	1	1	102	154110	5	2	2	1	0	911	1	4	0	16	102	0	0	100
random	1	1	103	155378	2	4	4	1	0	745	1	4	0	32	103	0	0	100
random	1	1	104	157120	3	1	1	1	0	863	1	4	0	8	104	0	0	100
random	1	1	105	158766	1	3	3	1	0	705	1	4	0	24	105	0	0	100
random	1	1	106	160002	2	2	2	1	0	645	1	4	0	16	106	0	0	100
random	1	1	107	161260	5	4	4	1	0	768	1	4	0	32	107	0	0	100
random	1	1	108	162983	6	1	1	1	0	719	1	4	0	8	108	0	0	100
random	1	1	109	164999	5	4	4	1	0	1041	1	4	0	32	109	0	0	100
random	1	1	110	166968	6	3	3	2	0	902	2	4	0	24	110	0	0	100
random	1	1	111	168451	2	2	2	1	0	896	1	4	0	16	111	0	0	100
random	1	1	112	170152	3	1	1	1	0	711	1	4	0	8	112	0	0	100
random	1	1	113	171191	1	2	2	1	0	1211	1	4	0	16	113	0	0	100
random	1	1	114	172943	2	3	3	1	0	633	1	4	0	24	114	0	0	100
random	1	1	115	174232	3	1	1	1	0	619	1	4	0	8	115	0	0	100
random	1	1	116	175488	4	4	4	1	0	701	1	4	0	32	116	0	0	100
random	1	1	117	176516	6	1	1	1	0	946	1	4	0	8	117	0	0	100
random	1	1	118	178304	5	3	3	1	0	622	1	4	0	24	118	0	0	100
random	1	1	119	179692	1	4	4	1	0	691	1	4	0	32	119	0	0	100
random	1	1	120	180884	4	2	2	1	0	745	1	4	0	16	120	0	0	100
fixed	2	1	1	182974	4	1	1	1	0	688	1	4	0	40	1	0	0	100
fixed	2	1	2	184032	1	2	2	1	0	899	1	4	0	48	2	0	0	100
fixed	2	1	3	185726	6	4	4	1	0	612	1	4	0	64	3	0	0	100
fixed	2	1	4	187235	2	1	1	1	0	515	1	4	0	40	4	0	0	100
fixed	2	1	5	188113	5	3	3	1	0	639	1	4	0	56	5	0	0	100
fixed	2	1	6	189363	6	4	4	1	0	690	1	4	0	64	6	0	0	100
fixed	2	1	7	190670	3	1	1	1	0	674	1	4	0	40	7	0	0	100
fixed	2	1	8	192062	2	3	3	1	0	1056	1	4	0	56	8	0	0	100
fixed	2	1	9	194125	3	2	2	1	0	688	1	4	0	48	9	0	0	100
fixed	2	1	10	195668	1	4	4	2	0	1455	2	4	0	64	10	0	0	100
fixed	2	1	11	197806	5	2	2	1	0	1084	1	4	0	48	11	0	0	100
fixed	2	1	12	199800	4	3	3	1	0	815	1	4	0	56	12	0	0	100
fixed	2	2	1	201589	4	1	1	1	0	755	1	4	0	40	13	0	0	100
fixed	2	2	2	202924	1	2	2	1	0	891	1	4	0	48	14	0	0	100
fixed	2	2	3	204274	6	4	4	1	0	594	1	4	0	64	15	0	0	100
fixed	2	2	4	205845	2	1	1	1	0	616	1	4	0	40	16	0	0	100
fixed	2	2	5	207089	5	3	3	1	0	571	1	4	0	56	17	0	0	100
fixed	2	2	6	208301	6	4	4	1	0	640	1	4	0	64	18	0	0	100
fixed	2	2	7	209387	3	1	1	1	0	722	1	4	0	40	19	0	0	100
fixed	2	2	8	210767	2	3	3	1	0	775	1	4	0	56	20	0	0	100
fixed	2	2	9	212270	3	2	2	1	0	503	1	4	0	48	21	0	0	100
fixed	2	2	10	213242	1	4	4	1	0	542	1	4	0	64	22	0	0	100
fixed	2	2	11	214088	5	2	2	1	0	858	1	4	0	48	23	0	0	100
fixed	2	2	12	215711	4	3	3	1	0	910	1	4	0	56	24	0	0	100
fixed	2	3	1	217862	4	1	1	1	0	706	1	4	0	40	25	0	0	100
fixed	2	3	2	219464	1	2	2	1	0	750	1	4	0	48	26	0	0	100
fixed	2	3	3	220807	6	4	4	1	0	702	1	4	0	64	27	0	0	100
fixed	2	3	4	222461	2	1	1	1	0	584	1	4	0	40	28	0	0	100
fixed	2	3	5	223848	5	3	3	1	0	669	1	4	0	56	29	0	0	100
fixed	2	3	6	224920	6	4	4	1	0	672	1	4	0	64	30	0	0	100
fixed	2	3	7	226602	3	1	1	1	0	648	1	4	0	40	31	0	0	100
fixed	2	3	8	227692	2	3	3	1	0	842	1	4	0	56	32	0	0	100
fixed	2	3	9	229423	3	2	2	1	0	625	1	4	0	48	33	0	0	100
fixed	2	3	10	230459	1	4	4	1	0	781	1	4	0	64	34	0	0	100
fixed	2	3	11	231858	5	2	2	1	0	682	1	4	0	48	35	0	0	100
fixed	2	3	12	233308	4	3	3	1	0	820	1	4	0	56	36	0	0	100
fixed	2	4	1	235138	4	1	1	1	0	551	1	4	0	40	37	0	0	100
fixed	2	4	2	236087	1	2	2	1	0	974	1	4	0	48	38	0	0	100
fixed	2	4	3	237995	6	4	4	1	0	461	1	4	0	64	39	0	0	100
fixed	2	4	4	239032	2	1	1	1	0	642	1	4	0	40	40	0	0	100
fixed	2	4	5	240347	5	3	3	1	0	930	1	4	0	56	41	0	0	100
fixed	2	4	6	242086	6	4	4	1	0	656	1	4	0	64	42	0	0	100
fixed	2	4	7	243042	3	1	1	1	0	912	1	4	0	40	43	0	0	100
fixed	2	4	8	244338	2	3	3	1	0	825	1	4	0	56	44	0	0	100
fixed	2	4	9	245597	3	2	2	1	0	547	1	4	0	48	45	0	0	100
fixed	2	4	10	247014	1	4	4	1	0	591	1	4	0	64	46	0	0	100
fixed	2	4	11	248256	5	2	2	1	0	659	1	4	0	48	47	0	0	100
fixed	2	4	12	249859	4	3	3	1	0	911	1	4	0	56	48	0	0	100
fixed	2	5	1	251461	4	1	1	1	0	699	1	4	0	40	49	0	0	100
fixed	2	5	2	253080	1	2	2	1	0	1070	1	4	0	48	50	0	0	100
fixed	2	5	3	254491	6	4	4	1	0	691	1	4	0	64	51	0	0	100
fixed	2	5	4	256199	2	1	1	1	0	643	1	4	0	40	52	0	0	100
fixed	2	5	5	257464	5	3	3	1	0	557	1	4	0	56	53	0	0	100
fixed	2	5	6	258680	6	4	4	1	0	681	1	4	0	64	54	0	0	100
fixed	2	5	7	260050	3	1	1	1	0	679	1	4	0	40	55	0	0	100
fixed	2	5	8	261044	2	3	3	1	0	902	1	4	0	56	56	0	0	100
fixed	2	5	9	262257	3	2	2	1	0	778	1	4	0	48	57	0	0	100
fixed	2	5	10	263959	1	4	4	1	0	706	1	4	0	64	58	0	0	100
fixed	2	5	11	265484	5	2	2	1	0	809	1	4	0	48	59	0	0	100
fixed	2	5	12	266777	4	3	3	1	0	731	1	4	0	56	60	0	0	100
fixed	2	6	1	268737	4	1	1	1	0	703	1	4	0	40	61	0	0	100
fixed	2	6	2	270201	1	2	2	1	0	738	1	4	0	48	62	0	0	100
fixed	2	6	3	271868	6	4	4	1	0	891	1	4	0	64	63	0	0	100
fixed	2	6	4	273765	2	1	1	1	0	562	1	4	0	40	64	0	0	100
fixed	2	6	5	274662	5	3	3	1	0	749	1	4	0	56	65	0	0	100
fixed	2	6	6	276224	6	4	4	1	0	706	1	4	0	64	66	0	0	100
fixed	2	6	7	277650	3	1	1	1	0	598	1	4	0	40	67	0	0	100
fixed	2	6	8	278676	2	3	3	1	0	810	1	4	0	56	68	0	0	100
fixed	2	6	9	279813	3	2	2	1	0	730	1	4	0	48	69	0	0	100
fixed	2	6	10	280937	1	4	4	1	0	611	1	4	0	64	70	0	0	100
fixed	2	6	11	281842	5	2	2	1	0	965	1	4	0	48	71	0	0	100
fixed	2	6	12	283637	4	3	3	1	0	720	1	4	0	56	72	0	0	100
fixed	2	7	1	285378	4	1	1	1	0	543	1	4	0	40	73	0	0	100
fixed	2	7	2	286899	1	2	2	1	0	790	1	4	0	48	74	0	0	100
fixed	2	7	3	288570	6	4	4	1	0	775	1	4	0	64	75	0	0	100
fixed	2	7	4	290096	2	1	1	1	0	663	1	4	0	40	76	0	0	100
fixed	2	7	5	291717	5	3	3	1	0	898	1	4	0	56	77	0	0	100
fixed	2	7	6	293226	6	4	4	1	0	691	1	4	0	64	78	0	0	100
fixed	2	7	7	294819	3	1	1	1	0	655	1	4	0	40	79	0	0	100
fixed	2	7	8	295890	2	3	3	1	0	810	1	4	0	56	80	0	0	100
fixed	2	7	9	297302	3	2	2	1	0	526	1	4	0	48	81	0	0	100
fixed	2	7	10	298385	1	4	4	1	0	728	1	4	0	64	82	0	0	100
fixed	2	7	11	299913	5	2	2	1	0	759	1	4	0	48	83	0	0	100
fixed	2	7	12	301664	4	3	3	1	0	1093	1	4	0	56	84	0	0	100
fixed	2	8	1	303873	4	1	1	1	0	775	1	4	0	40	85	0	0	100
fixed	2	8	2	305467	1	2	2	1	0	892	1	4	0	48	86	0	0	100
fixed	2	8	3	307376	6	4	4	1	0	723	1	4	0	64	87	0	0	100
fixed	2	8	4	308442	2	1	1	1	0	854	1	4	0	40	88	0	0	100
fixed	2	8	5	309592	5	3	3	1	0	901	1	4	0	56	89	0	0	100
fixed	2	8	6	310921	6	4	4	1	0	741	1	4	0	64	90	0	0	100
fixed	2	8	7	312539	3	1	1	1	0	593	1	4	0	40	91	0	0	100
fixed	2	8	8	313685	2	3	3	1	0	856	1	4	0	56	92	0	0	100
fixed	2	8	9	314839	3	2	2	1	0	607	1	4	0	48	93	0	0	100
fixed	2	8	10	315788	1	4	4	1	0	599	1	4	0	64	94	0	0	100
fixed	2	8	11	317314	5	2	2	1	0	790	1	4	0	48	95	0	0	100
fixed	2	8	12	318883	4	3	3	1	0	820	1	4	0	56	96	0	0	100
fixed	2	9	1	320497	4	1	1	1	0	663	1	4	0	40	97	0	0	100
fixed	2	9	2	321868	1	2	2	1	0	965	1	4	0	48	98	0	0	100
fixed	2	9	3	323393	6	4	4	1	0	813	1	4	0	64	99	0	0	100
fixed	2	9	4	325175	2	1	1	1	0	753	1	4	0	40	100	0	0	100
fixed	2	9	5	326789	5	3	3	1	0	805	1	4	0	56	101	0	0	100
fixed	2	9	6	328313	6	4	4	1	0	749	1	4	0	64	102	0	0	100
fixed	2	9	7	329745	3	1	1	1	0	616	1	4	0	40	103	0	0	100
fixed	2	9	8	330973	2	3	3	1	0	891	1	4	0	56	104	0	0	100
fixed	2	9	9	332675	3	2	2	1	0	483	1	4	0	48	105	0	0	100
fixed	2	9	10	333857	1	4	4	1	0	946	1	4	0	64	106	0	0	100
fixed	2	9	11	335555	5	2	2	1	0	746	1	4	0	48	107	0	0	100
fixed	2	9	12	337256	4	3	3	1	0	1017	1	4	0	56	108	0	0	100
fixed	2	10	1	339394	4	1	1	1	0	599	1	4	0	40	109	0	0	100
fixed	2	10	2	340872	1	2	2	1	0	912	1	4	0	48	110	0	0	100
fixed	2	10	3	342155	6	4	4	1	0	746	1	4	0	64	111	0	0	100
fixed	2	10	4	343213	2	1	1	1	0	733	1	4	0	40	112	0	0	100
fixed	2	10	5	344895	5	3	3	1	0	854	1	4	0	56	113	0	0	100
fixed	2	10	6	346360	6	4	4	1	0	656	1	4	0	64	114	0	0	100
fixed	2	10	7	347452	3	1	1	1	0	874	1	4	0	40	115	0	0	100
fixed	2	10	8	348639	2	3	3	1	0	791	1	4	0	56	116	0	0	100
fixed	2	10	9	350184	3	2	2	1	0	710	1	4	0	48	117	0	0	100
fixed	2	10	10	351405	1	4	4	1	0	650	1	4	0	64	118	0	0	100
fixed	2	10	11	352371	5	2	2	1	0	842	1	4	0	48	119	0	0	100
fixed	2	10	12	353508	4	3	3	1	0	825	1	4	0	56	120	0	0	100
fixed	3	1	1	355280	4	1	1	1	0	550	1	4	0	72	1	0	0	100
fixed	3	1	2	356230	1	2	2	1	0	870	1	4	0	80	2	0	0	100
fixed	3	1	3	357574	6	4	4	1	0	765	1	4	0	96	3	0	0	100
fixed	3	1	4	359177	2	1	1	1	0	641	1	4	0	72	4	0	0	100
fixed	3	1	5	360642	5	3	3	1	0	635	1	4	0	88	5	0	0	100
fixed	3	1	6	361773	6	4	4	1	0	731	1	4	0	96	6	0	0	100
fixed	3	1	7	362841	3	1	1	1	0	822	1	4	0	72	7	0	0	100
fixed	3	1	8	364252	2	3	3	1	0	754	1	4	0	88	8	0	0	100
fixed	3	1	9	365871	3	2	2	1	0	670	1	4	0	80	9	0	0	100
fixed	3	1	10	367564	1	4	4	1	0	798	1	4	0	96	10	0	0	100
fixed	3	1	11	368964	5	2	2	1	0	778	1	4	0	80	11	0	0	100
fixed	3	1	12	370572	4	3	3	1	0	862	1	4	0	88	12	0	0	100
fixed	3	2	1	372140	4	1	1	1	0	668	1	4	0	72	13	0	0	100
fixed	3	2	2	373728	1	2	2	1	0	753	1	4	0	80	14	0	0	100
fixed	3	2	3	374938	6	4	4	1	0	718	1	4	0	96	15	0	0	100
fixed	3	2	4	376121	2	1	1	1	0	707	1	4	0	72	16	0	0	100
fixed	3	2	5	377646	5	3	3	1	0	699	1	4	0	88	17	0	0	100
fixed	3	2	6	379278	6	4	4	1	0	670	1	4	0	96	18	0	0	100
fixed	3	2	7	380350	3	1	1	1	0	768	1	4	0	72	19	0	0	100
fixed	3	2	8	381793	2	3	3	1	0	787	1	4	0	88	20	0	0	100
fixed	3	2	9	383447	3	2	2	1	0	477	1	4	0	80	21	0	0	100
fixed	3	2	10	384278	1	4	4	1	0	610	1	4	0	96	22	0	0	100
fixed	3	2	11	385770	5	2	2	1	0	755	1	4	0	80	23	0	0	100
fixed	3	2	12	387358	4	3	3	1	0	896	1	4	0	88	24	0	0	100
fixed	3	3	1	389032	4	1	1	1	0	672	1	4	0	72	25	0	0	100
fixed	3	3	2	390559	1	2	2	1	0	832	1	4	0	80	26	0	0	100
fixed	3	3	3	392027	6	4	4	1	0	1122	1	4	0	96	27	0	0	100
fixed	3	3	4	394169	2	1	1	1	0	591	1	4	0	72	28	0	0	100
fixed	3	3	5	395335	5	3	3	1	0	757	1	4	0	88	29	0	0	100
fixed	3	3	6	397046	6	4	4	1	0	661	1	4	0	96	30	0	0	100
fixed	3	3	7	398282	3	1	1	1	0	905	1	4	0	72	31	0	0	100
fixed	3	3	8	399564	2	3	3	1	0	970	1	4	0	88	32	0	0	100
fixed	3	3	9	401003	3	2	2	1	0	654	1	4	0	80	33	0	0	100
fixed	3	3	10	402421	1	4	4	1	0	497	1	4	0	96	34	0	0	100
fixed	3	3	11	403878	5	2	2	1	0	676	1	4	0	80	35	0	0	100
fixed	3	3	12	405336	4	3	3	1	0	806	1	4	0	88	36	0	0	100
fixed	3	4	1	407394	4	1	1	1	0	543	1	4	0	72	37	0	0	100
fixed	3	4	2	408632	1	2	2	1	0	1082	1	4	0	80	38	0	0	100
fixed	3	4	3	410366	6	4	4	1	0	665	1	4	0	96	39	0	0	100
fixed	3	4	4	411347	2	1	1	1	0	760	1	4	0	72	40	0	0	100
fixed	3	4	5	412934	5	3	3	1	0	788	1	4	0	88	41	0	0	100
fixed	3	4	6	414129	6	4	4	1	0	697	1	4	0	96	42	0	0	100
fixed	3	4	7	415839	3	1	1	1	0	625	1	4	0	72	43	0	0	100
fixed	3	4	8	417358	2	3	3	1	0	841	1	4	0	88	44	0	0	100
fixed	3	4	9	418934	3	2	2	1	0	422	1	4	0	80	45	0	0	100
fixed	3	4	10	419826	1	4	4	1	0	648	1	4	0	96	46	0	0	100
fixed	3	4	11	421362	5	2	2	1	0	815	1	4	0	80	47	0	0	100
fixed	3	4	12	423141	4	3	3	1	0	876	1	4	0	88	48	0	0	100
fixed	3	5	1	424753	4	1	1	1	0	631	1	4	0	72	49	0	0	100
fixed	3	5	2	425988	1	2	2	1	0	907	1	4	0	80	50	0	0	100
fixed	3	5	3	427370	6	4	4	1	0	681	1	4	0	96	51	0	0	100
fixed	3	5	4	428420	2	1	1	1	0	868	1	4	0	72	52	0	0	100
fixed	3	5	5	429597	5	3	3	1	0	858	1	4	0	88	53	0	0	100
fixed	3	5	6	431305	6	4	4	1	0	762	1	4	0	96	54	0	0	100
fixed	3	5	7	433040	3	1	1	1	0	1016	1	4	0	72	55	0	0	100
fixed	3	5	8	434748	2	3	3	1	0	848	1	4	0	88	56	0	0	100
fixed	3	5	9	436110	3	2	2	1	0	735	1	4	0	80	57	0	0	100
fixed	3	5	10	437672	1	4	4	1	0	708	1	4	0	96	58	0	0	100
fixed	3	5	11	439330	5	2	2	1	0	726	1	4	0	80	59	0	0	100
fixed	3	5	12	440758	4	3	3	1	0	673	1	4	0	88	60	0	0	100
fixed	3	6	1	442196	4	1	1	1	0	660	1	4	0	72	61	0	0	100
fixed	3	6	2	443475	1	2	2	1	0	983	1	4	0	80	62	0	0	100
fixed	3	6	3	445441	6	4	4	1	0	691	1	4	0	96	63	0	0	100
fixed	3	6	4	446545	2	1	1	1	0	676	1	4	0	72	64	0	0	100
fixed	3	6	5	448064	5	3	3	1	0	804	1	4	0	88	65	0	0	100
fixed	3	6	6	449728	6	4	4	1	0	638	1	4	0	96	66	0	0	100
fixed	3	6	7	450992	3	1	1	1	0	624	1	4	0	72	67	0	0	100
fixed	3	6	8	452118	2	3	3	1	0	656	1	4	0	88	68	0	0	100
fixed	3	6	9	453365	3	2	2	1	0	468	1	4	0	80	69	0	0	100
fixed	3	6	10	454329	1	4	4	1	0	619	1	4	0	96	70	0	0	100
fixed	3	6	11	455927	5	2	2	1	0	1087	1	4	0	80	71	0	0	100
fixed	3	6	12	457946	4	3	3	2	0	874	2	4	0	88	72	0	0	100
fixed	3	7	1	459538	4	1	1	1	0	758	1	4	0	72	73	0	0	100
fixed	3	7	2	461254	1	2	2	1	0	886	1	4	0	80	74	0	0	100
fixed	3	7	3	462850	6	4	4	1	0	698	1	4	0	96	75	0	0	100
fixed	3	7	4	464418	2	1	1	1	0	711	1	4	0	72	76	0	0	100
fixed	3	7	5	465507	5	3	3	1	0	1105	1	4	0	88	77	0	0	100
fixed	3	7	6	467548	6	4	4	1	0	675	1	4	0	96	78	0	0	100
fixed	3	7	7	468574	3	1	1	1	0	1007	1	4	0	72	79	0	0	100
fixed	3	7	8	470628	2	3	3	1	0	817	1	4	0	88	80	0	0	100
fixed	3	7	9	471833	3	2	2	1	0	757	1	4	0	80	81	0	0	100
fixed	3	7	10	473084	1	4	4	1	0	561	1	4	0	96	82	0	0	100
fixed	3	7	11	474558	5	2	2	1	0	858	1	4	0	80	83	0	0	100
fixed	3	7	12	475757	4	3	3	1	0	831	1	4	0	88	84	0	0	100
fixed	3	8	1	477549	4	1	1	1	0	506	1	4	0	72	85	0	0	100
fixed	3	8	2	478922	1	2	2	1	0	825	1	4	0	80	86	0	0	100
fixed	3	8	3	480433	6	4	4	1	0	697	1	4	0	96	87	0	0	100
fixed	3	8	4	482098	2	1	1	1	0	635	1	4	0	72	88	0	0	100
fixed	3	8	5	483283	5	3	3	1	0	768	1	4	0	88	89	0	0	100
fixed	3	8	6	484474	6	4	4	1	0	854	1	4	0	96	90	0	0	100
fixed	3	8	7	486060	3	1	1	1	0	755	1	4	0	72	91	0	0	100
fixed	3	8	8	487767	2	3	3	1	0	803	1	4	0	88	92	0	0	100
fixed	3	8	9	489182	3	2	2	1	0	591	1	4	0	80	93	0	0	100
fixed	3	8	10	490186	1	4	4	1	0	652	1	4	0	96	94	0	0	100
fixed	3	8	11	491320	5	2	2	1	0	748	1	4	0	80	95	0	0	100
fixed	3	8	12	492392	4	3	3	1	0	879	1	4	0	88	96	0	0	100
fixed	3	9	1	494240	4	1	1	1	0	608	1	4	0	72	97	0	0	100
fixed	3	9	2	495473	1	2	2	1	0	940	1	4	0	80	98	0	0	100
fixed	3	9	3	497383	6	4	4	1	0	1171	1	4	0	96	99	0	0	100
fixed	3	9	4	499285	2	1	1	1	0	794	1	4	0	72	100	0	0	100
fixed	3	9	5	500411	5	3	3	1	0	771	1	4	0	88	101	0	0	100
fixed	3	9	6	501696	6	4	4	1	0	636	1	4	0	96	102	0	0	100
fixed	3	9	7	502720	3	1	1	1	0	761	1	4	0	72	103	0	0	100
fixed	3	9	8	504286	2	3	3	1	0	775	1	4	0	88	104	0	0	100
fixed	3	9	9	505616	3	2	2	1	0	534	1	4	0	80	105	0	0	100
fixed	3	9	10	506627	1	4	4	1	0	780	1	4	0	96	106	0	0	100
fixed	3	9	11	508044	5	2	2	1	0	696	1	4	0	80	107	0	0	100
fixed	3	9	12	509416	4	3	3	1	0	734	1	4	0	88	108	0	0	100
fixed	3	10	1	511198	4	1	1	1	0	570	1	4	0	72	109	0	0	100
fixed	3	10	2	512243	1	2	2	1	0	1062	1	4	0	80	110	0	0	100
fixed	3	10	3	514097	6	4	4	1	0	655	1	4	0	96	111	0	0	100
fixed	3	10	4	515581	2	1	1	1	0	600	1	4	0	72	112	0	0	100
fixed	3	10	5	516803	5	3	3	1	0	669	1	4	0	88	113	0	0	100
fixed	3	10	6	518063	6	4	4	1	0	599	1	4	0	96	114	0	0	100
fixed	3	10	7	519422	3	1	1	1	0	662	1	4	0	72	115	0	0	100
fixed	3	10	8	520795	2	3	3	1	0	836	1	4	0	88	116	0	0	100
fixed	3	10	9	522574	3	2	2	1	0	672	1	4	0	80	117	0	0	100
fixed	3	10	10	523831	1	4	4	1	0	563	1	4	0	96	118	0	0	100
fixed	3	10	11	525182	5	2	2	1	0	682	1	4	0	80	119	0	0	100
fixed	3	10	12	526848	4	3	3	1	0	923	1	4	0	88	120	0	0	100
fixed	4	1	1	682383	4	1	1	1	0	719	1	4	0	104	1	0	0	100
fixed	4	1	2	683606	1	2	2	1	0	963	1	4	0	112	2	0	0	100
fixed	4	1	3	685416	6	4	4	1	0	519	1	4	0	128	3	0	0	100
fixed	4	1	4	686958	2	1	1	1	0	678	1	4	0	104	4	0	0	100
fixed	4	1	5	688117	5	3	3	1	0	932	1	4	0	120	5	0	0	100
fixed	4	1	6	689375	6	4	4	1	0	735	1	4	0	128	6	0	0	100
fixed	4	1	7	690880	3	1	1	1	0	696	1	4	0	104	7	0	0	100
fixed	4	1	8	691881	2	3	3	1	0	869	1	4	0	120	8	0	0	100
fixed	4	1	9	693450	3	2	2	1	0	539	1	4	0	112	9	0	0	100
fixed	4	1	10	694842	1	4	4	1	0	720	1	4	0	128	10	0	0	100
fixed	4	1	11	696125	5	2	2	1	0	849	1	4	0	112	11	0	0	100
fixed	4	1	12	697836	4	3	3	1	0	881	1	4	0	120	12	0	0	100
fixed	4	2	1	699310	4	1	1	1	0	658	1	4	0	104	13	0	0	100
fixed	4	2	2	700788	1	2	2	1	0	1060	1	4	0	112	14	0	0	100
fixed	4	2	3	702259	6	4	4	1	0	718	1	4	0	128	15	0	0	100
fixed	4	2	4	703397	2	1	1	1	0	702	1	4	0	104	16	0	0	100
fixed	4	2	5	704559	5	3	3	1	0	756	1	4	0	120	17	0	0	100
fixed	4	2	6	705790	6	4	4	1	0	840	1	4	0	128	18	0	0	100
fixed	4	2	7	707560	3	1	1	1	0	621	1	4	0	104	19	0	0	100
fixed	4	2	8	708583	2	3	3	1	0	809	1	4	0	120	20	0	0	100
fixed	4	2	9	710322	3	2	2	1	0	680	1	4	0	112	21	0	0	100
fixed	4	2	10	711580	1	4	4	1	0	611	1	4	0	128	22	0	0	100
fixed	4	2	11	712648	5	2	2	1	0	861	1	4	0	112	23	0	0	100
fixed	4	2	12	714021	4	3	3	1	0	811	1	4	0	120	24	0	0	100
fixed	4	3	1	715683	4	1	1	1	0	685	1	4	0	104	25	0	0	100
fixed	4	3	2	717355	1	2	2	1	0	894	1	4	0	112	26	0	0	100
fixed	4	3	3	718891	6	4	4	1	0	621	1	4	0	128	27	0	0	100
fixed	4	3	4	720399	2	1	1	1	0	717	1	4	0	104	28	0	0	100
fixed	4	3	5	721545	5	3	3	1	0	812	1	4	0	120	29	0	0	100
fixed	4	3	6	723087	6	4	4	1	0	667	1	4	0	128	30	0	0	100
fixed	4	3	7	724755	3	1	1	1	0	588	1	4	0	104	31	0	0	100
fixed	4	3	8	725660	2	3	3	1	0	814	1	4	0	120	32	0	0	100
fixed	4	3	9	726804	3	2	2	1	0	542	1	4	0	112	33	0	0	100
fixed	4	3	10	728086	1	4	4	1	0	816	1	4	0	128	34	0	0	100
fixed	4	3	11	729242	5	2	2	1	0	735	1	4	0	112	35	0	0	100
fixed	4	3	12	730578	4	3	3	1	0	750	1	4	0	120	36	0	0	100
fixed	4	4	1	732425	4	1	1	1	0	632	1	4	0	104	37	0	0	100
fixed	4	4	2	733871	1	2	2	1	0	1147	1	4	0	112	38	0	0	100
fixed	4	4	3	735388	6	4	4	1	0	706	1	4	0	128	39	0	0	100
fixed	4	4	4	736822	2	1	1	1	0	678	1	4	0	104	40	0	0	100
fixed	4	4	5	738193	5	3	3	1	0	811	1	4	0	120	41	0	0	100
fixed	4	4	6	739987	6	4	4	1	0	600	1	4	0	128	42	0	0	100
fixed	4	4	7	741569	3	1	1	1	0	701	1	4	0	104	43	0	0	100
fixed	4	4	8	743241	2	3	3	1	0	750	1	4	0	120	44	0	0	100
fixed	4	4	9	744746	3	2	2	1	0	670	1	4	0	112	45	0	0	100
fixed	4	4	10	746050	1	4	4	1	0	551	1	4	0	128	46	0	0	100
fixed	4	4	11	746931	5	2	2	1	0	713	1	4	0	112	47	0	0	100
fixed	4	4	12	748270	4	3	3	1	0	633	1	4	0	120	48	0	0	100
fixed	4	5	1	749550	4	1	1	1	0	514	1	4	0	104	49	0	0	100
fixed	4	5	2	750530	1	2	2	1	0	849	1	4	0	112	50	0	0	100
fixed	4	5	3	752046	6	4	4	1	0	609	1	4	0	128	51	0	0	100
fixed	4	5	4	753203	2	1	1	1	0	656	1	4	0	104	52	0	0	100
fixed	4	5	5	754782	5	3	3	1	0	853	1	4	0	120	53	0	0	100
fixed	4	5	6	756113	6	4	4	1	0	644	1	4	0	128	54	0	0	100
fixed	4	5	7	757324	3	1	1	1	0	905	1	4	0	104	55	0	0	100
fixed	4	5	8	758540	2	3	3	1	0	1070	1	4	0	120	56	0	0	100
fixed	4	5	9	760410	3	2	2	1	0	526	1	4	0	112	57	0	0	100
fixed	4	5	10	761613	1	4	4	1	0	579	1	4	0	128	58	0	0	100
fixed	4	5	11	763105	5	2	2	1	0	660	1	4	0	112	59	0	0	100
fixed	4	5	12	764720	4	3	3	1	0	720	1	4	0	120	60	0	0	100
fixed	4	6	1	766274	4	1	1	1	0	862	1	4	0	104	61	0	0	100
fixed	4	6	2	767595	1	2	2	1	0	1030	1	4	0	112	62	0	0	100
fixed	4	6	3	769502	6	4	4	1	0	645	1	4	0	128	63	0	0	100
fixed	4	6	4	770816	2	1	1	1	0	701	1	4	0	104	64	0	0	100
fixed	4	6	5	771888	5	3	3	1	0	904	1	4	0	120	65	0	0	100
fixed	4	6	6	773521	6	4	4	1	0	803	1	4	0	128	66	0	0	100
fixed	4	6	7	775031	3	1	1	1	0	707	1	4	0	104	67	0	0	100
fixed	4	6	8	776518	2	3	3	1	0	796	1	4	0	120	68	0	0	100
fixed	4	6	9	778184	3	2	2	1	0	509	1	4	0	112	69	0	0	100
fixed	4	6	10	779642	1	4	4	1	0	528	1	4	0	128	70	0	0	100
fixed	4	6	11	780742	5	2	2	1	0	673	1	4	0	112	71	0	0	100
fixed	4	6	12	782128	4	3	3	1	0	830	1	4	0	120	72	0	0	100
fixed	4	7	1	783550	4	1	1	1	0	642	1	4	0	104	73	0	0	100
fixed	4	7	2	784769	1	2	2	1	0	727	1	4	0	112	74	0	0	100
fixed	4	7	3	786435	6	4	4	1	0	576	1	4	0	128	75	0	0	100
fixed	4	7	4	787915	2	1	1	1	0	689	1	4	0	104	76	0	0	100
fixed	4	7	5	789012	5	3	3	1	0	795	1	4	0	120	77	0	0	100
fixed	4	7	6	790472	6	4	4	1	0	517	1	4	0	128	78	0	0	100
fixed	4	7	7	791360	3	1	1	1	0	944	1	4	0	104	79	0	0	100
fixed	4	7	8	793088	2	3	3	1	0	774	1	4	0	120	80	0	0	100
fixed	4	7	9	794163	3	2	2	1	0	705	1	4	0	112	81	0	0	100
fixed	4	7	10	795824	1	4	4	1	0	827	1	4	0	128	82	0	0	100
fixed	4	7	11	796944	5	2	2	1	0	843	1	4	0	112	83	0	0	100
fixed	4	7	12	798247	4	3	3	1	0	788	1	4	0	120	84	0	0	100
fixed	4	8	1	800241	4	1	1	1	0	575	1	4	0	104	85	0	0	100
fixed	4	8	2	801422	1	2	2	1	0	790	1	4	0	112	86	0	0	100
fixed	4	8	3	802889	6	4	4	1	0	671	1	4	0	128	87	0	0	100
fixed	4	8	4	804254	2	1	1	1	0	653	1	4	0	104	88	0	0	100
fixed	4	8	5	805870	5	3	3	1	0	817	1	4	0	120	89	0	0	100
fixed	4	8	6	807325	6	4	4	1	0	635	1	4	0	128	90	0	0	100
fixed	4	8	7	808610	3	1	1	1	0	589	1	4	0	104	91	0	0	100
fixed	4	8	8	810165	2	3	3	1	0	811	1	4	0	120	92	0	0	100
fixed	4	8	9	811428	3	2	2	1	0	686	1	4	0	112	93	0	0	100
fixed	4	8	10	812509	1	4	4	1	0	680	1	4	0	128	94	0	0	100
fixed	4	8	11	813780	5	2	2	1	0	682	1	4	0	112	95	0	0	100
fixed	4	8	12	815322	4	3	3	1	0	873	1	4	0	120	96	0	0	100
fixed	4	9	1	817299	4	1	1	1	0	845	1	4	0	104	97	0	0	100
fixed	4	9	2	818760	1	2	2	1	0	1343	1	4	0	112	98	0	0	100
fixed	4	9	3	820802	6	4	4	1	0	649	1	4	0	128	99	0	0	100
fixed	4	9	4	821785	2	1	1	1	0	751	1	4	0	104	100	0	0	100
fixed	4	9	5	823215	5	3	3	1	0	906	1	4	0	120	101	0	0	100
fixed	4	9	6	825112	6	4	4	1	0	674	1	4	0	128	102	0	0	100
fixed	4	9	7	826154	3	1	1	1	0	814	1	4	0	104	103	0	0	100
fixed	4	9	8	827636	2	3	3	1	0	735	1	4	0	120	104	0	0	100
fixed	4	9	9	828758	3	2	2	1	0	687	1	4	0	112	105	0	0	100
fixed	4	9	10	830269	1	4	4	1	0	640	1	4	0	128	106	0	0	100
fixed	4	9	11	831274	5	2	2	1	0	733	1	4	0	112	107	0	0	100
fixed	4	9	12	832315	4	3	3	1	0	1009	1	4	0	120	108	0	0	100
fixed	4	10	1	834592	4	1	1	1	0	656	1	4	0	104	109	0	0	100
fixed	4	10	2	835614	1	2	2	1	0	1453	1	4	0	112	110	0	0	100
fixed	4	10	3	837422	6	4	4	1	0	897	1	4	0	128	111	0	0	100
fixed	4	10	4	839176	2	1	1	1	0	990	1	4	0	104	112	0	0	100
fixed	4	10	5	840864	5	3	3	1	0	791	1	4	0	120	113	0	0	100
fixed	4	10	6	842506	6	4	4	1	0	602	1	4	0	128	114	0	0	100
fixed	4	10	7	843507	3	1	1	1	0	831	1	4	0	104	115	0	0	100
fixed	4	10	8	844620	2	3	3	1	0	872	1	4	0	120	116	0	0	100
fixed	4	10	9	846134	3	2	2	1	0	519	1	4	0	112	117	0	0	100
fixed	4	10	10	847241	1	4	4	1	0	697	1	4	0	128	118	0	0	100
fixed	4	10	11	848372	5	2	2	1	0	969	1	4	0	112	119	0	0	100
fixed	4	10	12	850353	4	3	3	1	0	893	1	4	0	120	120	0	0	100
fixed	5	1	1	852534	4	1	1	1	0	440	1	4	0	136	1	0	0	100
fixed	5	1	2	853710	1	2	2	1	0	879	1	4	0	144	2	0	0	100
fixed	5	1	3	855602	6	4	4	1	0	535	1	4	0	160	3	0	0	100
fixed	5	1	4	857025	2	1	1	1	0	731	1	4	0	136	4	0	0	100
fixed	5	1	5	858166	5	3	3	1	0	818	1	4	0	152	5	0	0	100
fixed	5	1	6	859284	6	4	4	1	0	778	1	4	0	160	6	0	0	100
fixed	5	1	7	861018	3	1	1	1	0	705	1	4	0	136	7	0	0	100
fixed	5	1	8	862067	2	3	3	1	0	973	1	4	0	152	8	0	0	100
fixed	5	1	9	863612	3	2	2	1	0	643	1	4	0	144	9	0	0	100
fixed	5	1	10	864922	1	4	4	1	0	564	1	4	0	160	10	0	0	100
fixed	5	1	11	866326	5	2	2	1	0	592	1	4	0	144	11	0	0	100
fixed	5	1	12	867344	4	3	3	1	0	925	1	4	0	152	12	0	0	100
fixed	5	2	1	869127	4	1	1	1	0	609	1	4	0	136	13	0	0	100
fixed	5	2	2	870285	1	2	2	1	0	905	1	4	0	144	14	0	0	100
fixed	5	2	3	871746	6	4	4	1	0	467	1	4	0	160	15	0	0	100
fixed	5	2	4	872723	2	1	1	1	0	665	1	4	0	136	16	0	0	100
fixed	5	2	5	874407	5	3	3	1	0	1154	1	4	0	152	17	0	0	100
fixed	5	2	6	876509	6	4	4	1	0	665	1	4	0	160	18	0	0	100
fixed	5	2	7	877587	3	1	1	1	0	731	1	4	0	136	19	0	0	100
fixed	5	2	8	879270	2	3	3	1	0	1028	1	4	0	152	20	0	0	100
fixed	5	2	9	880975	3	2	2	1	0	548	1	4	0	144	21	0	0	100
fixed	5	2	10	882009	1	4	4	2	0	1216	2	4	0	160	22	0	0	100
fixed	5	2	11	883612	5	2	2	1	0	788	1	4	0	144	23	0	0	100
fixed	5	2	12	884779	4	3	3	1	0	947	1	4	0	152	24	0	0	100
fixed	5	3	1	886386	4	1	1	1	0	566	1	4	0	136	25	0	0	100
fixed	5	3	2	887833	1	2	2	1	0	986	1	4	0	144	26	0	0	100
fixed	5	3	3	889523	6	4	4	1	0	906	1	4	0	160	27	0	0	100
fixed	5	3	4	891302	2	1	1	1	0	878	1	4	0	136	28	0	0	100
fixed	5	3	5	893134	5	3	3	1	0	961	1	4	0	152	29	0	0	100
fixed	5	3	6	894440	6	4	4	1	0	737	1	4	0	160	30	0	0	100
fixed	5	3	7	895613	3	1	1	1	0	720	1	4	0	136	31	0	0	100
fixed	5	3	8	897299	2	3	3	1	0	792	1	4	0	152	32	0	0	100
fixed	5	3	9	899083	3	2	2	1	0	837	1	4	0	144	33	0	0	100
fixed	5	3	10	900365	1	4	4	1	0	703	1	4	0	160	34	0	0	100
fixed	5	3	11	901513	5	2	2	1	0	846	1	4	0	144	35	0	0	100
fixed	5	3	12	903227	4	3	3	1	0	845	1	4	0	152	36	0	0	100
fixed	5	4	1	905366	4	1	1	1	0	931	1	4	0	136	37	0	0	100
fixed	5	4	2	907212	1	2	2	1	0	773	1	4	0	144	38	0	0	100
fixed	5	4	3	908779	6	4	4	1	0	866	1	4	0	160	39	0	0	100
fixed	5	4	4	910420	2	1	1	1	0	749	1	4	0	136	40	0	0	100
fixed	5	4	5	911473	5	3	3	1	0	872	1	4	0	152	41	0	0	100
fixed	5	4	6	912847	6	4	4	1	0	726	1	4	0	160	42	0	0	100
fixed	5	4	7	913984	3	1	1	1	0	749	1	4	0	136	43	0	0	100
fixed	5	4	8	915697	2	3	3	1	0	757	1	4	0	152	44	0	0	100
fixed	5	4	9	917488	3	2	2	1	0	602	1	4	0	144	45	0	0	100
fixed	5	4	10	918766	1	4	4	1	0	619	1	4	0	160	46	0	0	100
fixed	5	4	11	920209	5	2	2	1	0	782	1	4	0	144	47	0	0	100
fixed	5	4	12	921964	4	3	3	1	0	572	1	4	0	152	48	0	0	100
fixed	5	5	1	923761	4	1	1	1	0	663	1	4	0	136	49	0	0	100
fixed	5	5	2	924878	1	2	2	1	0	1144	1	4	0	144	50	0	0	100
fixed	5	5	3	926992	6	4	4	1	0	495	1	4	0	160	51	0	0	100
fixed	5	5	4	928171	2	1	1	1	0	781	1	4	0	136	52	0	0	100
fixed	5	5	5	929259	5	3	3	1	0	983	1	4	0	152	53	0	0	100
fixed	5	5	6	930549	6	4	4	1	0	904	1	4	0	160	54	0	0	100
fixed	5	5	7	932050	3	1	1	1	0	744	1	4	0	136	55	0	0	100
fixed	5	5	8	933816	2	3	3	1	0	782	1	4	0	152	56	0	0	100
fixed	5	5	9	935415	3	2	2	1	0	746	1	4	0	144	57	0	0	100
fixed	5	5	10	936774	1	4	4	1	0	600	1	4	0	160	58	0	0	100
fixed	5	5	11	937856	5	2	2	1	0	931	1	4	0	144	59	0	0	100
fixed	5	5	12	939267	4	3	3	1	0	607	1	4	0	152	60	0	0	100
fixed	5	6	1	940853	4	1	1	1	0	483	1	4	0	136	61	0	0	100
fixed	5	6	2	941771	1	2	2	1	0	981	1	4	0	144	62	0	0	100
fixed	5	6	3	943552	6	4	4	1	0	482	1	4	0	160	63	0	0	100
fixed	5	6	4	944903	2	1	1	1	0	792	1	4	0	136	64	0	0	100
fixed	5	6	5	946100	5	3	3	1	0	869	1	4	0	152	65	0	0	100
fixed	5	6	6	947886	6	4	4	1	0	746	1	4	0	160	66	0	0	100
fixed	5	6	7	949486	3	1	1	1	0	742	1	4	0	136	67	0	0	100
fixed	5	6	8	951110	2	3	3	1	0	833	1	4	0	152	68	0	0	100
fixed	5	6	9	952274	3	2	2	1	0	832	1	4	0	144	69	0	0	100
fixed	5	6	10	953935	1	4	4	1	0	393	1	4	0	160	70	0	0	100
fixed	5	6	11	954646	5	2	2	1	0	852	1	4	0	144	71	0	0	100
fixed	5	6	12	956470	4	3	3	1	0	663	1	4	0	152	72	0	0	100
fixed	5	7	1	957761	4	1	1	1	0	543	1	4	0	136	73	0	0	100
fixed	5	7	2	959077	1	2	2	1	0	1376	1	4	0	144	74	0	0	100
fixed	5	7	3	961337	6	4	4	1	0	688	1	4	0	160	75	0	0	100
fixed	5	7	4	962480	2	1	1	1	0	832	1	4	0	136	76	0	0	100
fixed	5	7	5	963627	5	3	3	1	0	1095	1	4	0	152	77	0	0	100
fixed	5	7	6	965016	6	4	4	1	0	796	1	4	0	160	78	0	0	100
fixed	5	7	7	966358	3	1	1	1	0	820	1	4	0	136	79	0	0	100
fixed	5	7	8	968106	2	3	3	1	0	809	1	4	0	152	80	0	0	100
fixed	5	7	9	969940	3	2	2	1	0	675	1	4	0	144	81	0	0	100
fixed	5	7	10	971627	1	4	4	1	0	524	1	4	0	160	82	0	0	100
fixed	5	7	11	972891	5	2	2	1	0	687	1	4	0	144	83	0	0	100
fixed	5	7	12	973883	4	3	3	1	0	604	1	4	0	152	84	0	0	100
fixed	5	8	1	975488	4	1	1	1	0	369	1	4	0	136	85	0	0	100
fixed	5	8	2	976342	1	2	2	1	0	844	1	4	0	144	86	0	0	100
fixed	5	8	3	977755	6	4	4	1	0	745	1	4	0	160	87	0	0	100
fixed	5	8	4	978796	2	1	1	1	0	716	1	4	0	136	88	0	0	100
fixed	5	8	5	979882	5	3	3	1	0	806	1	4	0	152	89	0	0	100
fixed	5	8	6	981529	6	4	4	1	0	489	1	4	0	160	90	0	0	100
fixed	5	8	7	982420	3	1	1	1	0	843	1	4	0	136	91	0	0	100
fixed	5	8	8	983942	2	3	3	1	0	826	1	4	0	152	92	0	0	100
fixed	5	8	9	985771	3	2	2	1	0	709	1	4	0	144	93	0	0	100
fixed	5	8	10	987473	1	4	4	1	0	637	1	4	0	160	94	0	0	100
fixed	5	8	11	988919	5	2	2	1	0	704	1	4	0	144	95	0	0	100
fixed	5	8	12	990658	4	3	3	1	0	630	1	4	0	152	96	0	0	100
fixed	5	9	1	992162	4	1	1	1	0	478	1	4	0	136	97	0	0	100
fixed	5	9	2	993527	1	2	2	1	0	709	1	4	0	144	98	0	0	100
fixed	5	9	3	995109	6	4	4	1	0	714	1	4	0	160	99	0	0	100
fixed	5	9	4	996658	2	1	1	1	0	632	1	4	0	136	100	0	0	100
fixed	5	9	5	997622	5	3	3	1	0	920	1	4	0	152	101	0	0	100
fixed	5	9	6	999328	6	4	4	1	0	575	1	4	0	160	102	0	0	100
fixed	5	9	7	1000904	3	1	1	1	0	772	1	4	0	136	103	0	0	100
fixed	5	9	8	1002306	2	3	3	1	0	1249	1	4	0	152	104	0	0	100
fixed	5	9	9	1004380	3	2	2	1	0	833	1	4	0	144	105	0	0	100
fixed	5	9	10	1005706	1	4	4	1	0	761	1	4	0	160	106	0	0	100
fixed	5	9	11	1007318	5	2	2	1	0	852	1	4	0	144	107	0	0	100
fixed	5	9	12	1008620	4	3	3	1	0	461	1	4	0	152	108	0	0	100
fixed	5	10	1	1010006	4	1	1	1	0	443	1	4	0	136	109	0	0	100
fixed	5	10	2	1010788	1	2	2	1	0	858	1	4	0	144	110	0	0	100
fixed	5	10	3	1012535	6	4	4	1	0	600	1	4	0	160	111	0	0	100
fixed	5	10	4	1013725	2	1	1	1	0	813	1	4	0	136	112	0	0	100
fixed	5	10	5	1014941	5	3	3	1	0	882	1	4	0	152	113	0	0	100
fixed	5	10	6	1016501	6	4	4	1	0	712	1	4	0	160	114	0	0	100
fixed	5	10	7	1017790	3	1	1	1	0	953	1	4	0	136	115	0	0	100
fixed	5	10	8	1019544	2	3	3	1	0	806	1	4	0	152	116	0	0	100
fixed	5	10	9	1021188	3	2	2	1	0	673	1	4	0	144	117	0	0	100
fixed	5	10	10	1022892	1	4	4	1	0	769	1	4	0	160	118	0	0	100
fixed	5	10	11	1024010	5	2	2	2	0	1409	2	4	0	144	119	0	0	100
fixed	5	10	12	1025960	4	3	3	1	0	591	1	4	0	152	120	0	0	100
random	6	1	1	1146271	6	1	1	1	0	959	1	4	0	168	1	0	0	100
random	6	1	2	1147944	4	4	4	1	0	1104	1	4	0	192	2	0	0	100
random	6	1	3	1149573	2	2	2	1	0	891	1	4	0	176	3	0	0	100
random	6	1	4	1151278	3	3	3	1	0	683	1	4	0	184	4	0	0	100
random	6	1	5	1152722	5	2	2	1	0	814	1	4	0	176	5	0	0	100
random	6	1	6	1154245	1	4	4	1	0	693	1	4	0	192	6	0	0	100
random	6	1	7	1155897	6	1	1	1	0	1015	1	4	0	168	7	0	0	100
random	6	1	8	1157714	2	3	3	1	0	995	1	4	0	184	8	0	0	100
random	6	1	9	1159177	4	2	2	1	0	637	1	4	0	176	9	0	0	100
random	6	1	10	1160796	1	1	1	1	0	1104	1	4	0	168	10	0	0	100
random	6	1	11	1162436	5	4	4	1	0	754	1	4	0	192	11	0	0	100
random	6	1	12	1163844	3	3	3	1	0	1735	1	4	0	184	12	0	0	100
random	6	1	13	1166774	5	2	2	1	0	1523	1	4	0	176	13	0	0	100
random	6	1	14	1168824	1	4	4	1	0	964	1	4	0	192	14	0	0	100
random	6	1	15	1170469	3	1	1	1	0	694	1	4	0	168	15	0	0	100
random	6	1	16	1171802	4	3	3	1	0	934	1	4	0	184	16	0	0	100
random	6	1	17	1173459	6	4	4	1	0	720	1	4	0	192	17	0	0	100
random	6	1	18	1175183	2	1	1	1	0	631	1	4	0	168	18	0	0	100
random	6	1	19	1176562	5	3	3	1	0	780	1	4	0	184	19	0	0	100
random	6	1	20	1177897	2	2	2	1	0	588	1	4	0	176	20	0	0	100
random	6	1	21	1179047	3	3	3	1	0	923	1	4	0	184	21	0	0	100
random	6	1	22	1180827	6	1	1	2	0	1687	2	4	0	168	22	0	0	100
random	6	1	23	1183155	4	2	2	1	0	893	1	4	0	176	23	0	0	100
random	6	1	24	1185060	1	4	4	1	0	716	1	4	0	192	24	0	0	100
random	6	1	25	1186723	4	3	3	1	0	1526	1	4	0	184	25	0	0	100
random	6	1	26	1189155	2	1	1	1	0	815	1	4	0	168	26	0	0	100
random	6	1	27	1190771	5	2	2	1	0	1122	1	4	0	176	27	0	0	100
random	6	1	28	1192487	6	4	4	1	0	761	1	4	0	192	28	0	0	100
random	6	1	29	1194176	1	3	3	1	0	682	1	4	0	184	29	0	0	100
random	6	1	30	1195692	5	2	2	1	0	658	1	4	0	176	30	0	0	100
random	6	1	31	1196878	2	1	1	1	0	575	1	4	0	168	31	0	0	100
random	6	1	32	1197965	3	3	3	1	0	1025	1	4	0	184	32	0	0	100
random	6	1	33	1199719	6	4	4	1	0	631	1	4	0	192	33	0	0	100
random	6	1	34	1201318	4	2	2	1	0	676	1	4	0	176	34	0	0	100
random	6	1	35	1202617	3	4	4	1	0	949	1	4	0	192	35	0	0	100
random	6	1	36	1204502	1	1	1	1	0	661	1	4	0	168	36	0	0	100
random	6	1	37	1206154	3	4	4	1	0	1279	1	4	0	192	37	0	0	100
random	6	1	38	1208461	5	3	3	2	0	1997	2	4	0	184	38	0	0	100
random	6	1	39	1211266	6	1	1	1	0	950	1	4	0	168	39	0	0	100
random	6	1	40	1212601	1	2	2	1	0	885	1	4	0	176	40	0	0	100
random	6	1	41	1214218	2	3	3	1	0	618	1	4	0	184	41	0	0	100
random	6	1	42	1215574	4	4	4	1	0	527	1	4	0	192	42	0	0	100
random	6	1	43	1216521	1	2	2	1	0	1200	1	4	0	176	43	0	0	100
random	6	1	44	1218134	6	3	3	1	0	547	1	4	0	184	44	0	0	100
random	6	1	45	1219183	3	1	1	1	0	591	1	4	0	168	45	0	0	100
random	6	1	46	1220073	4	4	4	1	0	649	1	4	0	192	46	0	0	100
random	6	1	47	1221230	2	2	2	1	0	760	1	4	0	176	47	0	0	100
random	6	1	48	1222517	5	1	1	2	0	1050	2	4	0	168	48	0	0	100
random	6	1	49	1224181	2	3	3	1	0	963	1	4	0	184	49	0	0	100
random	6	1	50	1225438	3	1	1	1	0	974	1	4	0	168	50	0	0	100
random	6	1	51	1227071	1	4	4	1	0	585	1	4	0	192	51	0	0	100
random	6	1	52	1228511	5	3	3	1	0	1108	1	4	0	184	52	0	0	100
random	6	1	53	1229986	3	2	2	1	0	701	1	4	0	176	53	0	0	100
random	6	1	54	1231162	6	4	4	1	0	859	1	4	0	192	54	0	0	100
random	6	1	55	1232406	4	2	2	1	0	871	1	4	0	176	55	0	0	100
random	6	1	56	1233865	1	1	1	1	0	553	1	4	0	168	56	0	0	100
random	6	1	57	1235400	5	4	4	1	0	728	1	4	0	192	57	0	0	100
random	6	1	58	1236642	2	1	1	1	0	675	1	4	0	168	58	0	0	100
random	6	1	59	1237616	6	2	2	1	0	930	1	4	0	176	59	0	0	100
random	6	1	60	1238848	4	3	3	1	0	694	1	4	0	184	60	0	0	100
random	6	1	61	1240237	1	2	2	1	0	1315	1	4	0	176	61	0	0	100
random	6	1	62	1242012	6	4	4	1	0	960	1	4	0	192	62	0	0	100
random	6	1	63	1243951	4	1	1	1	0	718	1	4	0	168	63	0	0	100
random	6	1	64	1245545	2	2	2	1	0	787	1	4	0	176	64	0	0	100
random	6	1	65	1246678	4	3	3	1	0	987	1	4	0	184	65	0	0	100
random	6	1	66	1248234	3	1	1	1	0	697	1	4	0	168	66	0	0	100
random	6	1	67	1249944	1	3	3	1	0	944	1	4	0	184	67	0	0	100
random	6	1	68	1251262	5	4	4	1	0	744	1	4	0	192	68	0	0	100
random	6	1	69	1252911	2	2	2	1	0	739	1	4	0	176	69	0	0	100
random	6	1	70	1254420	3	1	1	1	0	578	1	4	0	168	70	0	0	100
random	6	1	71	1255590	5	4	4	1	0	833	1	4	0	192	71	0	0	100
random	6	1	72	1257392	6	3	3	1	0	1005	1	4	0	184	72	0	0	100
random	6	1	73	1259033	2	1	1	1	0	823	1	4	0	168	73	0	0	100
random	6	1	74	1260858	5	3	3	2	0	1602	2	4	0	184	74	0	0	100
random	6	1	75	1262863	1	4	4	1	0	653	1	4	0	192	75	0	0	100
random	6	1	76	1264405	6	2	2	1	0	964	1	4	0	176	76	0	0	100
random	6	1	77	1266155	2	1	1	1	0	905	1	4	0	168	77	0	0	100
random	6	1	78	1268001	4	4	4	1	0	884	1	4	0	192	78	0	0	100
random	6	1	79	1269789	3	2	2	1	0	760	1	4	0	176	79	0	0	100
random	6	1	80	1271231	4	3	3	1	0	730	1	4	0	184	80	0	0	100
random	6	1	81	1272296	1	4	4	1	0	750	1	4	0	192	81	0	0	100
random	6	1	82	1273577	5	1	1	1	0	671	1	4	0	168	82	0	0	100
random	6	1	83	1274613	3	2	2	1	0	955	1	4	0	176	83	0	0	100
random	6	1	84	1276272	6	3	3	1	0	717	1	4	0	184	84	0	0	100
random	6	1	85	1277529	3	2	2	1	0	935	1	4	0	176	85	0	0	100
random	6	1	86	1279293	1	3	3	1	0	981	1	4	0	184	86	0	0	100
random	6	1	87	1281184	4	4	4	1	0	725	1	4	0	192	87	0	0	100
random	6	1	88	1282736	2	1	1	1	0	539	1	4	0	168	88	0	0	100
random	6	1	89	1283607	6	4	4	1	0	903	1	4	0	192	89	0	0	100
random	6	1	90	1285170	3	3	3	1	0	1028	1	4	0	184	90	0	0	100
random	6	1	91	1286723	5	4	4	1	0	874	1	4	0	192	91	0	0	100
random	6	1	92	1288068	1	2	2	1	0	818	1	4	0	176	92	0	0	100
random	6	1	93	1289732	5	1	1	1	0	843	1	4	0	168	93	0	0	100
random	6	1	94	1291316	4	3	3	1	0	1040	1	4	0	184	94	0	0	100
random	6	1	95	1292948	6	1	1	1	0	778	1	4	0	168	95	0	0	100
random	6	1	96	1294412	2	2	2	1	0	981	1	4	0	176	96	0	0	100
random	6	1	97	1296024	4	3	3	1	0	1624	1	4	0	184	97	0	0	100
random	6	1	98	1298284	3	2	2	1	0	721	1	4	0	176	98	0	0	100
random	6	1	99	1299765	6	3	3	1	0	690	1	4	0	184	99	0	0	100
random	6	1	100	1301265	1	4	4	1	0	707	1	4	0	192	100	0	0	100
random	6	1	101	1302436	4	1	1	1	0	569	1	4	0	168	101	0	0	100
random	6	1	102	1303729	5	2	2	1	0	994	1	4	0	176	102	0	0	100
random	6	1	103	1305586	2	4	4	1	0	635	1	4	0	192	103	0	0	100
random	6	1	104	1306567	3	1	1	1	0	682	1	4	0	168	104	0	0	100
random	6	1	105	1307998	1	3	3	1	0	917	1	4	0	184	105	0	0	100
random	6	1	106	1309344	2	2	2	1	0	612	1	4	0	176	106	0	0	100
random	6	1	107	1310277	5	4	4	1	0	724	1	4	0	192	107	0	0	100
random	6	1	108	1311553	6	1	1	1	0	735	1	4	0	168	108	0	0	100
random	6	1	109	1313467	5	4	4	1	0	949	1	4	0	192	109	0	0	100
random	6	1	110	1314775	6	3	3	1	0	942	1	4	0	184	110	0	0	100
random	6	1	111	1316593	2	2	2	1	0	633	1	4	0	176	111	0	0	100
random	6	1	112	1318121	3	1	1	1	0	769	1	4	0	168	112	0	0	100
random	6	1	113	1319808	1	2	2	1	0	897	1	4	0	176	113	0	0	100
random	6	1	114	1321077	2	3	3	1	0	763	1	4	0	184	114	0	0	100
random	6	1	115	1322135	3	1	1	1	0	855	1	4	0	168	115	0	0	100
random	6	1	116	1323475	4	4	4	1	0	1085	1	4	0	192	116	0	0	100
random	6	1	117	1325481	6	1	1	1	0	696	1	4	0	168	117	0	0	100
random	6	1	118	1327091	5	3	3	1	0	1037	1	4	0	184	118	0	0	100
random	6	1	119	1329069	1	4	4	1	0	704	1	4	0	192	119	0	0	100
random	6	1	120	1330809	4	2	2	1	0	743	1	4	0	176	120	0	0	100
fixed	7	1	1	1333029	4	1	1	1	0	865	1	4	0	200	1	0	0	100
fixed	7	1	2	1334289	1	2	2	1	0	844	1	4	0	208	2	0	0	100
fixed	7	1	3	1335421	6	4	4	1	0	811	1	4	0	224	3	0	0	100
fixed	7	1	4	1336654	2	1	1	1	0	1208	1	4	0	200	4	0	0	100
fixed	7	1	5	1338210	5	3	3	1	0	829	1	4	0	216	5	0	0	100
fixed	7	1	6	1340036	6	4	4	1	0	688	1	4	0	224	6	0	0	100
fixed	7	1	7	1341255	3	1	1	1	0	852	1	4	0	200	7	0	0	100
fixed	7	1	8	1342600	2	3	3	1	0	1028	1	4	0	216	8	0	0	100
fixed	7	1	9	1344077	3	2	2	1	0	781	1	4	0	208	9	0	0	100
fixed	7	1	10	1345789	1	4	4	2	0	1733	2	4	0	224	10	0	0	100
fixed	7	1	11	1347821	5	2	2	1	0	782	1	4	0	208	11	0	0	100
fixed	7	1	12	1349506	4	3	3	1	0	823	1	4	0	216	12	0	0	100
fixed	7	2	1	1351494	4	1	1	1	0	851	1	4	0	200	1	0	0	8
fixed	7	2	2	1352904	1	2	2	1	0	855	1	4	0	208	2	0	0	14
fixed	7	2	3	1354480	6	4	4	1	0	645	1	4	0	224	3	0	0	20
fixed	7	2	4	1355702	2	1	1	1	0	632	1	4	0	200	4	0	0	25
fixed	7	2	5	1356933	5	3	3	1	0	941	1	4	0	216	5	0	0	29
fixed	7	2	6	1358632	6	4	4	1	0	676	1	4	0	224	6	0	0	33
fixed	7	2	7	1360187	3	1	1	1	0	891	1	4	0	200	7	0	0	37
fixed	7	2	8	1361689	2	3	3	1	0	899	1	4	0	216	8	0	0	40
fixed	7	2	9	1363108	3	2	2	1	0	615	1	4	0	208	9	0	0	43
fixed	7	2	10	1364498	1	4	4	1	0	636	1	4	0	224	10	0	0	45
fixed	7	2	11	1366017	5	2	2	1	0	796	1	4	0	208	11	0	0	48
fixed	7	2	12	1367396	4	3	3	1	0	802	1	4	0	216	12	0	0	50
fixed	7	3	1	1369287	4	1	1	1	0	737	1	4	0	200	1	0	0	4
fixed	7	3	2	1370432	1	2	2	1	0	1073	1	4	0	208	2	0	0	8
fixed	7	3	3	1372530	6	4	4	1	0	736	1	4	0	224	3	0	0	11
fixed	7	3	4	1374124	2	1	1	1	0	684	1	4	0	200	4	0	0	14
fixed	7	3	5	1375588	5	3	3	1	0	830	1	4	0	216	5	0	0	17
fixed	7	3	6	1376996	6	4	4	1	0	691	1	4	0	224	6	0	0	20
fixed	7	3	7	1377997	3	1	1	1	0	896	1	4	0	200	7	0	0	23
fixed	7	3	8	1379613	2	3	3	1	0	852	1	4	0	216	8	0	0	25
fixed	7	3	9	1381398	3	2	2	1	0	760	1	4	0	208	9	0	0	27
fixed	7	3	10	1382751	1	4	4	1	0	687	1	4	0	224	10	0	0	29
fixed	7	3	11	1383982	5	2	2	1	0	699	1	4	0	208	11	0	0	31
fixed	7	3	12	1385461	4	3	3	1	0	660	1	4	0	216	12	0	0	33
fixed	7	4	1	1386931	4	1	1	1	0	526	1	4	0	200	1	0	0	3
fixed	7	4	2	1387904	1	2	2	1	0	1101	1	4	0	208	2	0	0	5
fixed	7	4	3	1389553	6	4	4	1	0	679	1	4	0	224	3	0	0	8
fixed	7	4	4	1391133	2	1	1	1	0	652	1	4	0	200	4	0	0	10
fixed	7	4	5	1392291	5	3	3	1	0	907	1	4	0	216	5	0	0	12
fixed	7	4	6	1394126	6	4	4	1	0	581	1	4	0	224	6	0	0	14
fixed	7	4	7	1395441	3	1	1	1	0	590	1	4	0	200	7	0	0	16
fixed	7	4	8	1397013	2	3	3	1	0	827	1	4	0	216	8	0	0	18
fixed	7	4	9	1398350	3	2	2	1	0	602	1	4	0	208	9	0	0	20
fixed	7	4	10	1399705	1	4	4	1	0	689	1	4	0	224	10	0	0	22
fixed	7	4	11	1401401	5	2	2	1	0	737	1	4	0	208	11	0	0	23
fixed	7	4	12	1402885	4	3	3	1	0	690	1	4	0	216	12	0	0	25
fixed	7	5	1	1404173	4	1	1	1	0	587	1	4	0	200	1	0	0	2
fixed	7	5	2	1405089	1	2	2	1	0	1012	1	4	0	208	2	0	0	4
fixed	7	5	3	1406414	6	4	4	1	0	781	1	4	0	224	3	0	0	6
fixed	7	5	4	1407686	2	1	1	1	0	727	1	4	0	200	4	0	0	8
fixed	7	5	5	1408985	5	3	3	1	0	1152	1	4	0	216	5	0	0	9
fixed	7	5	6	1410630	6	4	4	1	0	1146	1	4	0	224	6	0	0	11
fixed	7	5	7	1412667	3	1	1	1	0	692	1	4	0	200	7	0	0	13
fixed	7	5	8	1414022	2	3	3	1	0	883	1	4	0	216	8	0	0	14
fixed	7	5	9	1415566	3	2	2	1	0	617	1	4	0	208	9	0	0	16
fixed	7	5	10	1416801	1	4	4	1	0	797	1	4	0	224	10	0	0	17
fixed	7	5	11	1418394	5	2	2	1	0	705	1	4	0	208	11	0	0	19
fixed	7	5	12	1419549	4	3	3	1	0	744	1	4	0	216	12	0	0	20
fixed	7	6	1	1420880	4	1	1	1	0	584	1	4	0	200	1	0	0	2
fixed	7	6	2	1421864	1	2	2	1	0	1238	1	4	0	208	2	0	0	3
fixed	7	6	3	1424113	6	4	4	1	0	431	1	4	0	224	3	0	0	5
fixed	7	6	4	1425096	2	1	1	1	0	741	1	4	0	200	4	0	0	6
fixed	7	6	5	1426363	5	3	3	1	0	896	1	4	0	216	5	0	0	8
fixed	7	6	6	1427740	6	4	4	1	0	734	1	4	0	224	6	0	0	9
fixed	7	6	7	1429296	3	1	1	1	0	708	1	4	0	200	7	0	0	10
fixed	7	6	8	1430618	2	3	3	1	0	780	1	4	0	216	8	0	0	12
fixed	7	6	9	1431975	3	2	2	1	0	650	1	4	0	208	9	0	0	13
fixed	7	6	10	1433405	1	4	4	1	0	566	1	4	0	224	10	0	0	14
fixed	7	6	11	1434335	5	2	2	1	0	806	1	4	0	208	11	0	0	15
fixed	7	6	12	1435653	4	3	3	1	0	918	1	4	0	216	12	0	0	17
fixed	7	7	1	1437705	4	1	1	1	0	463	1	4	0	200	1	0	0	1
fixed	7	7	2	1438901	1	2	2	1	0	661	1	4	0	208	2	0	0	3
fixed	7	7	3	1440406	6	4	4	1	0	381	1	4	0	224	3	0	0	4
fixed	7	7	4	1441075	2	1	1	1	0	809	1	4	0	200	4	0	0	5
fixed	7	7	5	1442577	5	3	3	1	0	721	1	4	0	216	5	0	0	6
fixed	7	7	6	1444038	6	4	4	1	0	571	1	4	0	224	6	0	0	8
fixed	7	7	7	1445235	3	1	1	1	0	681	1	4	0	200	7	0	0	9
fixed	7	7	8	1446827	2	3	3	1	0	925	1	4	0	216	8	0	0	10
fixed	7	7	9	1448727	3	2	2	1	0	661	1	4	0	208	9	0	0	11
fixed	7	7	10	1450404	1	4	4	2	0	1397	2	4	0	224	10	0	0	12
fixed	7	7	11	1452734	5	2	2	1	0	667	1	4	0	208	11	0	0	13
fixed	7	7	12	1454392	4	3	3	1	0	813	1	4	0	216	12	0	0	14
fixed	7	8	1	1456401	4	1	1	1	0	391	1	4	0	200	1	0	0	1
fixed	7	8	2	1457210	1	2	2	1	0	1293	1	4	0	208	2	0	0	2
fixed	7	8	3	1459199	6	4	4	1	0	473	1	4	0	224	3	0	0	3
fixed	7	8	4	1460627	2	1	1	1	0	924	1	4	0	200	4	0	0	5
fixed	7	8	5	1462336	5	3	3	1	0	516	1	4	0	216	5	0	0	6
fixed	7	8	6	1463631	6	4	4	1	0	638	1	4	0	224	6	0	0	7
fixed	7	8	7	1465159	3	1	1	1	0	676	1	4	0	200	7	0	0	8
fixed	7	8	8	1466776	2	3	3	1	0	800	1	4	0	216	8	0	0	9
fixed	7	8	9	1467871	3	2	2	1	0	578	1	4	0	208	9	0	0	10
fixed	7	8	10	1469203	1	4	4	1	0	1081	1	4	0	224	10	0	0	11
fixed	7	8	11	1470622	5	2	2	1	0	765	1	4	0	208	11	0	0	12
fixed	7	8	12	1471869	4	3	3	1	0	729	1	4	0	216	12	0	0	13
fixed	7	9	1	1473326	4	1	1	1	0	418	1	4	0	200	1	0	0	1
fixed	7	9	2	1474190	1	2	2	1	0	862	1	4	0	208	2	0	0	2
fixed	7	9	3	1475575	6	4	4	1	0	580	1	4	0	224	3	0	0	3
fixed	7	9	4	1476994	2	1	1	1	0	711	1	4	0	200	4	0	0	4
fixed	7	9	5	1478702	5	3	3	1	0	1247	1	4	0	216	5	0	0	5
fixed	7	9	6	1480741	6	4	4	1	0	600	1	4	0	224	6	0	0	6
fixed	7	9	7	1482287	3	1	1	1	0	607	1	4	0	200	7	0	0	7
fixed	7	9	8	1483914	2	3	3	1	0	802	1	4	0	216	8	0	0	8
fixed	7	9	9	1485250	3	2	2	1	0	546	1	4	0	208	9	0	0	9
fixed	7	9	10	1486402	1	4	4	1	0	561	1	4	0	224	10	0	0	9
fixed	7	9	11	1487428	5	2	2	1	0	677	1	4	0	208	11	0	0	10
fixed	7	9	12	1488959	4	3	3	1	0	437	1	4	0	216	12	0	0	11
fixed	7	10	1	1490685	4	1	1	1	0	419	1	4	0	200	1	0	0	1
fixed	7	10	2	1491991	1	2	2	1	0	708	1	4	0	208	2	0	0	2
fixed	7	10	3	1493407	6	4	4	1	0	368	1	4	0	224	3	0	0	3
fixed	7	10	4	1494152	2	1	1	1	0	873	1	4	0	200	4	0	0	4
fixed	7	10	5	1495369	5	3	3	1	0	853	1	4	0	216	5	0	0	4
fixed	7	10	6	1496950	6	4	4	1	0	650	1	4	0	224	6	0	0	5
fixed	7	10	7	1497971	3	1	1	1	0	823	1	4	0	200	7	0	0	6
fixed	7	10	8	1499654	2	3	3	1	0	2463	1	4	0	216	8	0	0	7
fixed	7	10	9	1502714	3	2	2	1	0	606	1	4	0	208	9	0	0	8
fixed	7	10	10	1503787	1	4	4	1	0	672	1	4	0	224	10	0	0	8
fixed	7	10	11	1505209	5	2	2	1	0	732	1	4	0	208	11	0	0	9
fixed	7	10	12	1506477	4	3	3	1	0	934	1	4	0	216	12	0	0	10
