type	block	sequ.	trial	time	Pos.	Color	Button	NumRsp	Resp_1	RT_1	R_Code	Resp_2	RT_2	Trigg.	n_hit	n_inc	n_miss	score_%

random	1	1	1	1622	6	1	1	1	0	1016	1	4	0	8	1	0	0	100
random	1	1	2	3281	4	4	4	1	0	1010	1	4	0	32	2	0	0	100
random	1	1	3	5048	2	2	2	1	0	831	1	4	0	16	3	0	0	100
random	1	1	4	6372	3	3	3	1	0	671	1	4	0	24	4	0	0	100
random	1	1	5	8019	5	2	2	1	0	1002	1	4	0	16	5	0	0	100
random	1	1	6	9881	1	4	4	1	0	795	1	4	0	32	6	0	0	100
random	1	1	7	11112	6	1	1	1	0	862	1	4	0	8	7	0	0	100
random	1	1	8	12989	2	3	3	1	0	1271	1	4	0	24	8	0	0	100
random	1	1	9	15287	4	2	2	1	0	798	1	4	0	16	9	0	0	100
random	1	1	10	16381	1	1	1	1	0	1127	1	4	0	8	10	0	0	100
random	1	1	11	17934	5	4	4	1	0	781	1	4	0	32	11	0	0	100
random	1	1	12	19081	3	3	3	1	0	1189	1	4	0	24	12	0	0	100
random	1	1	13	21138	5	2	2	1	0	1190	1	4	0	16	13	0	0	100
random	1	1	14	22799	1	4	4	1	0	927	1	4	0	32	14	0	0	100
random	1	1	15	24115	3	1	1	1	0	920	1	4	0	8	15	0	0	100
random	1	1	16	25562	4	3	3	1	0	987	1	4	0	24	16	0	0	100
random	1	1	17	27024	6	4	4	1	0	868	1	4	0	32	17	0	0	100
random	1	1	18	28546	2	1	1	1	0	884	1	4	0	8	18	0	0	100
random	1	1	19	30377	5	3	3	1	0	1150	1	4	0	24	19	0	0	100
random	1	1	20	31977	2	2	2	1	0	1395	1	4	0	16	20	0	0	100
random	1	1	21	34070	3	3	3	1	0	1034	1	4	0	24	21	0	0	100
random	1	1	22	35494	6	1	1	1	0	822	1	4	0	8	22	0	0	100
random	1	1	23	36768	4	2	2	1	0	920	1	4	0	16	23	0	0	100
random	1	1	24	38251	1	4	4	1	0	665	1	4	0	32	24	0	0	100
random	1	1	25	40169	4	3	3	1	0	1064	1	4	0	24	25	0	0	100
random	1	1	26	41602	2	1	1	1	0	1027	1	4	0	8	26	0	0	100
random	1	1	27	43405	5	2	2	1	0	791	1	4	0	16	27	0	0	100
random	1	1	28	44746	6	4	4	1	0	878	1	4	0	32	28	0	0	100
random	1	1	29	46168	1	3	3	1	0	1001	1	4	0	24	29	0	0	100
random	1	1	30	48037	5	2	2	1	0	946	1	4	0	16	30	0	0	100
random	1	1	31	49790	2	1	1	1	0	1064	1	4	0	8	31	0	0	100
random	1	1	32	51746	3	3	3	1	0	1189	1	4	0	24	32	0	0	100
random	1	1	33	53877	6	4	4	1	0	715	1	4	0	32	33	0	0	100
random	1	1	34	55201	4	2	2	1	0	803	1	4	0	16	34	0	0	100
random	1	1	35	56588	3	4	4	1	0	889	1	4	0	32	35	0	0	100
random	1	1	36	58105	1	1	1	1	0	808	1	4	0	8	36	0	0	100
random	1	1	37	60068	3	4	4	1	0	813	1	4	0	32	37	0	0	100
random	1	1	38	61443	5	3	3	1	0	1011	1	4	0	24	38	0	0	100
random	1	1	39	62878	6	1	1	1	0	886	1	4	0	8	39	0	0	100
random	1	1	40	64729	1	2	2	1	0	919	1	4	0	16	40	0	0	100
random	1	1	41	66393	2	3	3	1	0	953	1	4	0	24	41	0	0	100
random	1	1	42	68044	4	4	4	1	0	859	1	4	0	32	42	0	0	100
random	1	1	43	69373	1	2	2	1	0	819	1	4	0	16	43	0	0	100
random	1	1	44	70663	6	3	3	1	0	844	1	4	0	24	44	0	0	100
random	1	1	45	72275	3	1	1	1	0	1176	1	4	0	8	45	0	0	100
random	1	1	46	73831	4	4	4	1	0	790	1	4	0	32	46	0	0	100
random	1	1	47	74979	2	2	2	1	0	797	1	4	0	16	47	0	0	100
random	1	1	48	76405	5	1	1	1	0	857	1	4	0	8	48	0	0	100
random	1	1	49	78463	2	3	3	1	0	1266	1	4	0	24	49	0	0	100
random	1	1	50	80642	3	1	1	1	0	790	1	4	0	8	50	0	0	100
random	1	1	51	82106	1	4	4	1	0	615	1	4	0	32	51	0	0	100
random	1	1	52	83561	5	3	3	1	0	986	1	4	0	24	52	0	0	100
random	1	1	53	85322	3	2	2	1	0	767	1	4	0	16	53	0	0	100
random	1	1	54	86595	6	4	4	1	0	714	1	4	0	32	54	0	0	100
random	1	1	55	87757	4	2	2	1	0	856	1	4	0	16	55	0	0	100
random	1	1	56	89113	1	1	1	1	0	879	1	4	0	8	56	0	0	100
random	1	1	57	90991	5	4	4	1	0	855	1	4	0	32	57	0	0	100
random	1	1	58	92471	2	1	1	1	0	1321	1	4	0	8	58	0	0	100
random	1	1	59	94269	6	2	2	1	0	956	1	4	0	16	59	0	0	100
random	1	1	60	95870	4	3	3	1	0	832	1	4	0	24	60	0	0	100
random	1	1	61	97911	1	2	2	1	0	938	1	4	0	16	61	0	0	100
random	1	1	62	99370	6	4	4	1	0	660	1	4	0	32	62	0	0	100
random	1	1	63	100374	4	1	1	1	0	954	1	4	0	8	63	0	0	100
random	1	1	64	102215	2	2	2	1	0	860	1	4	0	16	64	0	0	100
random	1	1	65	103814	4	3	3	1	0	952	1	4	0	24	65	0	0	100
random	1	1	66	105384	3	1	1	1	0	829	1	4	0	8	66	0	0	100
random	1	1	67	107172	1	3	3	1	0	1090	1	4	0	24	67	0	0	100
random	1	1	68	108900	5	4	4	1	0	929	1	4	0	32	68	0	0	100
random	1	1	69	110704	2	2	2	2	0	2332	2	4	0	16	69	0	0	100
random	1	1	70	113902	3	1	1	1	0	1421	1	4	0	8	70	0	0	100
random	1	1	71	115909	5	4	4	1	0	904	1	4	0	32	71	0	0	100
random	1	1	72	117569	6	3	3	1	0	1178	1	4	0	24	72	0	0	100
random	1	1	73	119681	2	1	1	1	0	1272	1	4	0	8	73	0	0	100
random	1	1	74	121958	5	3	3	1	0	1351	1	4	0	24	74	0	0	100
random	1	1	75	124068	1	4	4	1	0	742	1	4	0	32	75	0	0	100
random	1	1	76	125557	6	2	2	1	0	703	1	4	0	16	76	0	0	100
random	1	1	77	127272	2	1	1	1	0	1087	1	4	0	8	77	0	0	100
random	1	1	78	129096	4	4	4	1	0	833	1	4	0	32	78	0	0	100
random	1	1	79	130681	3	2	2	1	0	958	1	4	0	16	79	0	0	100
random	1	1	80	132106	4	3	3	1	0	874	1	4	0	24	80	0	0	100
random	1	1	81	133890	1	4	4	1	0	942	1	4	0	32	81	0	0	100
random	1	1	82	135600	5	1	1	1	0	1038	1	4	0	8	82	0	0	100
random	1	1	83	136953	3	2	2	1	0	1045	1	4	0	16	83	0	0	100
random	1	1	84	138778	6	3	3	1	0	1047	1	4	0	24	84	0	0	100
random	1	1	85	140482	3	2	2	1	0	1319	1	4	0	16	85	0	0	100
random	1	1	86	142190	1	3	3	1	0	846	1	4	0	24	86	0	0	100
random	1	1	87	144064	4	4	4	1	0	863	1	4	0	32	87	0	0	100
random	1	1	88	145591	2	1	1	1	0	1015	1	4	0	8	88	0	0	100
random	1	1	89	147621	6	4	4	1	0	825	1	4	0	32	89	0	0	100
random	1	1	90	149366	3	3	3	1	0	1519	1	4	0	24	90	0	0	100
random	1	1	91	151533	5	4	4	1	0	1043	1	4	0	32	91	0	0	100
random	1	1	92	153551	1	2	2	1	0	797	1	4	0	16	92	0	0	100
random	1	1	93	155034	5	1	1	1	0	950	1	4	0	8	93	0	0	100
random	1	1	94	156693	4	3	3	1	0	952	1	4	0	24	94	0	0	100
random	1	1	95	158341	6	1	1	1	0	882	1	4	0	8	95	0	0	100
random	1	1	96	159840	2	2	2	1	0	955	1	4	0	16	96	0	0	100
random	1	1	97	161483	4	3	3	1	0	989	1	4	0	24	97	0	0	100
random	1	1	98	163052	3	2	2	1	0	747	1	4	0	16	98	0	0	100
random	1	1	99	164149	6	3	3	1	0	789	1	4	0	24	99	0	0	100
random	1	1	100	165835	1	4	4	1	0	789	1	4	0	32	100	0	0	100
random	1	1	101	167338	4	1	1	1	0	966	1	4	0	8	101	0	0	100
random	1	1	102	169079	5	2	2	1	0	900	1	4	0	16	102	0	0	100
random	1	1	103	170843	2	4	4	1	0	1513	1	4	0	32	103	0	0	100
random	1	1	104	172871	3	1	1	1	0	1019	1	4	0	8	104	0	0	100
random	1	1	105	174297	1	3	3	1	0	1182	1	4	0	24	105	0	0	100
random	1	1	106	176204	2	2	2	1	0	870	1	4	0	16	106	0	0	100
random	1	1	107	177662	5	4	4	1	0	744	1	4	0	32	107	0	0	100
random	1	1	108	178704	6	1	1	1	0	804	1	4	0	8	108	0	0	100
random	1	1	109	180530	5	4	4	1	0	734	1	4	0	32	109	0	0	100
random	1	1	110	181614	6	3	3	1	0	1032	1	4	0	24	110	0	0	100
random	1	1	111	183369	2	2	2	1	0	766	1	4	0	16	111	0	0	100
random	1	1	112	184658	3	1	1	1	0	888	1	4	0	8	112	0	0	100
random	1	1	113	186520	1	2	2	1	0	705	1	4	0	16	113	0	0	100
random	1	1	114	187804	2	3	3	1	0	747	1	4	0	24	114	0	0	100
random	1	1	115	189292	3	1	1	1	0	1060	1	4	0	8	115	0	0	100
random	1	1	116	190901	4	4	4	1	0	656	1	4	0	32	116	0	0	100
random	1	1	117	192146	6	1	1	1	0	1003	1	4	0	8	117	0	0	100
random	1	1	118	194139	5	3	3	1	0	1006	1	4	0	24	118	0	0	100
random	1	1	119	195735	1	4	4	1	0	819	1	4	0	32	119	0	0	100
random	1	1	120	197496	4	2	2	1	0	880	1	4	0	16	120	0	0	100
fixed	2	1	1	199758	4	1	1	1	0	1008	1	4	0	40	1	0	0	100
fixed	2	1	2	201495	1	2	2	1	0	1191	1	4	0	48	2	0	0	100
fixed	2	1	3	203491	6	4	4	1	0	810	1	4	0	64	3	0	0	100
fixed	2	1	4	205241	2	1	1	1	0	800	1	4	0	40	4	0	0	100
fixed	2	1	5	206858	5	3	3	1	0	1164	1	4	0	56	5	0	0	100
fixed	2	1	6	208965	6	4	4	1	0	938	1	4	0	64	6	0	0	100
fixed	2	1	7	210946	3	1	1	1	0	918	1	4	0	40	7	0	0	100
fixed	2	1	8	212776	2	3	0	1	2	0	3	4	0	56	7	0	1	88
fixed	2	1	9	215759	3	2	2	1	0	1035	1	4	0	48	8	0	1	89
fixed	2	1	10	217094	1	4	4	1	0	802	1	4	0	64	9	0	1	90
fixed	2	1	11	218892	5	2	2	1	0	1166	1	4	0	48	10	0	1	91
fixed	2	1	12	220715	4	3	3	1	0	1624	1	4	0	56	11	0	1	92
fixed	2	2	1	222984	4	1	1	1	0	984	1	4	0	40	12	0	1	92
fixed	2	2	2	224637	1	2	2	1	0	898	1	4	0	48	13	0	1	93
fixed	2	2	3	226410	6	4	4	1	0	895	1	4	0	64	14	0	1	93
fixed	2	2	4	228222	2	1	1	1	0	940	1	4	0	40	15	0	1	94
fixed	2	2	5	229546	5	3	3	1	0	1035	1	4	0	56	16	0	1	94
fixed	2	2	6	231596	6	4	4	1	0	692	1	4	0	64	17	0	1	94
fixed	2	2	7	232779	3	1	1	1	0	1218	1	4	0	40	18	0	1	95
fixed	2	2	8	234684	2	3	3	1	0	1329	1	4	0	56	19	0	1	95
fixed	2	2	9	236668	3	2	2	1	0	693	1	4	0	48	20	0	1	95
fixed	2	2	10	237799	1	4	4	1	0	757	1	4	0	64	21	0	1	95
fixed	2	2	11	239508	5	2	2	1	0	1028	1	4	0	48	22	0	1	96
fixed	2	2	12	241089	4	3	3	1	0	1106	1	4	0	56	23	0	1	96
fixed	2	3	1	242750	4	1	1	1	0	1075	1	4	0	40	24	0	1	96
fixed	2	3	2	244806	1	2	2	1	0	796	1	4	0	48	25	0	1	96
fixed	2	3	3	246622	6	4	4	1	0	648	1	4	0	64	26	0	1	96
fixed	2	3	4	247949	2	1	1	1	0	927	1	4	0	40	27	0	1	96
fixed	2	3	5	249663	5	3	3	1	0	999	1	4	0	56	28	0	1	97
fixed	2	3	6	251082	6	4	4	1	0	883	1	4	0	64	29	0	1	97
fixed	2	3	7	252603	3	1	1	1	0	938	1	4	0	40	30	0	1	97
fixed	2	3	8	254259	2	3	3	1	0	1164	1	4	0	56	31	0	1	97
fixed	2	3	9	255979	3	2	2	1	0	1187	1	4	0	48	32	0	1	97
fixed	2	3	10	257916	1	4	4	1	0	825	1	4	0	64	33	0	1	97
fixed	2	3	11	259530	5	2	2	1	0	965	1	4	0	48	34	0	1	97
fixed	2	3	12	260938	4	3	3	1	0	865	1	4	0	56	35	0	1	97
fixed	2	4	1	262749	4	1	1	1	0	956	1	4	0	40	36	0	1	97
fixed	2	4	2	264530	1	2	2	1	0	1089	1	4	0	48	37	0	1	97
fixed	2	4	3	266360	6	4	4	1	0	627	1	4	0	64	38	0	1	97
fixed	2	4	4	267562	2	1	1	1	0	784	1	4	0	40	39	0	1	98
fixed	2	4	5	268998	5	3	3	1	0	1011	1	4	0	56	40	0	1	98
fixed	2	4	6	270610	6	4	4	1	0	1335	1	4	0	64	41	0	1	98
fixed	2	4	7	272434	3	1	1	1	0	962	1	4	0	40	42	0	1	98
fixed	2	4	8	274361	2	3	3	1	0	1624	1	4	0	56	43	0	1	98
fixed	2	4	9	276556	3	2	2	1	0	804	1	4	0	48	44	0	1	98
fixed	2	4	10	277668	1	4	4	1	0	692	1	4	0	64	45	0	1	98
fixed	2	4	11	279298	5	2	2	1	0	1231	1	4	0	48	46	0	1	98
fixed	2	4	12	281340	4	3	3	1	0	969	1	4	0	56	47	0	1	98
fixed	2	5	1	282965	4	1	1	1	0	908	1	4	0	40	48	0	1	98
fixed	2	5	2	284911	1	2	2	1	0	826	1	4	0	48	49	0	1	98
fixed	2	5	3	286519	6	4	4	1	0	726	1	4	0	64	50	0	1	98
fixed	2	5	4	287705	2	1	1	1	0	996	1	4	0	40	51	0	1	98
fixed	2	5	5	289214	5	3	3	1	0	883	1	4	0	56	52	0	1	98
fixed	2	5	6	290720	6	4	4	1	0	811	1	4	0	64	53	0	1	98
fixed	2	5	7	291858	3	1	1	1	0	1483	1	4	0	40	54	0	1	98
fixed	2	5	8	294157	2	3	3	1	0	1018	1	4	0	56	55	0	1	98
fixed	2	5	9	296100	3	2	2	1	0	856	1	4	0	48	56	0	1	98
fixed	2	5	10	297478	1	4	4	1	0	1230	1	4	0	64	57	0	1	98
fixed	2	5	11	299119	5	2	2	1	0	1295	1	4	0	48	58	0	1	98
fixed	2	5	12	300799	4	3	3	1	0	785	1	4	0	56	59	0	1	98
fixed	2	6	1	302496	4	1	1	1	0	881	1	4	0	40	60	0	1	98
fixed	2	6	2	304072	1	2	2	1	0	998	1	4	0	48	61	0	1	98
fixed	2	6	3	305485	6	4	4	1	0	786	1	4	0	64	62	0	1	98
fixed	2	6	4	307300	2	1	1	1	0	813	1	4	0	40	63	0	1	98
fixed	2	6	5	308395	5	3	3	1	0	1055	1	4	0	56	64	0	1	98
fixed	2	6	6	310445	6	4	4	1	0	880	1	4	0	64	65	0	1	98
fixed	2	6	7	312173	3	1	1	1	0	1015	1	4	0	40	66	0	1	99
fixed	2	6	8	313492	2	3	3	1	0	983	1	4	0	56	67	0	1	99
fixed	2	6	9	314986	3	2	2	1	0	792	1	4	0	48	68	0	1	99
fixed	2	6	10	316778	1	4	4	1	0	1236	1	4	0	64	69	0	1	99
fixed	2	6	11	318353	5	2	2	1	0	1033	1	4	0	48	70	0	1	99
fixed	2	6	12	320054	4	3	3	1	0	817	1	4	0	56	71	0	1	99
fixed	2	7	1	321593	4	1	1	1	0	768	1	4	0	40	72	0	1	99
fixed	2	7	2	322883	1	2	2	1	0	1305	1	4	0	48	73	0	1	99
fixed	2	7	3	324784	6	4	4	1	0	752	1	4	0	64	74	0	1	99
fixed	2	7	4	325900	2	1	1	1	0	922	1	4	0	40	75	0	1	99
fixed	2	7	5	327459	5	3	3	1	0	1055	1	4	0	56	76	0	1	99
fixed	2	7	6	329480	6	4	4	1	0	1050	1	4	0	64	77	0	1	99
fixed	2	7	7	331103	3	1	1	1	0	925	1	4	0	40	78	0	1	99
fixed	2	7	8	332657	2	3	3	1	0	1163	1	4	0	56	79	0	1	99
fixed	2	7	9	334735	3	2	2	1	0	819	1	4	0	48	80	0	1	99
fixed	2	7	10	335892	1	4	4	1	0	819	1	4	0	64	81	0	1	99
fixed	2	7	11	337465	5	2	2	1	0	1071	1	4	0	48	82	0	1	99
fixed	2	7	12	339181	4	3	3	1	0	1167	1	4	0	56	83	0	1	99
fixed	2	8	1	341392	4	1	1	1	0	945	1	4	0	40	84	0	1	99
fixed	2	8	2	342837	1	2	2	1	0	828	1	4	0	48	85	0	1	99
fixed	2	8	3	344689	6	4	4	1	0	670	1	4	0	64	86	0	1	99
fixed	2	8	4	345654	2	1	1	1	0	965	1	4	0	40	87	0	1	99
fixed	2	8	5	347132	5	3	3	1	0	894	1	4	0	56	88	0	1	99
fixed	2	8	6	348451	6	4	4	1	0	950	1	4	0	64	89	0	1	99
fixed	2	8	7	349881	3	1	1	1	0	1106	1	4	0	40	90	0	1	99
fixed	2	8	8	351647	2	3	3	1	0	1167	1	4	0	56	91	0	1	99
fixed	2	8	9	353565	3	2	2	1	0	1030	1	4	0	48	92	0	1	99
fixed	2	8	10	355420	1	4	4	1	0	767	1	4	0	64	93	0	1	99
fixed	2	8	11	356837	5	2	2	1	0	931	1	4	0	48	94	0	1	99
fixed	2	8	12	358543	4	3	3	1	0	763	1	4	0	56	95	0	1	99
fixed	2	9	1	360472	4	1	1	1	0	961	1	4	0	40	96	0	1	99
fixed	2	9	2	362013	1	2	2	1	0	872	1	4	0	48	97	0	1	99
fixed	2	9	3	363427	6	4	4	1	0	708	1	4	0	64	98	0	1	99
fixed	2	9	4	364663	2	1	1	1	0	967	1	4	0	40	99	0	1	99
fixed	2	9	5	366540	5	3	3	1	0	848	1	4	0	56	100	0	1	99
fixed	2	9	6	368093	6	4	4	1	0	814	1	4	0	64	101	0	1	99
fixed	2	9	7	369563	3	1	1	1	0	912	1	4	0	40	102	0	1	99
fixed	2	9	8	371306	2	3	3	1	0	1006	1	4	0	56	103	0	1	99
fixed	2	9	9	372660	3	2	2	1	0	797	1	4	0	48	104	0	1	99
fixed	2	9	10	373747	1	4	4	1	0	655	1	4	0	64	105	0	1	99
fixed	2	9	11	375256	5	2	2	1	0	1103	1	4	0	48	106	0	1	99
fixed	2	9	12	376732	4	3	0	1	2	0	3	4	0	56	106	0	2	98
fixed	2	10	1	379936	4	1	0	0	2	0	3	4	0	40	106	0	3	97
fixed	2	10	2	382775	1	2	2	1	0	1072	1	4	0	48	107	0	3	97
fixed	2	10	3	384506	6	4	4	1	0	1039	1	4	0	64	108	0	3	97
fixed	2	10	4	386306	2	1	1	1	0	2027	1	4	0	40	109	0	3	97
fixed	2	10	5	388759	5	3	3	1	0	1019	1	4	0	56	110	0	3	97
fixed	2	10	6	390104	6	4	4	1	0	1018	1	4	0	64	111	0	3	97
fixed	2	10	7	391847	3	1	1	1	0	1240	1	4	0	40	112	0	3	97
fixed	2	10	8	393834	2	3	3	1	0	860	1	4	0	56	113	0	3	97
fixed	2	10	9	395077	3	2	2	1	0	967	1	4	0	48	114	0	3	97
fixed	2	10	10	396942	1	4	4	1	0	768	1	4	0	64	115	0	3	97
fixed	2	10	11	398711	5	2	2	1	0	1030	1	4	0	48	116	0	3	97
fixed	2	10	12	400316	4	3	3	1	0	1122	1	4	0	56	117	0	3	98
fixed	3	1	1	402305	4	1	1	1	0	821	1	4	0	72	1	0	0	100
fixed	3	1	2	403617	1	2	2	1	0	982	1	4	0	80	2	0	0	100
fixed	3	1	3	405352	6	4	4	1	0	788	1	4	0	96	3	0	0	100
fixed	3	1	4	406969	2	1	1	1	0	1007	1	4	0	72	4	0	0	100
fixed	3	1	5	408684	5	3	3	1	0	815	1	4	0	88	5	0	0	100
fixed	3	1	6	410363	6	4	4	1	0	800	1	4	0	96	6	0	0	100
fixed	3	1	7	411900	3	1	1	1	0	1031	1	4	0	72	7	0	0	100
fixed	3	1	8	413481	2	3	3	1	0	1140	1	4	0	88	8	0	0	100
fixed	3	1	9	415075	3	2	2	1	0	808	1	4	0	80	9	0	0	100
fixed	3	1	10	416535	1	4	4	1	0	891	1	4	0	96	10	0	0	100
fixed	3	1	11	417881	5	2	2	1	0	1065	1	4	0	80	11	0	0	100
fixed	3	1	12	419390	4	3	3	1	0	970	1	4	0	88	12	0	0	100
fixed	3	2	1	421455	4	1	1	1	0	842	1	4	0	72	13	0	0	100
fixed	3	2	2	423187	1	2	2	1	0	937	1	4	0	80	14	0	0	100
fixed	3	2	3	425107	6	4	4	1	0	728	1	4	0	96	15	0	0	100
fixed	3	2	4	426862	2	1	1	1	0	989	1	4	0	72	16	0	0	100
fixed	3	2	5	428702	5	3	3	1	0	960	1	4	0	88	17	0	0	100
fixed	3	2	6	430019	6	4	4	1	0	928	1	4	0	96	18	0	0	100
fixed	3	2	7	431921	3	1	1	1	0	951	1	4	0	72	19	0	0	100
fixed	3	2	8	433637	2	3	3	1	0	1118	1	4	0	88	20	0	0	100
fixed	3	2	9	435121	3	2	2	1	0	711	1	4	0	80	21	0	0	100
fixed	3	2	10	436707	1	4	4	1	0	996	1	4	0	96	22	0	0	100
fixed	3	2	11	438251	5	2	2	1	0	1075	1	4	0	80	23	0	0	100
fixed	3	2	12	439727	4	3	3	1	0	812	1	4	0	88	24	0	0	100
fixed	3	3	1	441120	4	1	1	1	0	841	1	4	0	72	25	0	0	100
fixed	3	3	2	442466	1	2	2	1	0	1008	1	4	0	80	26	0	0	100
fixed	3	3	3	443888	6	4	4	1	0	748	1	4	0	96	27	0	0	100
fixed	3	3	4	445143	2	1	1	1	0	1022	1	4	0	72	28	0	0	100
fixed	3	3	5	446960	5	3	3	1	0	1274	1	4	0	88	29	0	0	100
fixed	3	3	6	448589	6	4	4	1	0	885	1	4	0	96	30	0	0	100
fixed	3	3	7	449983	3	1	1	1	0	802	1	4	0	72	31	0	0	100
fixed	3	3	8	451304	2	3	3	1	0	1010	1	4	0	88	32	0	0	100
fixed	3	3	9	453118	3	2	2	1	0	877	1	4	0	80	33	0	0	100
fixed	3	3	10	454833	1	4	4	1	0	725	1	4	0	96	34	0	0	100
fixed	3	3	11	456255	5	2	2	1	0	840	1	4	0	80	35	0	0	100
fixed	3	3	12	457866	4	3	3	1	0	788	1	4	0	88	36	0	0	100
fixed	3	4	1	459498	4	1	1	1	0	863	1	4	0	72	37	0	0	100
fixed	3	4	2	461363	1	2	2	1	0	848	1	4	0	80	38	0	0	100
fixed	3	4	3	462719	6	4	4	1	0	695	1	4	0	96	39	0	0	100
fixed	3	4	4	464321	2	1	1	1	0	747	1	4	0	72	40	0	0	100
fixed	3	4	5	465397	5	3	3	1	0	965	1	4	0	88	41	0	0	100
fixed	3	4	6	467306	6	4	4	1	0	940	1	4	0	96	42	0	0	100
fixed	3	4	7	468797	3	1	1	1	0	1173	1	4	0	72	43	0	0	100
fixed	3	4	8	470510	2	3	3	1	0	1340	1	4	0	88	44	0	0	100
fixed	3	4	9	472661	3	2	2	1	0	761	1	4	0	80	45	0	0	100
fixed	3	4	10	473971	1	4	4	1	0	706	1	4	0	96	46	0	0	100
fixed	3	4	11	475080	5	2	2	1	0	1347	1	4	0	80	47	0	0	100
fixed	3	4	12	477305	4	3	3	1	0	933	1	4	0	88	48	0	0	100
fixed	3	5	1	479347	4	1	1	1	0	990	1	4	0	72	49	0	0	100
fixed	3	5	2	480894	1	2	2	1	0	757	1	4	0	80	50	0	0	100
fixed	3	5	3	482176	6	4	4	1	0	606	1	4	0	96	51	0	0	100
fixed	3	5	4	483533	2	1	1	1	0	877	1	4	0	72	52	0	0	100
fixed	3	5	5	485406	5	3	3	1	0	950	1	4	0	88	53	0	0	100
fixed	3	5	6	487254	6	4	4	1	0	775	1	4	0	96	54	0	0	100
fixed	3	5	7	488777	3	1	1	1	0	1103	1	4	0	72	55	0	0	100
fixed	3	5	8	490278	2	3	3	1	0	1239	1	4	0	88	56	0	0	100
fixed	3	5	9	492414	3	2	2	1	0	860	1	4	0	80	57	0	0	100
fixed	3	5	10	493750	1	4	4	1	0	772	1	4	0	96	58	0	0	100
fixed	3	5	11	495214	5	2	2	1	0	1006	1	4	0	80	59	0	0	100
fixed	3	5	12	496663	4	3	3	1	0	801	1	4	0	88	60	0	0	100
fixed	3	6	1	498594	4	1	1	1	0	1063	1	4	0	72	61	0	0	100
fixed	3	6	2	500669	1	2	2	1	0	991	1	4	0	80	62	0	0	100
fixed	3	6	3	502125	6	4	4	1	0	785	1	4	0	96	63	0	0	100
fixed	3	6	4	503318	2	1	1	1	0	935	1	4	0	72	64	0	0	100
fixed	3	6	5	505098	5	3	3	1	0	723	1	4	0	88	65	0	0	100
fixed	3	6	6	506437	6	4	4	1	0	803	1	4	0	96	66	0	0	100
fixed	3	6	7	507957	3	1	1	1	0	1186	1	4	0	72	67	0	0	100
fixed	3	6	8	509916	2	3	3	1	0	1160	1	4	0	88	68	0	0	100
fixed	3	6	9	511734	3	2	2	1	0	842	1	4	0	80	69	0	0	100
fixed	3	6	10	513140	1	4	4	1	0	695	1	4	0	96	70	0	0	100
fixed	3	6	11	514623	5	2	2	1	0	1008	1	4	0	80	71	0	0	100
fixed	3	6	12	516213	4	3	3	1	0	1181	1	4	0	88	72	0	0	100
fixed	3	7	1	518543	4	1	1	1	0	994	1	4	0	72	73	0	0	100
fixed	3	7	2	520070	1	2	2	1	0	833	1	4	0	80	74	0	0	100
fixed	3	7	3	521536	6	4	4	1	0	1315	1	4	0	96	75	0	0	100
fixed	3	7	4	523500	2	1	1	1	0	952	1	4	0	72	76	0	0	100
fixed	3	7	5	524830	5	3	3	1	0	1240	1	4	0	88	77	0	0	100
fixed	3	7	6	527038	6	4	4	1	0	858	1	4	0	96	78	0	0	100
fixed	3	7	7	528728	3	1	1	1	0	979	1	4	0	72	79	0	0	100
fixed	3	7	8	530663	2	3	3	1	0	1401	1	4	0	88	80	0	0	100
fixed	3	7	9	532795	3	2	2	1	0	750	1	4	0	80	81	0	0	100
fixed	3	7	10	534147	1	4	4	1	0	725	1	4	0	96	82	0	0	100
fixed	3	7	11	535416	5	2	2	1	0	1063	1	4	0	80	83	0	0	100
fixed	3	7	12	537455	4	3	3	1	0	1481	1	4	0	88	84	0	0	100
fixed	3	8	1	539862	4	1	1	1	0	915	1	4	0	72	85	0	0	100
fixed	3	8	2	541456	1	2	2	1	0	999	1	4	0	80	86	0	0	100
fixed	3	8	3	543362	6	4	4	1	0	815	1	4	0	96	87	0	0	100
fixed	3	8	4	544810	2	1	1	1	0	1089	1	4	0	72	88	0	0	100
fixed	3	8	5	546712	5	3	3	1	0	1289	1	4	0	88	89	0	0	100
fixed	3	8	6	548603	6	4	4	1	0	785	1	4	0	96	90	0	0	100
fixed	3	8	7	550076	3	1	1	1	0	858	1	4	0	72	91	0	0	100
fixed	3	8	8	551488	2	3	3	1	0	974	1	4	0	88	92	0	0	100
fixed	3	8	9	553052	3	2	2	1	0	1020	1	4	0	80	93	0	0	100
fixed	3	8	10	554557	1	4	4	1	0	917	1	4	0	96	94	0	0	100
fixed	3	8	11	556019	5	2	2	1	0	790	1	4	0	80	95	0	0	100
fixed	3	8	12	557283	4	3	3	1	0	993	1	4	0	88	96	0	0	100
fixed	3	9	1	559042	4	1	1	1	0	814	1	4	0	72	97	0	0	100
fixed	3	9	2	560425	1	2	2	1	0	916	1	4	0	80	98	0	0	100
fixed	3	9	3	561734	6	4	4	1	0	708	1	4	0	96	99	0	0	100
fixed	3	9	4	562942	2	1	1	1	0	1089	1	4	0	72	100	0	0	100
fixed	3	9	5	564631	5	3	3	1	0	802	1	4	0	88	101	0	0	100
fixed	3	9	6	566464	6	4	4	1	0	1220	1	4	0	96	102	0	0	100
fixed	3	9	7	568344	3	1	1	1	0	797	1	4	0	72	103	0	0	100
fixed	3	9	8	569548	2	3	3	1	0	1370	1	4	0	88	104	0	0	100
fixed	3	9	9	571797	3	2	2	1	0	714	1	4	0	80	105	0	0	100
fixed	3	9	10	573146	1	4	4	1	0	825	1	4	0	96	106	0	0	100
fixed	3	9	11	574504	5	2	2	1	0	784	1	4	0	80	107	0	0	100
fixed	3	9	12	575827	4	3	3	1	0	1080	1	4	0	88	108	0	0	100
fixed	3	10	1	577989	4	1	1	1	0	804	1	4	0	72	109	0	0	100
fixed	3	10	2	579720	1	2	2	1	0	795	1	4	0	80	110	0	0	100
fixed	3	10	3	581382	6	4	4	1	0	828	1	4	0	96	111	0	0	100
fixed	3	10	4	582561	2	1	1	1	0	1339	1	4	0	72	112	0	0	100
fixed	3	10	5	584777	5	3	3	1	0	1029	1	4	0	88	113	0	0	100
fixed	3	10	6	586566	6	4	4	1	0	705	1	4	0	96	114	0	0	100
fixed	3	10	7	587603	3	1	1	1	0	1277	1	4	0	72	115	0	0	100
fixed	3	10	8	589708	2	3	3	1	0	996	1	4	0	88	116	0	0	100
fixed	3	10	9	591193	3	2	2	1	0	1101	1	4	0	80	117	0	0	100
fixed	3	10	10	593254	1	4	4	1	0	838	1	4	0	96	118	0	0	100
fixed	3	10	11	594414	5	2	2	1	0	964	1	4	0	80	119	0	0	100
fixed	3	10	12	596162	4	3	3	1	0	995	1	4	0	88	120	0	0	100
fixed	4	1	1	713586	4	1	1	1	0	1324	1	4	0	104	1	0	0	100
fixed	4	1	2	715241	1	2	2	1	0	910	1	4	0	112	2	0	0	100
fixed	4	1	3	716703	6	4	4	1	0	665	1	4	0	128	3	0	0	100
fixed	4	1	4	717886	2	1	1	1	0	927	1	4	0	104	4	0	0	100
fixed	4	1	5	719220	5	3	3	1	0	934	1	4	0	120	5	0	0	100
fixed	4	1	6	720589	6	4	4	1	0	820	1	4	0	128	6	0	0	100
fixed	4	1	7	721908	3	1	1	1	0	1044	1	4	0	104	7	0	0	100
fixed	4	1	8	723690	2	3	3	1	0	1273	1	4	0	120	8	0	0	100
fixed	4	1	9	725889	3	2	2	1	0	836	1	4	0	112	9	0	0	100
fixed	4	1	10	727314	1	4	4	1	0	671	1	4	0	128	10	0	0	100
fixed	4	1	11	728883	5	2	2	1	0	909	1	4	0	112	11	0	0	100
fixed	4	1	12	730278	4	3	3	1	0	962	1	4	0	120	12	0	0	100
fixed	4	2	1	732518	4	1	1	1	0	827	1	4	0	104	13	0	0	100
fixed	4	2	2	733897	1	2	2	1	0	713	1	4	0	112	14	0	0	100
fixed	4	2	3	735203	6	4	4	1	0	649	1	4	0	128	15	0	0	100
fixed	4	2	4	736611	2	1	1	1	0	901	1	4	0	104	16	0	0	100
fixed	4	2	5	738026	5	3	3	1	0	954	1	4	0	120	17	0	0	100
fixed	4	2	6	739714	6	4	4	1	0	810	1	4	0	128	18	0	0	100
fixed	4	2	7	741159	3	1	1	1	0	821	1	4	0	104	19	0	0	100
fixed	4	2	8	742626	2	3	3	1	0	1022	1	4	0	120	20	0	0	100
fixed	4	2	9	744178	3	2	2	1	0	669	1	4	0	112	21	0	0	100
fixed	4	2	10	745872	1	4	4	1	0	701	1	4	0	128	22	0	0	100
fixed	4	2	11	747618	5	2	2	1	0	724	1	4	0	112	23	0	0	100
fixed	4	2	12	748646	4	3	3	1	0	1072	1	4	0	120	24	0	0	100
fixed	4	3	1	750596	4	1	1	1	0	773	1	4	0	104	25	0	0	100
fixed	4	3	2	751986	1	2	2	1	0	722	1	4	0	112	26	0	0	100
fixed	4	3	3	753220	6	4	4	1	0	830	1	4	0	128	27	0	0	100
fixed	4	3	4	754763	2	1	1	1	0	925	1	4	0	104	28	0	0	100
fixed	4	3	5	756270	5	3	3	1	0	997	1	4	0	120	29	0	0	100
fixed	4	3	6	758222	6	4	4	1	0	826	1	4	0	128	30	0	0	100
fixed	4	3	7	759819	3	1	1	1	0	894	1	4	0	104	31	0	0	100
fixed	4	3	8	761344	2	3	3	1	0	1014	1	4	0	120	32	0	0	100
fixed	4	3	9	763188	3	2	2	1	0	864	1	4	0	112	33	0	0	100
fixed	4	3	10	764590	1	4	4	1	0	765	1	4	0	128	34	0	0	100
fixed	4	3	11	765777	5	2	2	1	0	882	1	4	0	112	35	0	0	100
fixed	4	3	12	767483	4	3	3	1	0	1026	1	4	0	120	36	0	0	100
fixed	4	4	1	769760	4	1	1	1	0	929	1	4	0	104	37	0	0	100
fixed	4	4	2	771663	1	2	2	1	0	817	1	4	0	112	38	0	0	100
fixed	4	4	3	773184	6	4	4	1	0	616	1	4	0	128	39	0	0	100
fixed	4	4	4	774363	2	1	1	1	0	903	1	4	0	104	40	0	0	100
fixed	4	4	5	775769	5	3	3	1	0	923	1	4	0	120	41	0	0	100
fixed	4	4	6	777576	6	4	4	1	0	718	1	4	0	128	42	0	0	100
fixed	4	4	7	778701	3	1	1	1	0	751	1	4	0	104	43	0	0	100
fixed	4	4	8	780365	2	3	3	1	0	889	1	4	0	120	44	0	0	100
fixed	4	4	9	781564	3	2	2	1	0	710	1	4	0	112	45	0	0	100
fixed	4	4	10	782725	1	4	4	1	0	676	1	4	0	128	46	0	0	100
fixed	4	4	11	784355	5	2	2	1	0	871	1	4	0	112	47	0	0	100
fixed	4	4	12	786044	4	3	3	1	0	1024	1	4	0	120	48	0	0	100
fixed	4	5	1	787837	4	1	1	1	0	988	1	4	0	104	49	0	0	100
fixed	4	5	2	789734	1	2	2	1	0	884	1	4	0	112	50	0	0	100
fixed	4	5	3	791113	6	4	4	1	0	737	1	4	0	128	51	0	0	100
fixed	4	5	4	792554	2	1	1	1	0	908	1	4	0	104	52	0	0	100
fixed	4	5	5	794005	5	3	3	1	0	926	1	4	0	120	53	0	0	100
fixed	4	5	6	795723	6	4	4	1	0	750	1	4	0	128	54	0	0	100
fixed	4	5	7	797012	3	1	1	1	0	967	1	4	0	104	55	0	0	100
fixed	4	5	8	798618	2	3	3	1	0	851	1	4	0	120	56	0	0	100
fixed	4	5	9	800123	3	2	2	1	0	931	1	4	0	112	57	0	0	100
fixed	4	5	10	801650	1	4	4	1	0	835	1	4	0	128	58	0	0	100
fixed	4	5	11	803367	5	2	2	1	0	706	1	4	0	112	59	0	0	100
fixed	4	5	12	804704	4	3	3	1	0	778	1	4	0	120	60	0	0	100
fixed	4	6	1	806132	4	1	1	1	0	1037	1	4	0	104	61	0	0	100
fixed	4	6	2	807810	1	2	2	1	0	734	1	4	0	112	62	0	0	100
fixed	4	6	3	809288	6	4	4	1	0	919	1	4	0	128	63	0	0	100
fixed	4	6	4	810544	2	1	1	1	0	1090	1	4	0	104	64	0	0	100
fixed	4	6	5	812568	5	3	3	1	0	964	1	4	0	120	65	0	0	100
fixed	4	6	6	814223	6	4	4	1	0	878	1	4	0	128	66	0	0	100
fixed	4	6	7	815590	3	1	1	1	0	1572	1	4	0	104	67	0	0	100
fixed	4	6	8	817871	2	3	3	1	0	1188	1	4	0	120	68	0	0	100
fixed	4	6	9	819499	3	2	2	1	0	719	1	4	0	112	69	0	0	100
fixed	4	6	10	821025	1	4	4	1	0	750	1	4	0	128	70	0	0	100
fixed	4	6	11	822765	5	2	2	1	0	981	1	4	0	112	71	0	0	100
fixed	4	6	12	824434	4	3	3	1	0	1070	1	4	0	120	72	0	0	100
fixed	4	7	1	826683	4	1	1	1	0	814	1	4	0	104	73	0	0	100
fixed	4	7	2	827895	1	2	2	1	0	1139	1	4	0	112	74	0	0	100
fixed	4	7	3	829763	6	4	4	1	0	876	1	4	0	128	75	0	0	100
fixed	4	7	4	831091	2	1	1	1	0	1203	1	4	0	104	76	0	0	100
fixed	4	7	5	832895	5	3	3	1	0	911	1	4	0	120	77	0	0	100
fixed	4	7	6	834389	6	4	4	1	0	808	1	4	0	128	78	0	0	100
fixed	4	7	7	835497	3	1	1	1	0	1033	1	4	0	104	79	0	0	100
fixed	4	7	8	836824	2	3	3	1	0	1001	1	4	0	120	80	0	0	100
fixed	4	7	9	838678	3	2	2	1	0	1042	1	4	0	112	81	0	0	100
fixed	4	7	10	840068	1	4	4	1	0	703	1	4	0	128	82	0	0	100
fixed	4	7	11	841277	5	2	2	1	0	740	1	4	0	112	83	0	0	100
fixed	4	7	12	842933	4	3	3	1	0	846	1	4	0	120	84	0	0	100
fixed	4	8	1	844894	4	1	1	1	0	843	1	4	0	104	85	0	0	100
fixed	4	8	2	846772	1	2	2	1	0	828	1	4	0	112	86	0	0	100
fixed	4	8	3	848281	6	4	4	1	0	636	1	4	0	128	87	0	0	100
fixed	4	8	4	849532	2	1	1	1	0	927	1	4	0	104	88	0	0	100
fixed	4	8	5	851481	5	3	3	1	0	860	1	4	0	120	89	0	0	100
fixed	4	8	6	852887	6	4	4	1	0	825	1	4	0	128	90	0	0	100
fixed	4	8	7	854296	3	1	1	1	0	869	1	4	0	104	91	0	0	100
fixed	4	8	8	856081	2	3	3	1	0	937	1	4	0	120	92	0	0	100
fixed	4	8	9	858011	3	2	2	1	0	991	1	4	0	112	93	0	0	100
fixed	4	8	10	859337	1	4	4	1	0	927	1	4	0	128	94	0	0	100
fixed	4	8	11	861003	5	2	2	1	0	977	1	4	0	112	95	0	0	100
fixed	4	8	12	862339	4	3	3	1	0	960	1	4	0	120	96	0	0	100
fixed	4	9	1	864191	4	1	1	1	0	786	1	4	0	104	97	0	0	100
fixed	4	9	2	865286	1	2	2	1	0	860	1	4	0	112	98	0	0	100
fixed	4	9	3	867080	6	4	4	1	0	631	1	4	0	128	99	0	0	100
fixed	4	9	4	868641	2	1	1	1	0	917	1	4	0	104	100	0	0	100
fixed	4	9	5	870364	5	3	3	1	0	956	1	4	0	120	101	0	0	100
fixed	4	9	6	871968	6	4	4	1	0	664	1	4	0	128	102	0	0	100
fixed	4	9	7	873574	3	1	1	1	0	981	1	4	0	104	103	0	0	100
fixed	4	9	8	875227	2	3	3	1	0	934	1	4	0	120	104	0	0	100
fixed	4	9	9	876779	3	2	2	1	0	1093	1	4	0	112	105	0	0	100
fixed	4	9	10	878188	1	4	4	1	0	873	1	4	0	128	106	0	0	100
fixed	4	9	11	879845	5	2	2	1	0	810	1	4	0	112	107	0	0	100
fixed	4	9	12	881339	4	3	3	1	0	1491	1	4	0	120	108	0	0	100
fixed	4	10	1	883539	4	1	1	1	0	894	1	4	0	104	109	0	0	100
fixed	4	10	2	884994	1	2	2	1	0	856	1	4	0	112	110	0	0	100
fixed	4	10	3	886833	6	4	4	1	0	635	1	4	0	128	111	0	0	100
fixed	4	10	4	888019	2	1	1	1	0	1008	1	4	0	104	112	0	0	100
fixed	4	10	5	889463	5	3	3	1	0	1108	1	4	0	120	113	0	0	100
fixed	4	10	6	890897	6	4	4	1	0	767	1	4	0	128	114	0	0	100
fixed	4	10	7	892520	3	1	1	1	0	970	1	4	0	104	115	0	0	100
fixed	4	10	8	894488	2	3	3	1	0	1135	1	4	0	120	116	0	0	100
fixed	4	10	9	896480	3	2	2	1	0	682	1	4	0	112	117	0	0	100
fixed	4	10	10	897504	1	4	4	1	0	1062	1	4	0	128	118	0	0	100
fixed	4	10	11	899208	5	2	2	1	0	998	1	4	0	112	119	0	0	100
fixed	4	10	12	900720	4	3	3	1	0	2399	1	4	0	120	120	0	0	100
fixed	5	1	1	904655	4	1	1	1	0	952	1	4	0	136	1	0	0	100
fixed	5	1	2	906614	1	2	2	1	0	925	1	4	0	144	2	0	0	100
fixed	5	1	3	908183	6	4	4	1	0	730	1	4	0	160	3	0	0	100
fixed	5	1	4	909729	2	1	1	1	0	865	1	4	0	136	4	0	0	100
fixed	5	1	5	911183	5	3	3	1	0	740	1	4	0	152	5	0	0	100
fixed	5	1	6	912767	6	4	4	1	0	728	1	4	0	160	6	0	0	100
fixed	5	1	7	913912	3	1	1	1	0	880	1	4	0	136	7	0	0	100
fixed	5	1	8	915432	2	3	3	1	0	1007	1	4	0	152	8	0	0	100
fixed	5	1	9	916899	3	2	2	1	0	794	1	4	0	144	9	0	0	100
fixed	5	1	10	918059	1	4	4	1	0	720	1	4	0	160	10	0	0	100
fixed	5	1	11	919376	5	2	2	1	0	856	1	4	0	144	11	0	0	100
fixed	5	1	12	920843	4	3	3	1	0	1003	1	4	0	152	12	0	0	100
fixed	5	2	1	922484	4	1	1	1	0	988	1	4	0	136	13	0	0	100
fixed	5	2	2	924420	1	2	2	1	0	794	1	4	0	144	14	0	0	100
fixed	5	2	3	925585	6	4	4	1	0	1162	1	4	0	160	15	0	0	100
fixed	5	2	4	927441	2	1	1	1	0	827	1	4	0	136	16	0	0	100
fixed	5	2	5	928781	5	3	3	1	0	818	1	4	0	152	17	0	0	100
fixed	5	2	6	930513	6	4	4	1	0	833	1	4	0	160	18	0	0	100
fixed	5	2	7	932217	3	1	1	1	0	1017	1	4	0	136	19	0	0	100
fixed	5	2	8	933713	2	3	3	1	0	1185	1	4	0	152	20	0	0	100
fixed	5	2	9	935732	3	2	2	1	0	859	1	4	0	144	21	0	0	100
fixed	5	2	10	937349	1	4	4	1	0	895	1	4	0	160	22	0	0	100
fixed	5	2	11	938771	5	2	2	1	0	843	1	4	0	144	23	0	0	100
fixed	5	2	12	940292	4	3	3	1	0	890	1	4	0	152	24	0	0	100
fixed	5	3	1	941999	4	1	1	1	0	738	1	4	0	136	25	0	0	100
fixed	5	3	2	943271	1	2	2	1	0	876	1	4	0	144	26	0	0	100
fixed	5	3	3	944778	6	4	4	1	0	1493	1	4	0	160	27	0	0	100
fixed	5	3	4	947310	2	1	1	1	0	921	1	4	0	136	28	0	0	100
fixed	5	3	5	949169	5	3	3	1	0	962	1	4	0	152	29	0	0	100
fixed	5	3	6	950725	6	4	4	1	0	1145	1	4	0	160	30	0	0	100
fixed	5	3	7	952752	3	1	1	1	0	747	1	4	0	136	31	0	0	100
fixed	5	3	8	954207	2	3	3	1	0	917	1	4	0	152	32	0	0	100
fixed	5	3	9	956056	3	2	2	1	0	815	1	4	0	144	33	0	0	100
fixed	5	3	10	957770	1	4	4	1	0	630	1	4	0	160	34	0	0	100
fixed	5	3	11	958949	5	2	2	1	0	828	1	4	0	144	35	0	0	100
fixed	5	3	12	960623	4	3	3	1	0	718	1	4	0	152	36	0	0	100
fixed	5	4	1	962265	4	1	1	1	0	848	1	4	0	136	37	0	0	100
fixed	5	4	2	963604	1	2	2	1	0	879	1	4	0	144	38	0	0	100
fixed	5	4	3	964861	6	4	4	1	0	962	1	4	0	160	39	0	0	100
fixed	5	4	4	966511	2	1	1	1	0	868	1	4	0	136	40	0	0	100
fixed	5	4	5	968070	5	3	3	1	0	1042	1	4	0	152	41	0	0	100
fixed	5	4	6	969480	6	4	4	1	0	814	1	4	0	160	42	0	0	100
fixed	5	4	7	970991	3	1	1	1	0	886	1	4	0	136	43	0	0	100
fixed	5	4	8	972775	2	3	3	1	0	1450	1	4	0	152	44	0	0	100
fixed	5	4	9	974826	3	2	2	1	0	708	1	4	0	144	45	0	0	100
fixed	5	4	10	976443	1	4	4	1	0	752	1	4	0	160	46	0	0	100
fixed	5	4	11	977692	5	2	2	1	0	850	1	4	0	144	47	0	0	100
fixed	5	4	12	979110	4	3	3	1	0	766	1	4	0	152	48	0	0	100
fixed	5	5	1	980694	4	1	1	1	0	795	1	4	0	136	49	0	0	100
fixed	5	5	2	982164	1	2	2	1	0	941	1	4	0	144	50	0	0	100
fixed	5	5	3	983509	6	4	4	1	0	1140	1	4	0	160	51	0	0	100
fixed	5	5	4	985143	2	1	1	1	0	879	1	4	0	136	52	0	0	100
fixed	5	5	5	986983	5	3	3	1	0	961	1	4	0	152	53	0	0	100
fixed	5	5	6	988296	6	4	4	1	0	881	1	4	0	160	54	0	0	100
fixed	5	5	7	989970	3	1	1	1	0	778	1	4	0	136	55	0	0	100
fixed	5	5	8	991747	2	3	3	1	0	1231	1	4	0	152	56	0	0	100
fixed	5	5	9	993870	3	2	2	1	0	757	1	4	0	144	57	0	0	100
fixed	5	5	10	995141	1	4	4	1	0	728	1	4	0	160	58	0	0	100
fixed	5	5	11	996786	5	2	2	1	0	906	1	4	0	144	59	0	0	100
fixed	5	5	12	998185	4	3	3	1	0	1006	1	4	0	152	60	0	0	100
fixed	5	6	1	999924	4	1	1	1	0	828	1	4	0	136	61	0	0	100
fixed	5	6	2	1001701	1	2	2	1	0	786	1	4	0	144	62	0	0	100
fixed	5	6	3	1003401	6	4	4	1	0	641	1	4	0	160	63	0	0	100
fixed	5	6	4	1004344	2	1	1	1	0	1282	1	4	0	136	64	0	0	100
fixed	5	6	5	1006179	5	3	3	1	0	1156	1	4	0	152	65	0	0	100
fixed	5	6	6	1008185	6	4	4	1	0	871	1	4	0	160	66	0	0	100
fixed	5	6	7	1009491	3	1	1	1	0	888	1	4	0	136	67	0	0	100
fixed	5	6	8	1010803	2	3	3	1	0	1056	1	4	0	152	68	0	0	100
fixed	5	6	9	1012759	3	2	2	1	0	757	1	4	0	144	69	0	0	100
fixed	5	6	10	1014372	1	4	4	1	0	889	1	4	0	160	70	0	0	100
fixed	5	6	11	1015678	5	2	2	1	0	793	1	4	0	144	71	0	0	100
fixed	5	6	12	1017170	4	3	3	1	0	1010	1	4	0	152	72	0	0	100
fixed	5	7	1	1019389	4	1	1	1	0	1540	1	4	0	136	73	0	0	100
fixed	5	7	2	1021356	1	2	2	1	0	729	1	4	0	144	74	0	0	100
fixed	5	7	3	1022880	6	4	4	1	0	736	1	4	0	160	75	0	0	100
fixed	5	7	4	1024152	2	1	1	1	0	834	1	4	0	136	76	0	0	100
fixed	5	7	5	1025301	5	3	3	1	0	810	1	4	0	152	77	0	0	100
fixed	5	7	6	1027010	6	4	4	1	0	897	1	4	0	160	78	0	0	100
fixed	5	7	7	1028776	3	1	1	1	0	790	1	4	0	136	79	0	0	100
fixed	5	7	8	1030291	2	3	3	1	0	1023	1	4	0	152	80	0	0	100
fixed	5	7	9	1031654	3	2	2	1	0	645	1	4	0	144	81	0	0	100
fixed	5	7	10	1032808	1	4	4	1	0	676	1	4	0	160	82	0	0	100
fixed	5	7	11	1034440	5	2	2	1	0	647	1	4	0	144	83	0	0	100
fixed	5	7	12	1035966	4	3	3	1	0	710	1	4	0	152	84	0	0	100
fixed	5	8	1	1037851	4	1	1	1	0	734	1	4	0	136	85	0	0	100
fixed	5	8	2	1039076	1	2	2	1	0	819	1	4	0	144	86	0	0	100
fixed	5	8	3	1040816	6	4	4	1	0	649	1	4	0	160	87	0	0	100
fixed	5	8	4	1042136	2	1	1	1	0	929	1	4	0	136	88	0	0	100
fixed	5	8	5	1043536	5	3	3	1	0	821	1	4	0	152	89	0	0	100
fixed	5	8	6	1044820	6	4	4	1	0	759	1	4	0	160	90	0	0	100
fixed	5	8	7	1046369	3	1	1	1	0	709	1	4	0	136	91	0	0	100
fixed	5	8	8	1047403	2	3	3	1	0	962	1	4	0	152	92	0	0	100
fixed	5	8	9	1049194	3	2	2	1	0	710	1	4	0	144	93	0	0	100
fixed	5	8	10	1050846	1	4	4	1	0	736	1	4	0	160	94	0	0	100
fixed	5	8	11	1052139	5	2	2	1	0	673	1	4	0	144	95	0	0	100
fixed	5	8	12	1053744	4	3	3	1	0	1149	1	4	0	152	96	0	0	100
fixed	5	9	1	1055795	4	1	1	1	0	878	1	4	0	136	97	0	0	100
fixed	5	9	2	1057197	1	2	2	1	0	803	1	4	0	144	98	0	0	100
fixed	5	9	3	1058568	6	4	4	1	0	793	1	4	0	160	99	0	0	100
fixed	5	9	4	1059859	2	1	1	1	0	882	1	4	0	136	100	0	0	100
fixed	5	9	5	1061681	5	3	3	1	0	1013	1	4	0	152	101	0	0	100
fixed	5	9	6	1063388	6	4	4	1	0	685	1	4	0	160	102	0	0	100
fixed	5	9	7	1064661	3	1	1	1	0	951	1	4	0	136	103	0	0	100
fixed	5	9	8	1066235	2	3	3	1	0	1132	1	4	0	152	104	0	0	100
fixed	5	9	9	1068285	3	2	2	1	0	862	1	4	0	144	105	0	0	100
fixed	5	9	10	1069602	1	4	4	1	0	782	1	4	0	160	106	0	0	100
fixed	5	9	11	1071167	5	2	2	1	0	779	1	4	0	144	107	0	0	100
fixed	5	9	12	1072349	4	3	3	1	0	753	1	4	0	152	108	0	0	100
fixed	5	10	1	1073755	4	1	1	1	0	757	1	4	0	136	109	0	0	100
fixed	5	10	2	1075445	1	2	2	1	0	806	1	4	0	144	110	0	0	100
fixed	5	10	3	1076706	6	4	4	1	0	689	1	4	0	160	111	0	0	100
fixed	5	10	4	1078230	2	1	1	1	0	840	1	4	0	136	112	0	0	100
fixed	5	10	5	1079639	5	3	3	1	0	1076	1	4	0	152	113	0	0	100
fixed	5	10	6	1081219	6	4	4	1	0	834	1	4	0	160	114	0	0	100
fixed	5	10	7	1082817	3	1	1	1	0	1062	1	4	0	136	115	0	0	100
fixed	5	10	8	1084284	2	3	3	1	0	1087	1	4	0	152	116	0	0	100
fixed	5	10	9	1085806	3	2	2	1	0	783	1	4	0	144	117	0	0	100
fixed	5	10	10	1087480	1	4	4	1	0	776	1	4	0	160	118	0	0	100
fixed	5	10	11	1088620	5	2	2	1	0	992	1	4	0	144	119	0	0	100
fixed	5	10	12	1090597	4	3	3	1	0	796	1	4	0	152	120	0	0	100
random	6	1	1	1201115	6	1	1	1	0	1091	1	4	0	168	1	0	0	100
random	6	1	2	1202631	4	4	4	1	0	827	1	4	0	192	2	0	0	100
random	6	1	3	1204361	2	2	2	1	0	1202	1	4	0	176	3	0	0	100
random	6	1	4	1206403	3	3	3	1	0	779	1	4	0	184	4	0	0	100
random	6	1	5	1207754	5	2	2	1	0	818	1	4	0	176	5	0	0	100
random	6	1	6	1209005	1	4	4	1	0	701	1	4	0	192	6	0	0	100
random	6	1	7	1210100	6	1	1	1	0	799	1	4	0	168	7	0	0	100
random	6	1	8	1211185	2	3	3	1	0	1057	1	4	0	184	8	0	0	100
random	6	1	9	1212947	4	2	2	1	0	614	1	4	0	176	9	0	0	100
random	6	1	10	1214300	1	1	1	1	0	869	1	4	0	168	10	0	0	100
random	6	1	11	1215569	5	4	4	1	0	679	1	4	0	192	11	0	0	100
random	6	1	12	1217226	3	3	3	1	0	1401	1	4	0	184	12	0	0	100
random	6	1	13	1219663	5	2	2	1	0	849	1	4	0	176	13	0	0	100
random	6	1	14	1220890	1	4	4	1	0	702	1	4	0	192	14	0	0	100
random	6	1	15	1222081	3	1	1	1	0	947	1	4	0	168	15	0	0	100
random	6	1	16	1223649	4	3	3	1	0	657	1	4	0	184	16	0	0	100
random	6	1	17	1225037	6	4	4	1	0	846	1	4	0	192	17	0	0	100
random	6	1	18	1226721	2	1	1	1	0	775	1	4	0	168	18	0	0	100
random	6	1	19	1228336	5	3	3	1	0	834	1	4	0	184	19	0	0	100
random	6	1	20	1230021	2	2	2	1	0	651	1	4	0	176	20	0	0	100
random	6	1	21	1231640	3	3	3	1	0	814	1	4	0	184	21	0	0	100
random	6	1	22	1233185	6	1	1	1	0	877	1	4	0	168	22	0	0	100
random	6	1	23	1235069	4	2	2	1	0	797	1	4	0	176	23	0	0	100
random	6	1	24	1236785	1	4	4	1	0	645	1	4	0	192	24	0	0	100
random	6	1	25	1238159	4	3	3	1	0	970	1	4	0	184	25	0	0	100
random	6	1	26	1240100	2	1	1	1	0	840	1	4	0	168	26	0	0	100
random	6	1	27	1241932	5	2	2	1	0	1010	1	4	0	176	27	0	0	100
random	6	1	28	1243337	6	4	4	1	0	751	1	4	0	192	28	0	0	100
random	6	1	29	1244920	1	3	3	1	0	964	1	4	0	184	29	0	0	100
random	6	1	30	1246297	5	2	2	1	0	729	1	4	0	176	30	0	0	100
random	6	1	31	1247711	2	1	1	1	0	878	1	4	0	168	31	0	0	100
random	6	1	32	1249323	3	3	3	1	0	866	1	4	0	184	32	0	0	100
random	6	1	33	1251137	6	4	4	1	0	893	1	4	0	192	33	0	0	100
random	6	1	34	1252479	4	2	2	1	0	892	1	4	0	176	34	0	0	100
random	6	1	35	1254017	3	4	4	1	0	1098	1	4	0	192	35	0	0	100
random	6	1	36	1255939	1	1	1	1	0	849	1	4	0	168	36	0	0	100
random	6	1	37	1257991	3	4	4	1	0	858	1	4	0	192	37	0	0	100
random	6	1	38	1259348	5	3	3	1	0	976	1	4	0	184	38	0	0	100
random	6	1	39	1261247	6	1	1	1	0	936	1	4	0	168	39	0	0	100
random	6	1	40	1262560	1	2	2	1	0	689	1	4	0	176	40	0	0	100
random	6	1	41	1263808	2	3	3	1	0	892	1	4	0	184	41	0	0	100
random	6	1	42	1265465	4	4	4	1	0	830	1	4	0	192	42	0	0	100
random	6	1	43	1266824	1	2	2	1	0	996	1	4	0	176	43	0	0	100
random	6	1	44	1268382	6	3	3	1	0	866	1	4	0	184	44	0	0	100
random	6	1	45	1269913	3	1	1	1	0	1113	1	4	0	168	45	0	0	100
random	6	1	46	1271814	4	4	4	1	0	665	1	4	0	192	46	0	0	100
random	6	1	47	1273121	2	2	2	1	0	850	1	4	0	176	47	0	0	100
random	6	1	48	1274272	5	1	1	1	0	1217	1	4	0	168	48	0	0	100
random	6	1	49	1276503	2	3	3	1	0	1026	1	4	0	184	49	0	0	100
random	6	1	50	1278304	3	1	1	1	0	1174	1	4	0	168	50	0	0	100
random	6	1	51	1279862	1	4	4	1	0	676	1	4	0	192	51	0	0	100
random	6	1	52	1281528	5	3	3	1	0	1110	1	4	0	184	52	0	0	100
random	6	1	53	1283308	3	2	2	1	0	890	1	4	0	176	53	0	0	100
random	6	1	54	1285039	6	4	4	1	0	688	1	4	0	192	54	0	0	100
random	6	1	55	1286751	4	2	2	1	0	856	1	4	0	176	55	0	0	100
random	6	1	56	1288152	1	1	1	1	0	765	1	4	0	168	56	0	0	100
random	6	1	57	1289252	5	4	4	1	0	654	1	4	0	192	57	0	0	100
random	6	1	58	1290228	2	1	1	1	0	837	1	4	0	168	58	0	0	100
random	6	1	59	1291367	6	2	2	1	0	1053	1	4	0	176	59	0	0	100
random	6	1	60	1292871	4	3	3	1	0	733	1	4	0	184	60	0	0	100
random	6	1	61	1294848	1	2	2	1	0	1097	1	4	0	176	61	0	0	100
random	6	1	62	1296832	6	4	4	1	0	717	1	4	0	192	62	0	0	100
random	6	1	63	1298316	4	1	1	1	0	894	1	4	0	168	63	0	0	100
random	6	1	64	1300043	2	2	2	1	0	877	1	4	0	176	64	0	0	100
random	6	1	65	1301871	4	3	3	1	0	880	1	4	0	184	65	0	0	100
random	6	1	66	1303116	3	1	1	1	0	947	1	4	0	168	66	0	0	100
random	6	1	67	1304980	1	3	3	1	0	932	1	4	0	184	67	0	0	100
random	6	1	68	1306920	5	4	4	1	0	874	1	4	0	192	68	0	0	100
random	6	1	69	1308135	2	2	2	1	0	814	1	4	0	176	69	0	0	100
random	6	1	70	1309431	3	1	1	1	0	983	1	4	0	168	70	0	0	100
random	6	1	71	1311055	5	4	4	1	0	762	1	4	0	192	71	0	0	100
random	6	1	72	1312656	6	3	3	1	0	1007	1	4	0	184	72	0	0	100
random	6	1	73	1314262	2	1	1	1	0	827	1	4	0	168	73	0	0	100
random	6	1	74	1315962	5	3	3	1	0	947	1	4	0	184	74	0	0	100
random	6	1	75	1317838	1	4	4	1	0	683	1	4	0	192	75	0	0	100
random	6	1	76	1319179	6	2	2	1	0	867	1	4	0	176	76	0	0	100
random	6	1	77	1320835	2	1	1	1	0	884	1	4	0	168	77	0	0	100
random	6	1	78	1322434	4	4	4	1	0	809	1	4	0	192	78	0	0	100
random	6	1	79	1324051	3	2	2	1	0	788	1	4	0	176	79	0	0	100
random	6	1	80	1325321	4	3	3	1	0	790	1	4	0	184	80	0	0	100
random	6	1	81	1326948	1	4	4	1	0	793	1	4	0	192	81	0	0	100
random	6	1	82	1328404	5	1	1	1	0	900	1	4	0	168	82	0	0	100
random	6	1	83	1329695	3	2	2	1	0	893	1	4	0	176	83	0	0	100
random	6	1	84	1331505	6	3	3	1	0	872	1	4	0	184	84	0	0	100
random	6	1	85	1333209	3	2	2	1	0	1112	1	4	0	176	85	0	0	100
random	6	1	86	1334869	1	3	3	1	0	778	1	4	0	184	86	0	0	100
random	6	1	87	1336572	4	4	4	1	0	1450	1	4	0	192	87	0	0	100
random	6	1	88	1338476	2	1	1	1	0	713	1	4	0	168	88	0	0	100
random	6	1	89	1339613	6	4	4	1	0	729	1	4	0	192	89	0	0	100
random	6	1	90	1341351	3	3	3	1	0	951	1	4	0	184	90	0	0	100
random	6	1	91	1343222	5	4	4	1	0	808	1	4	0	192	91	0	0	100
random	6	1	92	1345053	1	2	2	1	0	962	1	4	0	176	92	0	0	100
random	6	1	93	1346516	5	1	1	1	0	1157	1	4	0	168	93	0	0	100
random	6	1	94	1348285	4	3	3	1	0	890	1	4	0	184	94	0	0	100
random	6	1	95	1350111	6	1	1	1	0	909	1	4	0	168	95	0	0	100
random	6	1	96	1351695	2	2	2	1	0	841	1	4	0	176	96	0	0	100
random	6	1	97	1353158	4	3	0	1	2	0	3	4	0	184	96	0	1	99
random	6	1	98	1356008	3	2	2	2	0	1155	2	4	0	176	97	0	1	99
random	6	1	99	1357953	6	3	3	1	0	920	1	4	0	184	98	0	1	99
random	6	1	100	1359486	1	4	4	1	0	1584	1	4	0	192	99	0	1	99
random	6	1	101	1361858	4	1	1	1	0	1195	1	4	0	168	100	0	1	99
random	6	1	102	1363981	5	2	2	1	0	881	1	4	0	176	101	0	1	99
random	6	1	103	1365746	2	4	4	1	0	774	1	4	0	192	102	0	1	99
random	6	1	104	1367389	3	1	1	1	0	929	1	4	0	168	103	0	1	99
random	6	1	105	1368666	1	3	3	1	0	1178	1	4	0	184	104	0	1	99
random	6	1	106	1370188	2	2	2	1	0	802	1	4	0	176	105	0	1	99
random	6	1	107	1371739	5	4	4	1	0	776	1	4	0	192	106	0	1	99
random	6	1	108	1372942	6	1	1	1	0	789	1	4	0	168	107	0	1	99
random	6	1	109	1374560	5	4	4	1	0	785	1	4	0	192	108	0	1	99
random	6	1	110	1375961	6	3	3	1	0	1173	1	4	0	184	109	0	1	99
random	6	1	111	1377436	2	2	2	1	0	783	1	4	0	176	110	0	1	99
random	6	1	112	1378767	3	1	1	1	0	967	1	4	0	168	111	0	1	99
random	6	1	113	1380473	1	2	2	1	0	1622	1	4	0	176	112	0	1	99
random	6	1	114	1382434	2	3	3	1	0	795	1	4	0	184	113	0	1	99
random	6	1	115	1383789	3	1	1	1	0	762	1	4	0	168	114	0	1	99
random	6	1	116	1384978	4	4	4	1	0	728	1	4	0	192	115	0	1	99
random	6	1	117	1386523	6	1	1	1	0	1102	1	4	0	168	116	0	1	99
random	6	1	118	1388293	5	3	3	1	0	883	1	4	0	184	117	0	1	99
random	6	1	119	1389608	1	4	4	1	0	1428	1	4	0	192	118	0	1	99
random	6	1	120	1391828	4	2	2	1	0	838	1	4	0	176	119	0	1	99
fixed	7	1	1	1394056	4	1	1	1	0	935	1	4	0	200	1	0	0	100
fixed	7	1	2	1395631	1	2	2	1	0	852	1	4	0	208	2	0	0	100
fixed	7	1	3	1396964	6	4	4	1	0	676	1	4	0	224	3	0	0	100
fixed	7	1	4	1398092	2	1	1	1	0	980	1	4	0	200	4	0	0	100
fixed	7	1	5	1399591	5	3	3	1	0	869	1	4	0	216	5	0	0	100
fixed	7	1	6	1401265	6	4	4	1	0	774	1	4	0	224	6	0	0	100
fixed	7	1	7	1402412	3	1	1	1	0	949	1	4	0	200	7	0	0	100
fixed	7	1	8	1403905	2	3	3	1	0	870	1	4	0	216	8	0	0	100
fixed	7	1	9	1405266	3	2	2	1	0	1140	1	4	0	208	9	0	0	100
fixed	7	1	10	1406960	1	4	4	1	0	804	1	4	0	224	10	0	0	100
fixed	7	1	11	1408328	5	2	2	1	0	1026	1	4	0	208	11	0	0	100
fixed	7	1	12	1410009	4	3	3	1	0	1260	1	4	0	216	12	0	0	100
fixed	7	2	1	1412136	4	1	1	1	0	801	1	4	0	200	1	0	0	8
fixed	7	2	2	1413678	1	2	2	1	0	880	1	4	0	208	2	0	0	14
fixed	7	2	3	1414865	6	4	4	1	0	1062	1	4	0	224	3	0	0	20
fixed	7	2	4	1416642	2	1	1	1	0	891	1	4	0	200	4	0	0	25
fixed	7	2	5	1418363	5	3	3	1	0	938	1	4	0	216	5	0	0	29
fixed	7	2	6	1419646	6	4	4	1	0	723	1	4	0	224	6	0	0	33
fixed	7	2	7	1421207	3	1	1	1	0	1017	1	4	0	200	7	0	0	37
fixed	7	2	8	1422868	2	3	3	1	0	931	1	4	0	216	8	0	0	40
fixed	7	2	9	1424779	3	2	2	1	0	818	1	4	0	208	9	0	0	43
fixed	7	2	10	1426019	1	4	4	1	0	1109	1	4	0	224	10	0	0	45
fixed	7	2	11	1427753	5	2	2	1	0	868	1	4	0	208	11	0	0	48
fixed	7	2	12	1429280	4	3	3	1	0	1027	1	4	0	216	12	0	0	50
fixed	7	3	1	1430999	4	1	1	1	0	874	1	4	0	200	1	0	0	4
fixed	7	3	2	1432666	1	2	2	1	0	956	1	4	0	208	2	0	0	8
fixed	7	3	3	1434173	6	4	4	1	0	1164	1	4	0	224	3	0	0	11
fixed	7	3	4	1435822	2	1	1	1	0	1046	1	4	0	200	4	0	0	14
fixed	7	3	5	1437341	5	3	3	1	0	846	1	4	0	216	5	0	0	17
fixed	7	3	6	1438986	6	4	4	1	0	792	1	4	0	224	6	0	0	20
fixed	7	3	7	1440440	3	1	1	1	0	874	1	4	0	200	7	0	0	23
fixed	7	3	8	1441732	2	3	3	1	0	868	1	4	0	216	8	0	0	25
fixed	7	3	9	1443142	3	2	2	1	0	1000	1	4	0	208	9	0	0	27
fixed	7	3	10	1445152	1	4	4	1	0	963	1	4	0	224	10	0	0	29
fixed	7	3	11	1446724	5	2	2	1	0	1232	1	4	0	208	11	0	0	31
fixed	7	3	12	1448446	4	3	3	1	0	815	1	4	0	216	12	0	0	33
fixed	7	4	1	1450213	4	1	1	1	0	1036	1	4	0	200	1	0	0	3
fixed	7	4	2	1452292	1	2	2	1	0	1101	1	4	0	208	2	0	0	5
fixed	7	4	3	1454199	6	4	4	1	0	708	1	4	0	224	3	0	0	8
fixed	7	4	4	1455196	2	1	1	1	0	1105	1	4	0	200	4	0	0	10
fixed	7	4	5	1457015	5	3	3	1	0	692	1	4	0	216	5	0	0	12
fixed	7	4	6	1458350	6	4	4	1	0	884	1	4	0	224	6	0	0	14
fixed	7	4	7	1459747	3	1	1	1	0	969	1	4	0	200	7	0	0	16
fixed	7	4	8	1461302	2	3	3	1	0	1463	1	4	0	216	8	0	0	18
fixed	7	4	9	1463647	3	2	2	1	0	867	1	4	0	208	9	0	0	20
fixed	7	4	10	1465002	1	4	4	1	0	778	1	4	0	224	10	0	0	22
fixed	7	4	11	1466685	5	2	2	1	0	779	1	4	0	208	11	0	0	23
fixed	7	4	12	1467908	4	3	3	1	0	1087	1	4	0	216	12	0	0	25
fixed	7	5	1	1470262	4	1	1	1	0	963	1	4	0	200	1	0	0	2
fixed	7	5	2	1472100	1	2	2	1	0	813	1	4	0	208	2	0	0	4
fixed	7	5	3	1473752	6	4	4	1	0	831	1	4	0	224	3	0	0	6
fixed	7	5	4	1475573	2	1	1	1	0	1186	1	4	0	200	4	0	0	8
fixed	7	5	5	1477415	5	3	3	1	0	812	1	4	0	216	5	0	0	9
fixed	7	5	6	1478611	6	4	4	1	0	930	1	4	0	224	6	0	0	11
fixed	7	5	7	1480241	3	1	1	1	0	797	1	4	0	200	7	0	0	13
fixed	7	5	8	1481332	2	3	3	1	0	1231	1	4	0	216	8	0	0	14
fixed	7	5	9	1482940	3	2	2	1	0	811	1	4	0	208	9	0	0	16
fixed	7	5	10	1484538	1	4	4	1	0	871	1	4	0	224	10	0	0	17
fixed	7	5	11	1485954	5	2	2	1	0	787	1	4	0	208	11	0	0	19
fixed	7	5	12	1487663	4	3	3	1	0	770	1	4	0	216	12	0	0	20
fixed	7	6	1	1489375	4	1	1	1	0	922	1	4	0	200	1	0	0	2
fixed	7	6	2	1491254	1	2	2	1	0	866	1	4	0	208	2	0	0	3
fixed	7	6	3	1492841	6	4	4	1	0	735	1	4	0	224	3	0	0	5
fixed	7	6	4	1494000	2	1	1	1	0	854	1	4	0	200	4	0	0	6
fixed	7	6	5	1495367	5	3	3	1	0	996	1	4	0	216	5	0	0	8
fixed	7	6	6	1496939	6	4	4	1	0	882	1	4	0	224	6	0	0	9
fixed	7	6	7	1498270	3	1	1	1	0	897	1	4	0	200	7	0	0	10
fixed	7	6	8	1500194	2	3	3	1	0	1216	1	4	0	216	8	0	0	12
fixed	7	6	9	1501772	3	2	2	1	0	732	1	4	0	208	9	0	0	13
fixed	7	6	10	1503072	1	4	4	1	0	766	1	4	0	224	10	0	0	14
fixed	7	6	11	1504641	5	2	2	1	0	1107	1	4	0	208	11	0	0	15
fixed	7	6	12	1506425	4	3	3	1	0	856	1	4	0	216	12	0	0	17
fixed	7	7	1	1508205	4	1	1	1	0	884	1	4	0	200	1	0	0	1
fixed	7	7	2	1509525	1	2	2	1	0	1020	1	4	0	208	2	0	0	3
fixed	7	7	3	1511032	6	4	4	1	0	756	1	4	0	224	3	0	0	4
fixed	7	7	4	1512533	2	1	1	1	0	1845	1	4	0	200	4	0	0	5
fixed	7	7	5	1515101	5	3	3	1	0	1856	1	4	0	216	5	0	0	6
fixed	7	7	6	1517555	6	4	4	1	0	1368	1	4	0	224	6	0	0	8
fixed	7	7	7	1519522	3	1	1	1	0	797	1	4	0	200	7	0	0	9
fixed	7	7	8	1521105	2	3	3	1	0	1146	1	4	0	216	8	0	0	10
fixed	7	7	9	1522767	3	2	2	1	0	796	1	4	0	208	9	0	0	11
fixed	7	7	10	1523981	1	4	4	1	0	1168	1	4	0	224	10	0	0	12
fixed	7	7	11	1526121	5	2	2	1	0	861	1	4	0	208	11	0	0	13
fixed	7	7	12	1527798	4	3	3	1	0	1583	1	4	0	216	12	0	0	14
fixed	7	8	1	1530042	4	1	1	1	0	927	1	4	0	200	1	0	0	1
fixed	7	8	2	1531445	1	2	2	1	0	1020	1	4	0	208	2	0	0	2
fixed	7	8	3	1533405	6	4	4	1	0	889	1	4	0	224	3	0	0	3
fixed	7	8	4	1535070	2	1	1	1	0	818	1	4	0	200	4	0	0	5
fixed	7	8	5	1536469	5	3	3	1	0	663	1	4	0	216	5	0	0	6
fixed	7	8	6	1537944	6	4	4	1	0	728	1	4	0	224	6	0	0	7
fixed	7	8	7	1539106	3	1	1	1	0	1256	1	4	0	200	7	0	0	8
fixed	7	8	8	1540895	2	3	3	1	0	1132	1	4	0	216	8	0	0	9
fixed	7	8	9	1542530	3	2	2	1	0	1126	1	4	0	208	9	0	0	10
fixed	7	8	10	1544606	1	4	4	1	0	927	1	4	0	224	10	0	0	11
fixed	7	8	11	1546300	5	2	2	1	0	887	1	4	0	208	11	0	0	12
fixed	7	8	12	1548134	4	3	3	1	0	1033	1	4	0	216	12	0	0	13
fixed	7	9	1	1549891	4	1	1	1	0	1110	1	4	0	200	1	0	0	1
fixed	7	9	2	1551438	1	2	2	1	0	837	1	4	0	208	2	0	0	2
fixed	7	9	3	1553171	6	4	4	1	0	636	1	4	0	224	3	0	0	3
fixed	7	9	4	1554236	2	1	1	1	0	1166	1	4	0	200	4	0	0	4
fixed	7	9	5	1555807	5	3	3	1	0	1444	1	4	0	216	5	0	0	5
fixed	7	9	6	1557885	6	4	4	1	0	1764	1	4	0	224	6	0	0	6
fixed	7	9	7	1560352	3	1	1	1	0	763	1	4	0	200	7	0	0	7
fixed	7	9	8	1561514	2	3	3	1	0	1115	1	4	0	216	8	0	0	8
fixed	7	9	9	1562953	3	2	2	1	0	621	1	4	0	208	9	0	0	9
fixed	7	9	10	1564365	1	4	4	1	0	906	1	4	0	224	10	0	0	9
fixed	7	9	11	1565628	5	2	2	1	0	716	1	4	0	208	11	0	0	10
fixed	7	9	12	1566910	4	3	3	1	0	758	1	4	0	216	12	0	0	11
fixed	7	10	1	1568319	4	1	1	1	0	858	1	4	0	200	1	0	0	1
fixed	7	10	2	1569718	1	2	0	1	2	0	3	4	0	208	1	0	1	1
fixed	7	10	3	1572957	6	4	0	0	2	0	3	4	0	224	1	0	2	1
fixed	7	10	4	1576103	2	1	1	1	0	912	1	4	0	200	2	0	2	2
fixed	7	10	5	1577509	5	3	3	1	0	941	1	4	0	216	3	0	2	3
fixed	7	10	6	1578856	6	4	4	1	0	900	1	4	0	224	4	0	2	4
fixed	7	10	7	1580460	3	1	1	1	0	864	1	4	0	200	5	0	2	4
fixed	7	10	8	1582248	2	3	0	1	2	0	3	4	0	216	5	0	3	4
fixed	7	10	9	1585662	3	2	2	1	0	1123	1	4	0	208	6	0	3	5
fixed	7	10	10	1587154	1	4	4	1	0	1916	1	4	0	224	7	0	3	6
fixed	7	10	11	1589923	5	2	2	1	0	767	1	4	0	208	8	0	3	7
fixed	7	10	12	1591339	4	3	3	1	0	995	1	4	0	216	9	0	3	8
