type	block	sequ.	trial	time	Pos.	Color	Button	NumRsp	Resp_1	RT_1	R_Code	Resp_2	RT_2	Trigg.	n_hit	n_inc	n_miss	score_%

random	1	1	1	2198	6	1	1	1	0	1064	1	4	0	8	1	0	0	100
random	1	1	2	3567	4	4	4	1	0	1351	1	4	0	32	2	0	0	100
random	1	1	3	5791	2	2	2	1	0	1032	1	4	0	16	3	0	0	100
random	1	1	4	7728	3	3	3	1	0	1430	1	4	0	24	4	0	0	100
random	1	1	5	9563	5	2	2	1	0	937	1	4	0	16	5	0	0	100
random	1	1	6	10947	1	4	4	1	0	758	1	4	0	32	6	0	0	100
random	1	1	7	12591	6	1	1	1	0	912	1	4	0	8	7	0	0	100
random	1	1	8	13864	2	3	3	1	0	1194	1	4	0	24	8	0	0	100
random	1	1	9	16082	4	2	2	1	0	772	1	4	0	16	9	0	0	100
random	1	1	10	17525	1	1	1	1	0	903	1	4	0	8	10	0	0	100
random	1	1	11	18829	5	4	4	1	0	752	1	4	0	32	11	0	0	100
random	1	1	12	19992	3	3	3	1	0	1070	1	4	0	24	12	0	0	100
random	1	1	13	21747	5	2	2	1	0	780	1	4	0	16	13	0	0	100
random	1	1	14	23370	1	4	4	1	0	767	1	4	0	32	14	0	0	100
random	1	1	15	25164	3	1	1	1	0	1036	1	4	0	8	15	0	0	100
random	1	1	16	26903	4	3	3	1	0	1074	1	4	0	24	16	0	0	100
random	1	1	17	28887	6	4	4	1	0	942	1	4	0	32	17	0	0	100
random	1	1	18	30270	2	1	1	1	0	883	1	4	0	8	18	0	0	100
random	1	1	19	31667	5	3	3	1	0	928	1	4	0	24	19	0	0	100
random	1	1	20	33493	2	2	2	1	0	763	1	4	0	16	20	0	0	100
random	1	1	21	34719	3	3	3	1	0	1047	1	4	0	24	21	0	0	100
random	1	1	22	36560	6	1	1	1	0	1233	1	4	0	8	22	0	0	100
random	1	1	23	38467	4	2	2	1	0	864	1	4	0	16	23	0	0	100
random	1	1	24	40281	1	4	4	1	0	763	1	4	0	32	24	0	0	100
random	1	1	25	41964	4	3	3	1	0	892	1	4	0	24	25	0	0	100
random	1	1	26	43186	2	1	1	1	0	816	1	4	0	8	26	0	0	100
random	1	1	27	44734	5	2	2	1	0	751	1	4	0	16	27	0	0	100
random	1	1	28	45796	6	4	4	1	0	1594	1	4	0	32	28	0	0	100
random	1	1	29	47974	1	3	3	1	0	846	1	4	0	24	29	0	0	100
random	1	1	30	49308	5	2	2	1	0	709	1	4	0	16	30	0	0	100
random	1	1	31	50576	2	1	1	1	0	823	1	4	0	8	31	0	0	100
random	1	1	32	51898	3	3	3	1	0	1015	1	4	0	24	32	0	0	100
random	1	1	33	53251	6	4	4	1	0	838	1	4	0	32	33	0	0	100
random	1	1	34	54616	4	2	2	1	0	732	1	4	0	16	34	0	0	100
random	1	1	35	56039	3	4	4	1	0	736	1	4	0	32	35	0	0	100
random	1	1	36	57720	1	1	1	1	0	944	1	4	0	8	36	0	0	100
random	1	1	37	59341	3	4	4	1	0	756	1	4	0	32	37	0	0	100
random	1	1	38	60791	5	3	3	1	0	935	1	4	0	24	38	0	0	100
random	1	1	39	62607	6	1	1	1	0	1034	1	4	0	8	39	0	0	100
random	1	1	40	64660	1	2	2	1	0	779	1	4	0	16	40	0	0	100
random	1	1	41	66302	2	3	3	1	0	789	1	4	0	24	41	0	0	100
random	1	1	42	68066	4	4	4	1	0	850	1	4	0	32	42	0	0	100
random	1	1	43	69774	1	2	2	1	0	714	1	4	0	16	43	0	0	100
random	1	1	44	70976	6	3	3	1	0	823	1	4	0	24	44	0	0	100
random	1	1	45	72791	3	1	1	1	0	970	1	4	0	8	45	0	0	100
random	1	1	46	74402	4	4	4	1	0	670	1	4	0	32	46	0	0	100
random	1	1	47	75464	2	2	2	1	0	793	1	4	0	16	47	0	0	100
random	1	1	48	77218	5	1	1	1	0	1070	1	4	0	8	48	0	0	100
random	1	1	49	79206	2	3	3	1	0	986	1	4	0	24	49	0	0	100
random	1	1	50	81089	3	1	1	1	0	891	1	4	0	8	50	0	0	100
random	1	1	51	82449	1	4	4	1	0	849	1	4	0	32	51	0	0	100
random	1	1	52	84270	5	3	3	1	0	1108	1	4	0	24	52	0	0	100
random	1	1	53	85745	3	2	2	1	0	638	1	4	0	16	53	0	0	100
random	1	1	54	87147	6	4	4	1	0	738	1	4	0	32	54	0	0	100
random	1	1	55	88486	4	2	0	1	2	0	3	4	0	16	54	0	1	98
random	1	1	56	91871	1	1	1	1	0	914	1	4	0	8	55	0	1	98
random	1	1	57	93525	5	4	4	1	0	1236	1	4	0	32	56	0	1	98
random	1	1	58	95462	2	1	1	1	0	1090	1	4	0	8	57	0	1	98
random	1	1	59	96954	6	2	2	1	0	1115	1	4	0	16	58	0	1	98
random	1	1	60	98870	4	3	3	1	0	809	1	4	0	24	59	0	1	98
random	1	1	61	100441	1	2	2	1	0	1143	1	4	0	16	60	0	1	98
random	1	1	62	101967	6	4	4	1	0	1126	1	4	0	32	61	0	1	98
random	1	1	63	103580	4	1	1	1	0	1114	1	4	0	8	62	0	1	98
random	1	1	64	105027	2	2	2	1	0	893	1	4	0	16	63	0	1	98
random	1	1	65	106601	4	3	3	1	0	954	1	4	0	24	64	0	1	98
random	1	1	66	107925	3	1	1	1	0	954	1	4	0	8	65	0	1	98
random	1	1	67	109572	1	3	3	1	0	1156	1	4	0	24	66	0	1	99
random	1	1	68	111676	5	4	4	1	0	891	1	4	0	32	67	0	1	99
random	1	1	69	113365	2	2	2	1	0	812	1	4	0	16	68	0	1	99
random	1	1	70	114471	3	1	1	1	0	1133	1	4	0	8	69	0	1	99
random	1	1	71	115978	5	4	4	1	0	1077	1	4	0	32	70	0	1	99
random	1	1	72	117542	6	3	3	1	0	1003	1	4	0	24	71	0	1	99
random	1	1	73	119488	2	1	1	1	0	1016	1	4	0	8	72	0	1	99
random	1	1	74	120918	5	3	3	1	0	892	1	4	0	24	73	0	1	99
random	1	1	75	122695	1	4	4	1	0	832	1	4	0	32	74	0	1	99
random	1	1	76	124137	6	2	2	1	0	779	1	4	0	16	75	0	1	99
random	1	1	77	125787	2	1	1	1	0	909	1	4	0	8	76	0	1	99
random	1	1	78	127404	4	4	4	1	0	889	1	4	0	32	77	0	1	99
random	1	1	79	129114	3	2	2	1	0	841	1	4	0	16	78	0	1	99
random	1	1	80	130770	4	3	3	1	0	722	1	4	0	24	79	0	1	99
random	1	1	81	131919	1	4	4	1	0	938	1	4	0	32	80	0	1	99
random	1	1	82	133459	5	1	1	1	0	864	1	4	0	8	81	0	1	99
random	1	1	83	134773	3	2	2	1	0	857	1	4	0	16	82	0	1	99
random	1	1	84	135929	6	3	3	1	0	1064	1	4	0	24	83	0	1	99
random	1	1	85	137566	3	2	2	1	0	874	1	4	0	16	84	0	1	99
random	1	1	86	139213	1	3	3	1	0	861	1	4	0	24	85	0	1	99
random	1	1	87	141023	4	4	4	1	0	848	1	4	0	32	86	0	1	99
random	1	1	88	142679	2	1	1	1	0	714	1	4	0	8	87	0	1	99
random	1	1	89	143744	6	4	4	1	0	781	1	4	0	32	88	0	1	99
random	1	1	90	144926	3	3	3	1	0	1035	1	4	0	24	89	0	1	99
random	1	1	91	146293	5	4	4	1	0	921	1	4	0	32	90	0	1	99
random	1	1	92	148072	1	2	2	1	0	838	1	4	0	16	91	0	1	99
random	1	1	93	149804	5	1	1	1	0	1020	1	4	0	8	92	0	1	99
random	1	1	94	151284	4	3	3	1	0	1062	1	4	0	24	93	0	1	99
random	1	1	95	153054	6	1	1	1	0	1058	1	4	0	8	94	0	1	99
random	1	1	96	154572	2	2	2	1	0	1450	1	4	0	16	95	0	1	99
random	1	1	97	156830	4	3	3	1	0	930	1	4	0	24	96	0	1	99
random	1	1	98	158355	3	2	2	1	0	1138	1	4	0	16	97	0	1	99
random	1	1	99	160238	6	3	3	1	0	890	1	4	0	24	98	0	1	99
random	1	1	100	161437	1	4	4	1	0	808	1	4	0	32	99	0	1	99
random	1	1	101	162826	4	1	1	1	0	733	1	4	0	8	100	0	1	99
random	1	1	102	163873	5	2	2	1	0	977	1	4	0	16	101	0	1	99
random	1	1	103	165286	2	4	4	1	0	980	1	4	0	32	102	0	1	99
random	1	1	104	167098	3	1	1	1	0	904	1	4	0	8	103	0	1	99
random	1	1	105	168739	1	3	3	1	0	859	1	4	0	24	104	0	1	99
random	1	1	106	170503	2	2	2	1	0	848	1	4	0	16	105	0	1	99
random	1	1	107	172077	5	4	4	1	0	741	1	4	0	32	106	0	1	99
random	1	1	108	173266	6	1	1	1	0	731	1	4	0	8	107	0	1	99
random	1	1	109	174957	5	4	4	1	0	963	1	4	0	32	108	0	1	99
random	1	1	110	176363	6	3	3	1	0	967	1	4	0	24	109	0	1	99
random	1	1	111	177842	2	2	2	1	0	713	1	4	0	16	110	0	1	99
random	1	1	112	178974	3	1	1	1	0	865	1	4	0	8	111	0	1	99
random	1	1	113	180575	1	2	2	1	0	853	1	4	0	16	112	0	1	99
random	1	1	114	181760	2	3	3	1	0	875	1	4	0	24	113	0	1	99
random	1	1	115	183169	3	1	1	1	0	967	1	4	0	8	114	0	1	99
random	1	1	116	184769	4	4	4	1	0	971	1	4	0	32	115	0	1	99
random	1	1	117	186310	6	1	1	1	0	962	1	4	0	8	116	0	1	99
random	1	1	118	187802	5	3	3	1	0	1075	1	4	0	24	117	0	1	99
random	1	1	119	189165	1	4	4	1	0	993	1	4	0	32	118	0	1	99
random	1	1	120	190627	4	2	2	1	0	875	1	4	0	16	119	0	1	99
fixed	2	1	1	192833	4	1	1	1	0	1070	1	4	0	40	1	0	0	100
fixed	2	1	2	194763	1	2	2	1	0	820	1	4	0	48	2	0	0	100
fixed	2	1	3	196394	6	4	4	1	0	743	1	4	0	64	3	0	0	100
fixed	2	1	4	197571	2	1	1	1	0	957	1	4	0	40	4	0	0	100
fixed	2	1	5	199182	5	3	3	1	0	929	1	4	0	56	5	0	0	100
fixed	2	1	6	200713	6	4	4	1	0	832	1	4	0	64	6	0	0	100
fixed	2	1	7	201918	3	1	1	1	0	957	1	4	0	40	7	0	0	100
fixed	2	1	8	203463	2	3	3	1	0	1075	1	4	0	56	8	0	0	100
fixed	2	1	9	205414	3	2	2	1	0	801	1	4	0	48	9	0	0	100
fixed	2	1	10	206939	1	4	4	1	0	888	1	4	0	64	10	0	0	100
fixed	2	1	11	208575	5	2	2	1	0	851	1	4	0	48	11	0	0	100
fixed	2	1	12	209939	4	3	3	1	0	890	1	4	0	56	12	0	0	100
fixed	2	2	1	211648	4	1	1	1	0	841	1	4	0	40	13	0	0	100
fixed	2	2	2	213252	1	2	2	1	0	829	1	4	0	48	14	0	0	100
fixed	2	2	3	214550	6	4	4	1	0	766	1	4	0	64	15	0	0	100
fixed	2	2	4	215860	2	1	1	1	0	894	1	4	0	40	16	0	0	100
fixed	2	2	5	217342	5	3	3	1	0	903	1	4	0	56	17	0	0	100
fixed	2	2	6	218594	6	4	4	1	0	899	1	4	0	64	18	0	0	100
fixed	2	2	7	220399	3	1	1	1	0	775	1	4	0	40	19	0	0	100
fixed	2	2	8	221883	2	3	3	1	0	1552	1	4	0	56	20	0	0	100
fixed	2	2	9	224322	3	2	2	1	0	760	1	4	0	48	21	0	0	100
fixed	2	2	10	225768	1	4	4	1	0	683	1	4	0	64	22	0	0	100
fixed	2	2	11	227285	5	2	2	1	0	938	1	4	0	48	23	0	0	100
fixed	2	2	12	228831	4	3	3	1	0	1065	1	4	0	56	24	0	0	100
fixed	2	3	1	231045	4	1	1	1	0	1051	1	4	0	40	25	0	0	100
fixed	2	3	2	232777	1	2	2	1	0	1354	1	4	0	48	26	0	0	100
fixed	2	3	3	234641	6	4	4	1	0	707	1	4	0	64	27	0	0	100
fixed	2	3	4	235802	2	1	1	1	0	1026	1	4	0	40	28	0	0	100
fixed	2	3	5	237639	5	3	3	1	0	1348	1	4	0	56	29	0	0	100
fixed	2	3	6	239319	6	4	4	1	0	861	1	4	0	64	30	0	0	100
fixed	2	3	7	240697	3	1	1	1	0	1059	1	4	0	40	31	0	0	100
fixed	2	3	8	242572	2	3	3	1	0	971	1	4	0	56	32	0	0	100
fixed	2	3	9	244211	3	2	2	1	0	733	1	4	0	48	33	0	0	100
fixed	2	3	10	245560	1	4	4	1	0	797	1	4	0	64	34	0	0	100
fixed	2	3	11	247034	5	2	2	1	0	990	1	4	0	48	35	0	0	100
fixed	2	3	12	249010	4	3	3	1	0	810	1	4	0	56	36	0	0	100
fixed	2	4	1	250526	4	1	1	1	0	938	1	4	0	40	37	0	0	100
fixed	2	4	2	251882	1	2	2	1	0	969	1	4	0	48	38	0	0	100
fixed	2	4	3	253569	6	4	4	1	0	713	1	4	0	64	39	0	0	100
fixed	2	4	4	254906	2	1	1	1	0	1025	1	4	0	40	40	0	0	100
fixed	2	4	5	256642	5	3	3	1	0	879	1	4	0	56	41	0	0	100
fixed	2	4	6	258429	6	4	4	1	0	723	1	4	0	64	42	0	0	100
fixed	2	4	7	259479	3	1	0	0	2	0	3	4	0	40	42	0	1	98
fixed	2	4	8	262975	2	3	3	1	0	1131	1	4	0	56	43	0	1	98
fixed	2	4	9	264729	3	2	2	1	0	864	1	4	0	48	44	0	1	98
fixed	2	4	10	266154	1	4	4	1	0	668	1	4	0	64	45	0	1	98
fixed	2	4	11	267723	5	2	2	1	0	1218	1	4	0	48	46	0	1	98
fixed	2	4	12	269813	4	3	3	1	0	817	1	4	0	56	47	0	1	98
fixed	2	5	1	271678	4	1	1	1	0	1010	1	4	0	40	48	0	1	98
fixed	2	5	2	273027	1	2	2	1	0	1401	1	4	0	48	49	0	1	98
fixed	2	5	3	275205	6	4	4	1	0	661	1	4	0	64	50	0	1	98
fixed	2	5	4	276625	2	1	1	1	0	761	1	4	0	40	51	0	1	98
fixed	2	5	5	277832	5	3	3	1	0	846	1	4	0	56	52	0	1	98
fixed	2	5	6	279238	6	4	4	1	0	762	1	4	0	64	53	0	1	98
fixed	2	5	7	280840	3	1	1	1	0	766	1	4	0	40	54	0	1	98
fixed	2	5	8	282083	2	3	3	1	0	986	1	4	0	56	55	0	1	98
fixed	2	5	9	284076	3	2	2	1	0	805	1	4	0	48	56	0	1	98
fixed	2	5	10	285573	1	4	4	1	0	734	1	4	0	64	57	0	1	98
fixed	2	5	11	287227	5	2	2	1	0	832	1	4	0	48	58	0	1	98
fixed	2	5	12	288536	4	3	3	1	0	864	1	4	0	56	59	0	1	98
fixed	2	6	1	290023	4	1	1	1	0	905	1	4	0	40	60	0	1	98
fixed	2	6	2	291392	1	2	2	1	0	839	1	4	0	48	61	0	1	98
fixed	2	6	3	293264	6	4	4	1	0	848	1	4	0	64	62	0	1	98
fixed	2	6	4	295105	2	1	1	1	0	1050	1	4	0	40	63	0	1	98
fixed	2	6	5	296528	5	3	3	1	0	958	1	4	0	56	64	0	1	98
fixed	2	6	6	298027	6	4	4	1	0	886	1	4	0	64	65	0	1	98
fixed	2	6	7	299563	3	1	1	1	0	973	1	4	0	40	66	0	1	99
fixed	2	6	8	300911	2	3	3	1	0	900	1	4	0	56	67	0	1	99
fixed	2	6	9	302759	3	2	2	1	0	886	1	4	0	48	68	0	1	99
fixed	2	6	10	304438	1	4	4	1	0	743	1	4	0	64	69	0	1	99
fixed	2	6	11	306158	5	2	2	1	0	790	1	4	0	48	70	0	1	99
fixed	2	6	12	307664	4	3	3	1	0	934	1	4	0	56	71	0	1	99
fixed	2	7	1	309304	4	1	1	1	0	976	1	4	0	40	72	0	1	99
fixed	2	7	2	311134	1	2	2	1	0	963	1	4	0	48	73	0	1	99
fixed	2	7	3	312804	6	4	4	1	0	1125	1	4	0	64	74	0	1	99
fixed	2	7	4	314810	2	1	1	1	0	832	1	4	0	40	75	0	1	99
fixed	2	7	5	316305	5	3	3	1	0	792	1	4	0	56	76	0	1	99
fixed	2	7	6	317872	6	4	4	1	0	773	1	4	0	64	77	0	1	99
fixed	2	7	7	319473	3	1	1	1	0	842	1	4	0	40	78	0	1	99
fixed	2	7	8	320685	2	3	3	1	0	1295	1	4	0	56	79	0	1	99
fixed	2	7	9	323010	3	2	2	1	0	764	1	4	0	48	80	0	1	99
fixed	2	7	10	324319	1	4	4	1	0	765	1	4	0	64	81	0	1	99
fixed	2	7	11	325874	5	2	2	1	0	755	1	4	0	48	82	0	1	99
fixed	2	7	12	327509	4	3	3	1	0	1118	1	4	0	56	83	0	1	99
fixed	2	8	1	329269	4	1	1	1	0	771	1	4	0	40	84	0	1	99
fixed	2	8	2	330585	1	2	2	1	0	1132	1	4	0	48	85	0	1	99
fixed	2	8	3	332209	6	4	4	1	0	726	1	4	0	64	86	0	1	99
fixed	2	8	4	333695	2	1	1	1	0	1063	1	4	0	40	87	0	1	99
fixed	2	8	5	335249	5	3	3	1	0	933	1	4	0	56	88	0	1	99
fixed	2	8	6	336978	6	4	4	1	0	797	1	4	0	64	89	0	1	99
fixed	2	8	7	338564	3	1	1	1	0	1049	1	4	0	40	90	0	1	99
fixed	2	8	8	340179	2	3	3	1	0	1093	1	4	0	56	91	0	1	99
fixed	2	8	9	342230	3	2	2	1	0	814	1	4	0	48	92	0	1	99
fixed	2	8	10	344071	1	4	4	1	0	656	1	4	0	64	93	0	1	99
fixed	2	8	11	345400	5	2	2	1	0	832	1	4	0	48	94	0	1	99
fixed	2	8	12	347019	4	3	3	1	0	779	1	4	0	56	95	0	1	99
fixed	2	9	1	348383	4	1	1	1	0	1121	1	4	0	40	96	0	1	99
fixed	2	9	2	350375	1	2	2	1	0	861	1	4	0	48	97	0	1	99
fixed	2	9	3	351736	6	4	4	1	0	684	1	4	0	64	98	0	1	99
fixed	2	9	4	353423	2	1	1	1	0	828	1	4	0	40	99	0	1	99
fixed	2	9	5	354862	5	3	3	1	0	1247	1	4	0	56	100	0	1	99
fixed	2	9	6	356907	6	4	4	1	0	1048	1	4	0	64	101	0	1	99
fixed	2	9	7	358467	3	1	1	1	0	1015	1	4	0	40	102	0	1	99
fixed	2	9	8	360223	2	3	3	1	0	1124	1	4	0	56	103	0	1	99
fixed	2	9	9	362338	3	2	2	1	0	778	1	4	0	48	104	0	1	99
fixed	2	9	10	363920	1	4	4	1	0	703	1	4	0	64	105	0	1	99
fixed	2	9	11	365241	5	2	2	1	0	871	1	4	0	48	106	0	1	99
fixed	2	9	12	367093	4	3	3	1	0	953	1	4	0	56	107	0	1	99
fixed	2	10	1	368883	4	1	1	1	0	757	1	4	0	40	108	0	1	99
fixed	2	10	2	370158	1	2	2	1	0	967	1	4	0	48	109	0	1	99
fixed	2	10	3	372119	6	4	4	1	0	788	1	4	0	64	110	0	1	99
fixed	2	10	4	373926	2	1	1	1	0	1088	1	4	0	40	111	0	1	99
fixed	2	10	5	375751	5	3	3	1	0	882	1	4	0	56	112	0	1	99
fixed	2	10	6	377545	6	4	4	1	0	798	1	4	0	64	113	0	1	99
fixed	2	10	7	379114	3	1	1	1	0	772	1	4	0	40	114	0	1	99
fixed	2	10	8	380541	2	3	3	1	0	968	1	4	0	56	115	0	1	99
fixed	2	10	9	382095	3	2	2	1	0	750	1	4	0	48	116	0	1	99
fixed	2	10	10	383180	1	4	4	1	0	1000	1	4	0	64	117	0	1	99
fixed	2	10	11	385103	5	2	2	1	0	919	1	4	0	48	118	0	1	99
fixed	2	10	12	387028	4	3	3	1	0	908	1	4	0	56	119	0	1	99
fixed	3	1	1	389098	4	1	1	1	0	789	1	4	0	72	1	0	0	100
fixed	3	1	2	390755	1	2	2	1	0	951	1	4	0	80	2	0	0	100
fixed	3	1	3	392580	6	4	4	1	0	1025	1	4	0	96	3	0	0	100
fixed	3	1	4	394369	2	1	1	1	0	806	1	4	0	72	4	0	0	100
fixed	3	1	5	395620	5	3	3	1	0	889	1	4	0	88	5	0	0	100
fixed	3	1	6	396954	6	4	4	1	0	744	1	4	0	96	6	0	0	100
fixed	3	1	7	398620	3	1	1	1	0	738	1	4	0	72	7	0	0	100
fixed	3	1	8	399861	2	3	3	1	0	997	1	4	0	88	8	0	0	100
fixed	3	1	9	401787	3	2	2	1	0	708	1	4	0	80	9	0	0	100
fixed	3	1	10	403168	1	4	4	1	0	689	1	4	0	96	10	0	0	100
fixed	3	1	11	404294	5	2	2	1	0	833	1	4	0	80	11	0	0	100
fixed	3	1	12	405718	4	3	3	1	0	1061	1	4	0	88	12	0	0	100
fixed	3	2	1	407679	4	1	1	1	0	914	1	4	0	72	13	0	0	100
fixed	3	2	2	409023	1	2	2	1	0	825	1	4	0	80	14	0	0	100
fixed	3	2	3	410311	6	4	4	1	0	747	1	4	0	96	15	0	0	100
fixed	3	2	4	411603	2	1	1	1	0	971	1	4	0	72	16	0	0	100
fixed	3	2	5	412976	5	3	3	1	0	810	1	4	0	88	17	0	0	100
fixed	3	2	6	414754	6	4	4	1	0	678	1	4	0	96	18	0	0	100
fixed	3	2	7	416173	3	1	1	1	0	914	1	4	0	72	19	0	0	100
fixed	3	2	8	417422	2	3	3	1	0	1205	1	4	0	88	20	0	0	100
fixed	3	2	9	419130	3	2	2	1	0	1029	1	4	0	80	21	0	0	100
fixed	3	2	10	420993	1	4	4	1	0	982	1	4	0	96	22	0	0	100
fixed	3	2	11	422268	5	2	2	1	0	952	1	4	0	80	23	0	0	100
fixed	3	2	12	423945	4	3	3	1	0	769	1	4	0	88	24	0	0	100
fixed	3	3	1	425623	4	1	1	1	0	778	1	4	0	72	25	0	0	100
fixed	3	3	2	426843	1	2	2	1	0	926	1	4	0	80	26	0	0	100
fixed	3	3	3	428382	6	4	4	1	0	701	1	4	0	96	27	0	0	100
fixed	3	3	4	429551	2	1	1	1	0	987	1	4	0	72	28	0	0	100
fixed	3	3	5	430958	5	3	3	1	0	936	1	4	0	88	29	0	0	100
fixed	3	3	6	432637	6	4	4	1	0	785	1	4	0	96	30	0	0	100
fixed	3	3	7	433925	3	1	1	1	0	938	1	4	0	72	31	0	0	100
fixed	3	3	8	435306	2	3	3	1	0	1000	1	4	0	88	32	0	0	100
fixed	3	3	9	436636	3	2	2	1	0	1007	1	4	0	80	33	0	0	100
fixed	3	3	10	438242	1	4	4	1	0	779	1	4	0	96	34	0	0	100
fixed	3	3	11	439663	5	2	2	1	0	991	1	4	0	80	35	0	0	100
fixed	3	3	12	441512	4	3	3	1	0	945	1	4	0	88	36	0	0	100
fixed	3	4	1	443015	4	1	1	1	0	1065	1	4	0	72	37	0	0	100
fixed	3	4	2	444808	1	2	2	1	0	789	1	4	0	80	38	0	0	100
fixed	3	4	3	446136	6	4	4	1	0	901	1	4	0	96	39	0	0	100
fixed	3	4	4	447385	2	1	1	1	0	880	1	4	0	72	40	0	0	100
fixed	3	4	5	448753	5	3	3	1	0	894	1	4	0	88	41	0	0	100
fixed	3	4	6	450308	6	4	4	1	0	765	1	4	0	96	42	0	0	100
fixed	3	4	7	451442	3	1	1	1	0	828	1	4	0	72	43	0	0	100
fixed	3	4	8	452819	2	3	3	1	0	946	1	4	0	88	44	0	0	100
fixed	3	4	9	454535	3	2	2	1	0	889	1	4	0	80	45	0	0	100
fixed	3	4	10	455968	1	4	4	1	0	821	1	4	0	96	46	0	0	100
fixed	3	4	11	457253	5	2	2	1	0	734	1	4	0	80	47	0	0	100
fixed	3	4	12	458714	4	3	3	1	0	721	1	4	0	88	48	0	0	100
fixed	3	5	1	460007	4	1	1	1	0	769	1	4	0	72	49	0	0	100
fixed	3	5	2	461648	1	2	2	1	0	868	1	4	0	80	50	0	0	100
fixed	3	5	3	463309	6	4	4	1	0	702	1	4	0	96	51	0	0	100
fixed	3	5	4	464878	2	1	1	1	0	1339	1	4	0	72	52	0	0	100
fixed	3	5	5	467071	5	3	3	1	0	911	1	4	0	88	53	0	0	100
fixed	3	5	6	468958	6	4	4	1	0	607	1	4	0	96	54	0	0	100
fixed	3	5	7	470115	3	1	1	1	0	845	1	4	0	72	55	0	0	100
fixed	3	5	8	471634	2	3	3	1	0	957	1	4	0	88	56	0	0	100
fixed	3	5	9	473310	3	2	2	1	0	1110	1	4	0	80	57	0	0	100
fixed	3	5	10	474954	1	4	4	1	0	665	1	4	0	96	58	0	0	100
fixed	3	5	11	475964	5	2	2	1	0	822	1	4	0	80	59	0	0	100
fixed	3	5	12	477749	4	3	3	1	0	938	1	4	0	88	60	0	0	100
fixed	3	6	1	479338	4	1	1	1	0	831	1	4	0	72	61	0	0	100
fixed	3	6	2	480659	1	2	2	1	0	911	1	4	0	80	62	0	0	100
fixed	3	6	3	482388	6	4	4	1	0	702	1	4	0	96	63	0	0	100
fixed	3	6	4	483853	2	1	1	1	0	1096	1	4	0	72	64	0	0	100
fixed	3	6	5	485698	5	3	3	1	0	1170	1	4	0	88	65	0	0	100
fixed	3	6	6	487167	6	4	4	1	0	739	1	4	0	96	66	0	0	100
fixed	3	6	7	488848	3	1	1	1	0	804	1	4	0	72	67	0	0	100
fixed	3	6	8	490406	2	3	3	1	0	986	1	4	0	88	68	0	0	100
fixed	3	6	9	492001	3	2	2	1	0	1158	1	4	0	80	69	0	0	100
fixed	3	6	10	493932	1	4	4	1	0	717	1	4	0	96	70	0	0	100
fixed	3	6	11	495239	5	2	2	1	0	814	1	4	0	80	71	0	0	100
fixed	3	6	12	496571	4	3	3	1	0	925	1	4	0	88	72	0	0	100
fixed	3	7	1	498602	4	1	1	1	0	791	1	4	0	72	73	0	0	100
fixed	3	7	2	500102	1	2	2	1	0	856	1	4	0	80	74	0	0	100
fixed	3	7	3	501812	6	4	4	1	0	655	1	4	0	96	75	0	0	100
fixed	3	7	4	503277	2	1	1	1	0	881	1	4	0	72	76	0	0	100
fixed	3	7	5	504604	5	3	3	1	0	1001	1	4	0	88	77	0	0	100
fixed	3	7	6	506442	6	4	4	1	0	707	1	4	0	96	78	0	0	100
fixed	3	7	7	508167	3	1	1	1	0	778	1	4	0	72	79	0	0	100
fixed	3	7	8	509801	2	3	3	1	0	1077	1	4	0	88	80	0	0	100
fixed	3	7	9	511394	3	2	2	1	0	649	1	4	0	80	81	0	0	100
fixed	3	7	10	513039	1	4	4	1	0	803	1	4	0	96	82	0	0	100
fixed	3	7	11	514633	5	2	2	1	0	896	1	4	0	80	83	0	0	100
fixed	3	7	12	515897	4	3	3	1	0	842	1	4	0	88	84	0	0	100
fixed	3	8	1	517548	4	1	1	1	0	756	1	4	0	72	85	0	0	100
fixed	3	8	2	518809	1	2	2	1	0	815	1	4	0	80	86	0	0	100
fixed	3	8	3	520383	6	4	4	1	0	661	1	4	0	96	87	0	0	100
fixed	3	8	4	521592	2	1	1	1	0	1297	1	4	0	72	88	0	0	100
fixed	3	8	5	523402	5	3	3	1	0	796	1	4	0	88	89	0	0	100
fixed	3	8	6	524710	6	4	4	1	0	693	1	4	0	96	90	0	0	100
fixed	3	8	7	526166	3	1	1	1	0	1096	1	4	0	72	91	0	0	100
fixed	3	8	8	527826	2	3	3	1	0	1129	1	4	0	88	92	0	0	100
fixed	3	8	9	529887	3	2	2	1	0	858	1	4	0	80	93	0	0	100
fixed	3	8	10	531268	1	4	4	1	0	1119	1	4	0	96	94	0	0	100
fixed	3	8	11	533351	5	2	2	1	0	855	1	4	0	80	95	0	0	100
fixed	3	8	12	534612	4	3	3	1	0	874	1	4	0	88	96	0	0	100
fixed	3	9	1	536762	4	1	1	1	0	950	1	4	0	72	97	0	0	100
fixed	3	9	2	538727	1	2	2	1	0	756	1	4	0	80	98	0	0	100
fixed	3	9	3	540024	6	4	4	1	0	908	1	4	0	96	99	0	0	100
fixed	3	9	4	541768	2	1	1	1	0	1115	1	4	0	72	100	0	0	100
fixed	3	9	5	543868	5	3	3	1	0	906	1	4	0	88	101	0	0	100
fixed	3	9	6	545109	6	4	4	1	0	853	1	4	0	96	102	0	0	100
fixed	3	9	7	546590	3	1	1	1	0	966	1	4	0	72	103	0	0	100
fixed	3	9	8	548315	2	3	3	1	0	957	1	4	0	88	104	0	0	100
fixed	3	9	9	549578	3	2	2	1	0	1368	1	4	0	80	105	0	0	100
fixed	3	9	10	551314	1	4	4	1	0	758	1	4	0	96	106	0	0	100
fixed	3	9	11	552803	5	2	2	1	0	759	1	4	0	80	107	0	0	100
fixed	3	9	12	554315	4	3	3	1	0	1303	1	4	0	88	108	0	0	100
fixed	3	10	1	556728	4	1	1	1	0	753	1	4	0	72	109	0	0	100
fixed	3	10	2	557796	1	2	2	1	0	1043	1	4	0	80	110	0	0	100
fixed	3	10	3	559136	6	4	4	1	0	715	1	4	0	96	111	0	0	100
fixed	3	10	4	560181	2	1	1	1	0	911	1	4	0	72	112	0	0	100
fixed	3	10	5	561881	5	3	3	1	0	863	1	4	0	88	113	0	0	100
fixed	3	10	6	563662	6	4	4	1	0	699	1	4	0	96	114	0	0	100
fixed	3	10	7	565028	3	1	1	1	0	890	1	4	0	72	115	0	0	100
fixed	3	10	8	566484	2	3	3	1	0	1091	1	4	0	88	116	0	0	100
fixed	3	10	9	568068	3	2	2	1	0	713	1	4	0	80	117	0	0	100
fixed	3	10	10	569390	1	4	4	1	0	688	1	4	0	96	118	0	0	100
fixed	3	10	11	570532	5	2	2	1	0	896	1	4	0	80	119	0	0	100
fixed	3	10	12	571898	4	3	3	1	0	886	1	4	0	88	120	0	0	100
fixed	4	1	1	714947	4	1	1	1	0	1323	1	4	0	104	1	0	0	100
fixed	4	1	2	717148	1	2	2	1	0	750	1	4	0	112	2	0	0	100
fixed	4	1	3	718712	6	4	4	1	0	780	1	4	0	128	3	0	0	100
fixed	4	1	4	720355	2	1	1	1	0	855	1	4	0	104	4	0	0	100
fixed	4	1	5	721676	5	3	3	1	0	919	1	4	0	120	5	0	0	100
fixed	4	1	6	722928	6	4	4	1	0	802	1	4	0	128	6	0	0	100
fixed	4	1	7	724575	3	1	1	1	0	908	1	4	0	104	7	0	0	100
fixed	4	1	8	725870	2	3	3	1	0	1069	1	4	0	120	8	0	0	100
fixed	4	1	9	727231	3	2	2	1	0	947	1	4	0	112	9	0	0	100
fixed	4	1	10	728588	1	4	4	1	0	714	1	4	0	128	10	0	0	100
fixed	4	1	11	729965	5	2	2	1	0	1208	1	4	0	112	11	0	0	100
fixed	4	1	12	731862	4	3	3	1	0	767	1	4	0	120	12	0	0	100
fixed	4	2	1	733795	4	1	1	1	0	885	1	4	0	104	13	0	0	100
fixed	4	2	2	735058	1	2	2	1	0	872	1	4	0	112	14	0	0	100
fixed	4	2	3	736310	6	4	4	1	0	723	1	4	0	128	15	0	0	100
fixed	4	2	4	737602	2	1	1	1	0	876	1	4	0	104	16	0	0	100
fixed	4	2	5	739395	5	3	3	1	0	848	1	4	0	120	17	0	0	100
fixed	4	2	6	740842	6	4	4	1	0	955	1	4	0	128	18	0	0	100
fixed	4	2	7	742249	3	1	1	1	0	1191	1	4	0	104	19	0	0	100
fixed	4	2	8	744091	2	3	3	1	0	937	1	4	0	120	20	0	0	100
fixed	4	2	9	745390	3	2	2	1	0	698	1	4	0	112	21	0	0	100
fixed	4	2	10	746708	1	4	4	1	0	674	1	4	0	128	22	0	0	100
fixed	4	2	11	748170	5	2	2	1	0	764	1	4	0	112	23	0	0	100
fixed	4	2	12	749220	4	3	3	1	0	936	1	4	0	120	24	0	0	100
fixed	4	3	1	750954	4	1	1	1	0	742	1	4	0	104	25	0	0	100
fixed	4	3	2	752703	1	2	2	1	0	885	1	4	0	112	26	0	0	100
fixed	4	3	3	754313	6	4	4	1	0	776	1	4	0	128	27	0	0	100
fixed	4	3	4	755606	2	1	1	1	0	1201	1	4	0	104	28	0	0	100
fixed	4	3	5	757722	5	3	3	1	0	1072	1	4	0	120	29	0	0	100
fixed	4	3	6	759583	6	4	4	1	0	753	1	4	0	128	30	0	0	100
fixed	4	3	7	760823	3	1	1	1	0	853	1	4	0	104	31	0	0	100
fixed	4	3	8	762123	2	3	3	1	0	901	1	4	0	120	32	0	0	100
fixed	4	3	9	763454	3	2	2	1	0	805	1	4	0	112	33	0	0	100
fixed	4	3	10	765195	1	4	4	1	0	659	1	4	0	128	34	0	0	100
fixed	4	3	11	766740	5	2	2	1	0	1089	1	4	0	112	35	0	0	100
fixed	4	3	12	768166	4	3	3	1	0	821	1	4	0	120	36	0	0	100
fixed	4	4	1	770285	4	1	1	1	0	819	1	4	0	104	37	0	0	100
fixed	4	4	2	772036	1	2	2	1	0	906	1	4	0	112	38	0	0	100
fixed	4	4	3	773615	6	4	4	1	0	927	1	4	0	128	39	0	0	100
fixed	4	4	4	774922	2	1	1	1	0	887	1	4	0	104	40	0	0	100
fixed	4	4	5	776475	5	3	3	1	0	870	1	4	0	120	41	0	0	100
fixed	4	4	6	778059	6	4	4	1	0	770	1	4	0	128	42	0	0	100
fixed	4	4	7	779202	3	1	1	1	0	1090	1	4	0	104	43	0	0	100
fixed	4	4	8	781129	2	3	3	1	0	928	1	4	0	120	44	0	0	100
fixed	4	4	9	782971	3	2	2	1	0	986	1	4	0	112	45	0	0	100
fixed	4	4	10	784958	1	4	4	1	0	694	1	4	0	128	46	0	0	100
fixed	4	4	11	786384	5	2	2	1	0	890	1	4	0	112	47	0	0	100
fixed	4	4	12	788185	4	3	3	1	0	894	1	4	0	120	48	0	0	100
fixed	4	5	1	789799	4	1	1	1	0	913	1	4	0	104	49	0	0	100
fixed	4	5	2	791486	1	2	2	1	0	849	1	4	0	112	50	0	0	100
fixed	4	5	3	793178	6	4	4	1	0	690	1	4	0	128	51	0	0	100
fixed	4	5	4	794901	2	1	1	1	0	793	1	4	0	104	52	0	0	100
fixed	4	5	5	796661	5	3	3	1	0	855	1	4	0	120	53	0	0	100
fixed	4	5	6	797926	6	4	4	1	0	881	1	4	0	128	54	0	0	100
fixed	4	5	7	799553	3	1	1	1	0	836	1	4	0	104	55	0	0	100
fixed	4	5	8	801051	2	3	3	1	0	1053	1	4	0	120	56	0	0	100
fixed	4	5	9	803076	3	2	2	1	0	735	1	4	0	112	57	0	0	100
fixed	4	5	10	804152	1	4	4	1	0	673	1	4	0	128	58	0	0	100
fixed	4	5	11	805316	5	2	2	1	0	840	1	4	0	112	59	0	0	100
fixed	4	5	12	807035	4	3	3	1	0	823	1	4	0	120	60	0	0	100
fixed	4	6	1	808829	4	1	1	1	0	723	1	4	0	104	61	0	0	100
fixed	4	6	2	810254	1	2	2	1	0	751	1	4	0	112	62	0	0	100
fixed	4	6	3	811939	6	4	4	1	0	759	1	4	0	128	63	0	0	100
fixed	4	6	4	813341	2	1	1	1	0	980	1	4	0	104	64	0	0	100
fixed	4	6	5	814648	5	3	3	1	0	845	1	4	0	120	65	0	0	100
fixed	4	6	6	815820	6	4	4	1	0	1027	1	4	0	128	66	0	0	100
fixed	4	6	7	817330	3	1	1	1	0	803	1	4	0	104	67	0	0	100
fixed	4	6	8	819014	2	3	3	1	0	1620	1	4	0	120	68	0	0	100
fixed	4	6	9	821306	3	2	2	1	0	715	1	4	0	112	69	0	0	100
fixed	4	6	10	822595	1	4	4	1	0	708	1	4	0	128	70	0	0	100
fixed	4	6	11	823824	5	2	2	1	0	896	1	4	0	112	71	0	0	100
fixed	4	6	12	825688	4	3	3	1	0	801	1	4	0	120	72	0	0	100
fixed	4	7	1	827275	4	1	1	1	0	734	1	4	0	104	73	0	0	100
fixed	4	7	2	828677	1	2	2	1	0	866	1	4	0	112	74	0	0	100
fixed	4	7	3	829875	6	4	4	1	0	640	1	4	0	128	75	0	0	100
fixed	4	7	4	831432	2	1	1	1	0	854	1	4	0	104	76	0	0	100
fixed	4	7	5	833273	5	3	3	1	0	824	1	4	0	120	77	0	0	100
fixed	4	7	6	834850	6	4	4	1	0	701	1	4	0	128	78	0	0	100
fixed	4	7	7	836591	3	1	1	1	0	883	1	4	0	104	79	0	0	100
fixed	4	7	8	838051	2	3	3	1	0	965	1	4	0	120	80	0	0	100
fixed	4	7	9	839765	3	2	2	1	0	781	1	4	0	112	81	0	0	100
fixed	4	7	10	841573	1	4	4	1	0	825	1	4	0	128	82	0	0	100
fixed	4	7	11	843373	5	2	2	1	0	988	1	4	0	112	83	0	0	100
fixed	4	7	12	844946	4	3	3	1	0	826	1	4	0	120	84	0	0	100
fixed	4	8	1	846639	4	1	1	1	0	833	1	4	0	104	85	0	0	100
fixed	4	8	2	848323	1	2	2	1	0	787	1	4	0	112	86	0	0	100
fixed	4	8	3	849633	6	4	4	1	0	1179	1	4	0	128	87	0	0	100
fixed	4	8	4	851631	2	1	1	1	0	959	1	4	0	104	88	0	0	100
fixed	4	8	5	853381	5	3	3	1	0	748	1	4	0	120	89	0	0	100
fixed	4	8	6	855081	6	4	4	1	0	1020	1	4	0	128	90	0	0	100
fixed	4	8	7	856872	3	1	1	1	0	800	1	4	0	104	91	0	0	100
fixed	4	8	8	858426	2	3	3	1	0	919	1	4	0	120	92	0	0	100
fixed	4	8	9	860162	3	2	2	1	0	877	1	4	0	112	93	0	0	100
fixed	4	8	10	861650	1	4	4	1	0	758	1	4	0	128	94	0	0	100
fixed	4	8	11	863258	5	2	2	1	0	762	1	4	0	112	95	0	0	100
fixed	4	8	12	864597	4	3	3	1	0	817	1	4	0	120	96	0	0	100
fixed	4	9	1	866204	4	1	1	1	0	829	1	4	0	104	97	0	0	100
fixed	4	9	2	867699	1	2	2	1	0	846	1	4	0	112	98	0	0	100
fixed	4	9	3	869141	6	4	4	1	0	897	1	4	0	128	99	0	0	100
fixed	4	9	4	870758	2	1	1	1	0	1044	1	4	0	104	100	0	0	100
fixed	4	9	5	872358	5	3	3	1	0	824	1	4	0	120	101	0	0	100
fixed	4	9	6	873611	6	4	4	1	0	891	1	4	0	128	102	0	0	100
fixed	4	9	7	875402	3	1	1	1	0	896	1	4	0	104	103	0	0	100
fixed	4	9	8	876598	2	3	3	1	0	933	1	4	0	120	104	0	0	100
fixed	4	9	9	878122	3	2	2	1	0	539	1	4	0	112	105	0	0	100
fixed	4	9	10	879590	1	4	4	1	0	630	1	4	0	128	106	0	0	100
fixed	4	9	11	880997	5	2	2	1	0	754	1	4	0	112	107	0	0	100
fixed	4	9	12	882324	4	3	3	1	0	946	1	4	0	120	108	0	0	100
fixed	4	10	1	884214	4	1	1	1	0	778	1	4	0	104	109	0	0	100
fixed	4	10	2	885321	1	2	2	1	0	907	1	4	0	112	110	0	0	100
fixed	4	10	3	887092	6	4	4	1	0	704	1	4	0	128	111	0	0	100
fixed	4	10	4	888196	2	1	1	1	0	786	1	4	0	104	112	0	0	100
fixed	4	10	5	889922	5	3	3	1	0	969	1	4	0	120	113	0	0	100
fixed	4	10	6	891452	6	4	4	1	0	920	1	4	0	128	114	0	0	100
fixed	4	10	7	893346	3	1	1	1	0	832	1	4	0	104	115	0	0	100
fixed	4	10	8	894826	2	3	3	1	0	865	1	4	0	120	116	0	0	100
fixed	4	10	9	896088	3	2	2	1	0	748	1	4	0	112	117	0	0	100
fixed	4	10	10	897202	1	4	4	1	0	732	1	4	0	128	118	0	0	100
fixed	4	10	11	898787	5	2	2	1	0	777	1	4	0	112	119	0	0	100
fixed	4	10	12	900413	4	3	3	1	0	740	1	4	0	120	120	0	0	100
fixed	5	1	1	902173	4	1	1	1	0	761	1	4	0	136	1	0	0	100
fixed	5	1	2	903613	1	2	2	1	0	788	1	4	0	144	2	0	0	100
fixed	5	1	3	905428	6	4	4	1	0	736	1	4	0	160	3	0	0	100
fixed	5	1	4	906684	2	1	1	1	0	1242	1	4	0	136	4	0	0	100
fixed	5	1	5	908384	5	3	3	1	0	763	1	4	0	152	5	0	0	100
fixed	5	1	6	909701	6	4	4	1	0	859	1	4	0	160	6	0	0	100
fixed	5	1	7	910903	3	1	1	1	0	992	1	4	0	136	7	0	0	100
fixed	5	1	8	912238	2	3	3	1	0	1207	1	4	0	152	8	0	0	100
fixed	5	1	9	913955	3	2	2	1	0	614	1	4	0	144	9	0	0	100
fixed	5	1	10	915267	1	4	4	1	0	671	1	4	0	160	10	0	0	100
fixed	5	1	11	916905	5	2	2	1	0	858	1	4	0	144	11	0	0	100
fixed	5	1	12	918529	4	3	3	1	0	740	1	4	0	152	12	0	0	100
fixed	5	2	1	920019	4	1	1	1	0	933	1	4	0	136	13	0	0	100
fixed	5	2	2	921572	1	2	2	1	0	884	1	4	0	144	14	0	0	100
fixed	5	2	3	923354	6	4	4	1	0	641	1	4	0	160	15	0	0	100
fixed	5	2	4	924390	2	1	1	1	0	1061	1	4	0	136	16	0	0	100
fixed	5	2	5	925755	5	3	3	1	0	859	1	4	0	152	17	0	0	100
fixed	5	2	6	926930	6	4	4	1	0	705	1	4	0	160	18	0	0	100
fixed	5	2	7	928290	3	1	1	1	0	863	1	4	0	136	19	0	0	100
fixed	5	2	8	929484	2	3	3	1	0	1181	1	4	0	152	20	0	0	100
fixed	5	2	9	931689	3	2	2	1	0	1072	1	4	0	144	21	0	0	100
fixed	5	2	10	933297	1	4	4	1	0	852	1	4	0	160	22	0	0	100
fixed	5	2	11	934881	5	2	2	1	0	784	1	4	0	144	23	0	0	100
fixed	5	2	12	936358	4	3	3	1	0	785	1	4	0	152	24	0	0	100
fixed	5	3	1	938180	4	1	1	1	0	748	1	4	0	136	25	0	0	100
fixed	5	3	2	939763	1	2	2	1	0	762	1	4	0	144	26	0	0	100
fixed	5	3	3	941445	6	4	4	1	0	690	1	4	0	160	27	0	0	100
fixed	5	3	4	942993	2	1	1	1	0	1032	1	4	0	136	28	0	0	100
fixed	5	3	5	944836	5	3	3	1	0	699	1	4	0	152	29	0	0	100
fixed	5	3	6	946461	6	4	4	1	0	774	1	4	0	160	30	0	0	100
fixed	5	3	7	947714	3	1	1	1	0	753	1	4	0	136	31	0	0	100
fixed	5	3	8	949356	2	3	3	1	0	1099	1	4	0	152	32	0	0	100
fixed	5	3	9	951430	3	2	2	1	0	691	1	4	0	144	33	0	0	100
fixed	5	3	10	952947	1	4	4	1	0	779	1	4	0	160	34	0	0	100
fixed	5	3	11	954358	5	2	2	1	0	863	1	4	0	144	35	0	0	100
fixed	5	3	12	955782	4	3	3	1	0	811	1	4	0	152	36	0	0	100
fixed	5	4	1	957544	4	1	1	1	0	864	1	4	0	136	37	0	0	100
fixed	5	4	2	959246	1	2	2	1	0	816	1	4	0	144	38	0	0	100
fixed	5	4	3	960741	6	4	4	1	0	785	1	4	0	160	39	0	0	100
fixed	5	4	4	962098	2	1	1	1	0	1512	1	4	0	136	40	0	0	100
fixed	5	4	5	964465	5	3	3	1	0	843	1	4	0	152	41	0	0	100
fixed	5	4	6	965682	6	4	4	1	0	655	1	4	0	160	42	0	0	100
fixed	5	4	7	967377	3	1	1	1	0	832	1	4	0	136	43	0	0	100
fixed	5	4	8	969085	2	3	3	1	0	864	1	4	0	152	44	0	0	100
fixed	5	4	9	970813	3	2	2	1	0	758	1	4	0	144	45	0	0	100
fixed	5	4	10	971966	1	4	4	1	0	933	1	4	0	160	46	0	0	100
fixed	5	4	11	973460	5	2	2	1	0	838	1	4	0	144	47	0	0	100
fixed	5	4	12	974618	4	3	3	1	0	845	1	4	0	152	48	0	0	100
fixed	5	5	1	976608	4	1	1	1	0	809	1	4	0	136	49	0	0	100
fixed	5	5	2	978408	1	2	2	1	0	741	1	4	0	144	50	0	0	100
fixed	5	5	3	979752	6	4	4	1	0	1028	1	4	0	160	51	0	0	100
fixed	5	5	4	981266	2	1	1	1	0	1028	1	4	0	136	52	0	0	100
fixed	5	5	5	982851	5	3	3	1	0	889	1	4	0	152	53	0	0	100
fixed	5	5	6	984076	6	4	4	1	0	804	1	4	0	160	54	0	0	100
fixed	5	5	7	985418	3	1	1	1	0	788	1	4	0	136	55	0	0	100
fixed	5	5	8	986761	2	3	3	1	0	1187	1	4	0	152	56	0	0	100
fixed	5	5	9	988669	3	2	2	1	0	738	1	4	0	144	57	0	0	100
fixed	5	5	10	990111	1	4	4	1	0	717	1	4	0	160	58	0	0	100
fixed	5	5	11	991326	5	2	2	1	0	865	1	4	0	144	59	0	0	100
fixed	5	5	12	993221	4	3	3	1	0	801	1	4	0	152	60	0	0	100
fixed	5	6	1	995036	4	1	1	1	0	860	1	4	0	136	61	0	0	100
fixed	5	6	2	996362	1	2	2	1	0	748	1	4	0	144	62	0	0	100
fixed	5	6	3	997568	6	4	0	1	2	0	3	4	0	160	62	0	1	98
fixed	5	6	4	1001036	2	1	1	1	0	1070	1	4	0	136	63	0	1	98
fixed	5	6	5	1002450	5	3	3	1	0	819	1	4	0	152	64	0	1	98
fixed	5	6	6	1003947	6	4	4	1	0	843	1	4	0	160	65	0	1	98
fixed	5	6	7	1005354	3	1	1	1	0	951	1	4	0	136	66	0	1	99
fixed	5	6	8	1007240	2	3	3	1	0	912	1	4	0	152	67	0	1	99
fixed	5	6	9	1009042	3	2	2	1	0	675	1	4	0	144	68	0	1	99
fixed	5	6	10	1010284	1	4	4	1	0	711	1	4	0	160	69	0	1	99
fixed	5	6	11	1011855	5	2	2	1	0	948	1	4	0	144	70	0	1	99
fixed	5	6	12	1013637	4	3	3	1	0	800	1	4	0	152	71	0	1	99
fixed	5	7	1	1015336	4	1	1	1	0	776	1	4	0	136	72	0	1	99
fixed	5	7	2	1017152	1	2	2	1	0	860	1	4	0	144	73	0	1	99
fixed	5	7	3	1018514	6	4	4	2	0	1602	2	4	0	160	74	0	1	99
fixed	5	7	4	1020636	2	1	1	1	0	1448	1	4	0	136	75	0	1	99
fixed	5	7	5	1022836	5	3	3	1	0	1363	1	4	0	152	76	0	1	99
fixed	5	7	6	1025056	6	4	4	1	0	1149	1	4	0	160	77	0	1	99
fixed	5	7	7	1026581	3	1	1	1	0	924	1	4	0	136	78	0	1	99
fixed	5	7	8	1027891	2	3	3	1	0	1397	1	4	0	152	79	0	1	99
fixed	5	7	9	1029919	3	2	2	1	0	759	1	4	0	144	80	0	1	99
fixed	5	7	10	1031106	1	4	4	1	0	772	1	4	0	160	81	0	1	99
fixed	5	7	11	1032640	5	2	2	1	0	764	1	4	0	144	82	0	1	99
fixed	5	7	12	1034232	4	3	3	1	0	1168	1	4	0	152	83	0	1	99
fixed	5	8	1	1036404	4	1	1	1	0	692	1	4	0	136	84	0	1	99
fixed	5	8	2	1038124	1	2	2	1	0	819	1	4	0	144	85	0	1	99
fixed	5	8	3	1039436	6	4	4	1	0	1452	1	4	0	160	86	0	1	99
fixed	5	8	4	1041274	2	1	1	1	0	846	1	4	0	136	87	0	1	99
fixed	5	8	5	1042439	5	3	3	1	0	972	1	4	0	152	88	0	1	99
fixed	5	8	6	1043816	6	4	4	1	0	730	1	4	0	160	89	0	1	99
fixed	5	8	7	1045394	3	1	1	1	0	1023	1	4	0	136	90	0	1	99
fixed	5	8	8	1047374	2	3	3	1	0	844	1	4	0	152	91	0	1	99
fixed	5	8	9	1048727	3	2	2	1	0	834	1	4	0	144	92	0	1	99
fixed	5	8	10	1049940	1	4	4	1	0	783	1	4	0	160	93	0	1	99
fixed	5	8	11	1051307	5	2	2	1	0	741	1	4	0	144	94	0	1	99
fixed	5	8	12	1052864	4	3	3	1	0	691	1	4	0	152	95	0	1	99
fixed	5	9	1	1054315	4	1	1	1	0	709	1	4	0	136	96	0	1	99
fixed	5	9	2	1055815	1	2	2	1	0	870	1	4	0	144	97	0	1	99
fixed	5	9	3	1056990	6	4	4	1	0	940	1	4	0	160	98	0	1	99
fixed	5	9	4	1058685	2	1	1	1	0	726	1	4	0	136	99	0	1	99
fixed	5	9	5	1060330	5	3	3	1	0	871	1	4	0	152	100	0	1	99
fixed	5	9	6	1061581	6	4	4	1	0	778	1	4	0	160	101	0	1	99
fixed	5	9	7	1063049	3	1	1	1	0	812	1	4	0	136	102	0	1	99
fixed	5	9	8	1064263	2	3	3	1	0	1184	1	4	0	152	103	0	1	99
fixed	5	9	9	1065914	3	2	2	1	0	770	1	4	0	144	104	0	1	99
fixed	5	9	10	1067083	1	4	4	1	0	705	1	4	0	160	105	0	1	99
fixed	5	9	11	1068750	5	2	2	1	0	762	1	4	0	144	106	0	1	99
fixed	5	9	12	1070464	4	3	3	1	0	890	1	4	0	152	107	0	1	99
fixed	5	10	1	1071992	4	1	1	1	0	809	1	4	0	136	108	0	1	99
fixed	5	10	2	1073736	1	2	2	1	0	743	1	4	0	144	109	0	1	99
fixed	5	10	3	1075443	6	4	4	1	0	679	1	4	0	160	110	0	1	99
fixed	5	10	4	1076653	2	1	1	1	0	955	1	4	0	136	111	0	1	99
fixed	5	10	5	1078170	5	3	3	1	0	1020	1	4	0	152	112	0	1	99
fixed	5	10	6	1079930	6	4	4	1	0	736	1	4	0	160	113	0	1	99
fixed	5	10	7	1081555	3	1	1	1	0	844	1	4	0	136	114	0	1	99
fixed	5	10	8	1083419	2	3	3	1	0	829	1	4	0	152	115	0	1	99
fixed	5	10	9	1084639	3	2	0	1	2	0	3	4	0	144	115	0	2	98
fixed	5	10	10	1087624	1	4	4	1	0	915	1	4	0	160	116	0	2	98
fixed	5	10	11	1088887	5	2	2	1	0	1237	1	4	0	144	117	0	2	98
fixed	5	10	12	1090477	4	3	3	1	0	850	1	4	0	152	118	0	2	98
random	6	1	1	1219819	6	1	1	1	0	1411	1	4	0	168	1	0	0	100
random	6	1	2	1221560	4	4	4	1	0	1122	1	4	0	192	2	0	0	100
random	6	1	3	1223061	2	2	2	1	0	842	1	4	0	176	3	0	0	100
random	6	1	4	1224484	3	3	3	1	0	758	1	4	0	184	4	0	0	100
random	6	1	5	1225948	5	2	2	1	0	856	1	4	0	176	5	0	0	100
random	6	1	6	1227365	1	4	4	1	0	676	1	4	0	192	6	0	0	100
random	6	1	7	1228517	6	1	1	1	0	851	1	4	0	168	7	0	0	100
random	6	1	8	1230346	2	3	3	1	0	981	1	4	0	184	8	0	0	100
random	6	1	9	1232131	4	2	2	1	0	722	1	4	0	176	9	0	0	100
random	6	1	10	1233231	1	1	1	1	0	900	1	4	0	168	10	0	0	100
random	6	1	11	1234897	5	4	4	1	0	725	1	4	0	192	11	0	0	100
random	6	1	12	1236501	3	3	3	1	0	977	1	4	0	184	12	0	0	100
random	6	1	13	1238116	5	2	2	1	0	804	1	4	0	176	13	0	0	100
random	6	1	14	1239323	1	4	4	1	0	737	1	4	0	192	14	0	0	100
random	6	1	15	1240597	3	1	1	1	0	788	1	4	0	168	15	0	0	100
random	6	1	16	1242125	4	3	3	1	0	867	1	4	0	184	16	0	0	100
random	6	1	17	1243722	6	4	4	1	0	735	1	4	0	192	17	0	0	100
random	6	1	18	1244825	2	1	1	1	0	857	1	4	0	168	18	0	0	100
random	6	1	19	1246587	5	3	3	1	0	830	1	4	0	184	19	0	0	100
random	6	1	20	1248185	2	2	2	1	0	802	1	4	0	176	20	0	0	100
random	6	1	21	1249559	3	3	3	1	0	776	1	4	0	184	21	0	0	100
random	6	1	22	1250834	6	1	1	1	0	938	1	4	0	168	22	0	0	100
random	6	1	23	1252110	4	2	2	1	0	948	1	4	0	176	23	0	0	100
random	6	1	24	1253652	1	4	4	1	0	674	1	4	0	192	24	0	0	100
random	6	1	25	1255108	4	3	3	1	0	1013	1	4	0	184	25	0	0	100
random	6	1	26	1256431	2	1	1	1	0	1333	1	4	0	168	26	0	0	100
random	6	1	27	1258117	5	2	2	1	0	1077	1	4	0	176	27	0	0	100
random	6	1	28	1260138	6	4	4	1	0	656	1	4	0	192	28	0	0	100
random	6	1	29	1261564	1	3	3	1	0	732	1	4	0	184	29	0	0	100
random	6	1	30	1262785	5	2	2	1	0	1128	1	4	0	176	30	0	0	100
random	6	1	31	1264245	2	1	1	1	0	914	1	4	0	168	31	0	0	100
random	6	1	32	1265502	3	3	3	1	0	1325	1	4	0	184	32	0	0	100
random	6	1	33	1267384	6	4	4	1	0	773	1	4	0	192	33	0	0	100
random	6	1	34	1268886	4	2	2	1	0	854	1	4	0	176	34	0	0	100
random	6	1	35	1270734	3	4	4	1	0	735	1	4	0	192	35	0	0	100
random	6	1	36	1272139	1	1	1	1	0	700	1	4	0	168	36	0	0	100
random	6	1	37	1273620	3	4	4	1	0	837	1	4	0	192	37	0	0	100
random	6	1	38	1275206	5	3	3	1	0	825	1	4	0	184	38	0	0	100
random	6	1	39	1276551	6	1	1	1	0	841	1	4	0	168	39	0	0	100
random	6	1	40	1278305	1	2	2	1	0	926	1	4	0	176	40	0	0	100
random	6	1	41	1279895	2	3	3	1	0	923	1	4	0	184	41	0	0	100
random	6	1	42	1281769	4	4	4	1	0	692	1	4	0	192	42	0	0	100
random	6	1	43	1283174	1	2	2	1	0	728	1	4	0	176	43	0	0	100
random	6	1	44	1284371	6	3	3	1	0	1022	1	4	0	184	44	0	0	100
random	6	1	45	1286203	3	1	1	1	0	1088	1	4	0	168	45	0	0	100
random	6	1	46	1287694	4	4	4	1	0	649	1	4	0	192	46	0	0	100
random	6	1	47	1289210	2	2	2	1	0	744	1	4	0	176	47	0	0	100
random	6	1	48	1290825	5	1	1	1	0	964	1	4	0	168	48	0	0	100
random	6	1	49	1292800	2	3	3	1	0	1112	1	4	0	184	49	0	0	100
random	6	1	50	1294826	3	1	1	1	0	891	1	4	0	168	50	0	0	100
random	6	1	51	1296621	1	4	4	1	0	1103	1	4	0	192	51	0	0	100
random	6	1	52	1298530	5	3	3	1	0	1109	1	4	0	184	52	0	0	100
random	6	1	53	1300655	3	2	2	1	0	700	1	4	0	176	53	0	0	100
random	6	1	54	1301956	6	4	4	1	0	700	1	4	0	192	54	0	0	100
random	6	1	55	1303648	4	2	2	1	0	757	1	4	0	176	55	0	0	100
random	6	1	56	1305388	1	1	1	1	0	803	1	4	0	168	56	0	0	100
random	6	1	57	1306811	5	4	4	1	0	735	1	4	0	192	57	0	0	100
random	6	1	58	1308078	2	1	1	1	0	889	1	4	0	168	58	0	0	100
random	6	1	59	1309301	6	2	2	1	0	1102	1	4	0	176	59	0	0	100
random	6	1	60	1311411	4	3	3	1	0	764	1	4	0	184	60	0	0	100
random	6	1	61	1312899	1	2	2	1	0	845	1	4	0	176	61	0	0	100
random	6	1	62	1314354	6	4	4	1	0	831	1	4	0	192	62	0	0	100
random	6	1	63	1315494	4	1	1	1	0	991	1	4	0	168	63	0	0	100
random	6	1	64	1317484	2	2	2	1	0	795	1	4	0	176	64	0	0	100
random	6	1	65	1318891	4	3	3	1	0	848	1	4	0	184	65	0	0	100
random	6	1	66	1320070	3	1	1	1	0	981	1	4	0	168	66	0	0	100
random	6	1	67	1321394	1	3	3	1	0	1093	1	4	0	184	67	0	0	100
random	6	1	68	1323069	5	4	4	1	0	799	1	4	0	192	68	0	0	100
random	6	1	69	1324486	2	2	2	1	0	1419	1	4	0	176	69	0	0	100
random	6	1	70	1326190	3	1	1	1	0	794	1	4	0	168	70	0	0	100
random	6	1	71	1327844	5	4	4	2	0	708	2	4	0	192	71	0	0	100
random	6	1	72	1328948	6	3	3	1	0	1318	1	4	0	184	72	0	0	100
random	6	1	73	1331194	2	1	1	1	0	1470	1	4	0	168	73	0	0	100
random	6	1	74	1333449	5	3	3	1	0	1206	1	4	0	184	74	0	0	100
random	6	1	75	1334955	1	4	4	1	0	959	1	4	0	192	75	0	0	100
random	6	1	76	1336636	6	2	2	1	0	1208	1	4	0	176	76	0	0	100
random	6	1	77	1338662	2	1	1	1	0	802	1	4	0	168	77	0	0	100
random	6	1	78	1340049	4	4	4	1	0	703	1	4	0	192	78	0	0	100
random	6	1	79	1341624	3	2	2	1	0	860	1	4	0	176	79	0	0	100
random	6	1	80	1343221	4	3	3	1	0	841	1	4	0	184	80	0	0	100
random	6	1	81	1344715	1	4	4	1	0	730	1	4	0	192	81	0	0	100
random	6	1	82	1346165	5	1	1	1	0	932	1	4	0	168	82	0	0	100
random	6	1	83	1347493	3	2	2	1	0	884	1	4	0	176	83	0	0	100
random	6	1	84	1348882	6	3	3	1	0	921	1	4	0	184	84	0	0	100
random	6	1	85	1350542	3	2	2	1	0	1019	1	4	0	176	85	0	0	100
random	6	1	86	1352558	1	3	3	1	0	934	1	4	0	184	86	0	0	100
random	6	1	87	1353788	4	4	4	1	0	1129	1	4	0	192	87	0	0	100
random	6	1	88	1355502	2	1	1	1	0	656	1	4	0	168	88	0	0	100
random	6	1	89	1357021	6	4	4	1	0	696	1	4	0	192	89	0	0	100
random	6	1	90	1358166	3	3	3	1	0	912	1	4	0	184	90	0	0	100
random	6	1	91	1359926	5	4	4	1	0	934	1	4	0	192	91	0	0	100
random	6	1	92	1361575	1	2	2	1	0	1031	1	4	0	176	92	0	0	100
random	6	1	93	1363050	5	1	1	1	0	977	1	4	0	168	93	0	0	100
random	6	1	94	1364920	4	3	3	1	0	858	1	4	0	184	94	0	0	100
random	6	1	95	1366423	6	1	1	1	0	818	1	4	0	168	95	0	0	100
random	6	1	96	1367710	2	2	2	1	0	756	1	4	0	176	96	0	0	100
random	6	1	97	1369655	4	3	3	1	0	897	1	4	0	184	97	0	0	100
random	6	1	98	1371136	3	2	2	1	0	763	1	4	0	176	98	0	0	100
random	6	1	99	1372187	6	3	3	1	0	1334	1	4	0	184	99	0	0	100
random	6	1	100	1373825	1	4	4	1	0	809	1	4	0	192	100	0	0	100
random	6	1	101	1375288	4	1	1	1	0	763	1	4	0	168	101	0	0	100
random	6	1	102	1376618	5	2	2	1	0	939	1	4	0	176	102	0	0	100
random	6	1	103	1378266	2	4	4	1	0	925	1	4	0	192	103	0	0	100
random	6	1	104	1380225	3	1	1	1	0	882	1	4	0	168	104	0	0	100
random	6	1	105	1381478	1	3	3	1	0	1005	1	4	0	184	105	0	0	100
random	6	1	106	1383203	2	2	2	1	0	827	1	4	0	176	106	0	0	100
random	6	1	107	1384949	5	4	4	1	0	777	1	4	0	192	107	0	0	100
random	6	1	108	1386498	6	1	1	1	0	952	1	4	0	168	108	0	0	100
random	6	1	109	1388034	5	4	4	1	0	871	1	4	0	192	109	0	0	100
random	6	1	110	1389516	6	3	3	1	0	896	1	4	0	184	110	0	0	100
random	6	1	111	1391296	2	2	2	1	0	709	1	4	0	176	111	0	0	100
random	6	1	112	1392335	3	1	1	1	0	865	1	4	0	168	112	0	0	100
random	6	1	113	1393542	1	2	2	1	0	862	1	4	0	176	113	0	0	100
random	6	1	114	1395347	2	3	3	1	0	841	1	4	0	184	114	0	0	100
random	6	1	115	1396920	3	1	1	1	0	1102	1	4	0	168	115	0	0	100
random	6	1	116	1399002	4	4	4	1	0	894	1	4	0	192	116	0	0	100
random	6	1	117	1400784	6	1	1	1	0	867	1	4	0	168	117	0	0	100
random	6	1	118	1402290	5	3	3	1	0	867	1	4	0	184	118	0	0	100
random	6	1	119	1403909	1	4	4	1	0	822	1	4	0	192	119	0	0	100
random	6	1	120	1405655	4	2	2	1	0	717	1	4	0	176	120	0	0	100
fixed	7	1	1	1407830	4	1	1	1	0	1064	1	4	0	200	1	0	0	100
fixed	7	1	2	1409507	1	2	2	1	0	729	1	4	0	208	2	0	0	100
fixed	7	1	3	1411013	6	4	4	1	0	674	1	4	0	224	3	0	0	100
fixed	7	1	4	1412273	2	1	1	1	0	1052	1	4	0	200	4	0	0	100
fixed	7	1	5	1414062	5	3	3	1	0	784	1	4	0	216	5	0	0	100
fixed	7	1	6	1415867	6	4	4	1	0	716	1	4	0	224	6	0	0	100
fixed	7	1	7	1417040	3	1	1	1	0	1018	1	4	0	200	7	0	0	100
fixed	7	1	8	1418690	2	3	3	1	0	941	1	4	0	216	8	0	0	100
fixed	7	1	9	1420015	3	2	2	1	0	844	1	4	0	208	9	0	0	100
fixed	7	1	10	1421281	1	4	4	1	0	710	1	4	0	224	10	0	0	100
fixed	7	1	11	1422345	5	2	2	1	0	874	1	4	0	208	11	0	0	100
fixed	7	1	12	1424117	4	3	3	1	0	911	1	4	0	216	12	0	0	100
fixed	7	2	1	1426294	4	1	1	1	0	914	1	4	0	200	1	0	0	8
fixed	7	2	2	1427725	1	2	2	1	0	806	1	4	0	208	2	0	0	14
fixed	7	2	3	1429277	6	4	4	1	0	676	1	4	0	224	3	0	0	20
fixed	7	2	4	1430741	2	1	1	1	0	814	1	4	0	200	4	0	0	25
fixed	7	2	5	1432380	5	3	3	1	0	848	1	4	0	216	5	0	0	29
fixed	7	2	6	1434170	6	4	4	1	0	629	1	4	0	224	6	0	0	33
fixed	7	2	7	1435698	3	1	1	1	0	868	1	4	0	200	7	0	0	37
fixed	7	2	8	1436864	2	3	3	1	0	915	1	4	0	216	8	0	0	40
fixed	7	2	9	1438652	3	2	2	1	0	727	1	4	0	208	9	0	0	43
fixed	7	2	10	1439813	1	4	4	1	0	894	1	4	0	224	10	0	0	45
fixed	7	2	11	1441659	5	2	2	1	0	832	1	4	0	208	11	0	0	48
fixed	7	2	12	1442807	4	3	3	1	0	783	1	4	0	216	12	0	0	50
fixed	7	3	1	1444522	4	1	1	1	0	862	1	4	0	200	1	0	0	4
fixed	7	3	2	1445846	1	2	2	1	0	694	1	4	0	208	2	0	0	8
fixed	7	3	3	1446996	6	4	4	1	0	669	1	4	0	224	3	0	0	11
fixed	7	3	4	1448036	2	1	1	1	0	1153	1	4	0	200	4	0	0	14
fixed	7	3	5	1449705	5	3	3	1	0	715	1	4	0	216	5	0	0	17
fixed	7	3	6	1450991	6	4	4	1	0	716	1	4	0	224	6	0	0	20
fixed	7	3	7	1452295	3	1	1	1	0	837	1	4	0	200	7	0	0	23
fixed	7	3	8	1454047	2	3	3	1	0	995	1	4	0	216	8	0	0	25
fixed	7	3	9	1455719	3	2	2	1	0	700	1	4	0	208	9	0	0	27
fixed	7	3	10	1456983	1	4	4	1	0	791	1	4	0	224	10	0	0	29
fixed	7	3	11	1458793	5	2	2	1	0	978	1	4	0	208	11	0	0	31
fixed	7	3	12	1460540	4	3	3	1	0	840	1	4	0	216	12	0	0	33
fixed	7	4	1	1461999	4	1	1	1	0	786	1	4	0	200	1	0	0	3
fixed	7	4	2	1463141	1	2	2	1	0	882	1	4	0	208	2	0	0	5
fixed	7	4	3	1465025	6	4	4	1	0	898	1	4	0	224	3	0	0	8
fixed	7	4	4	1466745	2	1	1	1	0	729	1	4	0	200	4	0	0	10
fixed	7	4	5	1468221	5	3	3	1	0	779	1	4	0	216	5	0	0	12
fixed	7	4	6	1469842	6	4	4	1	0	670	1	4	0	224	6	0	0	14
fixed	7	4	7	1470939	3	1	1	1	0	871	1	4	0	200	7	0	0	16
fixed	7	4	8	1472681	2	3	3	1	0	1054	1	4	0	216	8	0	0	18
fixed	7	4	9	1474362	3	2	2	1	0	710	1	4	0	208	9	0	0	20
fixed	7	4	10	1475562	1	4	4	1	0	652	1	4	0	224	10	0	0	22
fixed	7	4	11	1476689	5	2	2	1	0	884	1	4	0	208	11	0	0	23
fixed	7	4	12	1478198	4	3	3	1	0	836	1	4	0	216	12	0	0	25
fixed	7	5	1	1479792	4	1	1	1	0	696	1	4	0	200	1	0	0	2
fixed	7	5	2	1480927	1	2	2	1	0	1232	1	4	0	208	2	0	0	4
fixed	7	5	3	1482580	6	4	4	1	0	754	1	4	0	224	3	0	0	6
fixed	7	5	4	1483980	2	1	1	1	0	775	1	4	0	200	4	0	0	8
fixed	7	5	5	1485495	5	3	3	1	0	767	1	4	0	216	5	0	0	9
fixed	7	5	6	1487114	6	4	4	1	0	738	1	4	0	224	6	0	0	11
fixed	7	5	7	1488501	3	1	1	1	0	783	1	4	0	200	7	0	0	13
fixed	7	5	8	1490009	2	3	3	1	0	1336	1	4	0	216	8	0	0	14
fixed	7	5	9	1491980	3	2	2	1	0	636	1	4	0	208	9	0	0	16
fixed	7	5	10	1493036	1	4	4	1	0	648	1	4	0	224	10	0	0	17
fixed	7	5	11	1494133	5	2	2	1	0	825	1	4	0	208	11	0	0	19
fixed	7	5	12	1495817	4	3	3	1	0	785	1	4	0	216	12	0	0	20
fixed	7	6	1	1497653	4	1	1	1	0	812	1	4	0	200	1	0	0	2
fixed	7	6	2	1499291	1	2	2	1	0	902	1	4	0	208	2	0	0	3
fixed	7	6	3	1500756	6	4	4	1	0	609	1	4	0	224	3	0	0	5
fixed	7	6	4	1502395	2	1	1	1	0	915	1	4	0	200	4	0	0	6
fixed	7	6	5	1503759	5	3	3	1	0	793	1	4	0	216	5	0	0	8
fixed	7	6	6	1504843	6	4	4	1	0	779	1	4	0	224	6	0	0	9
fixed	7	6	7	1506357	3	1	1	1	0	739	1	4	0	200	7	0	0	10
fixed	7	6	8	1507519	2	3	3	1	0	1194	1	4	0	216	8	0	0	12
fixed	7	6	9	1509733	3	2	2	1	0	788	1	4	0	208	9	0	0	13
fixed	7	6	10	1511219	1	4	4	1	0	661	1	4	0	224	10	0	0	14
fixed	7	6	11	1512553	5	2	2	1	0	781	1	4	0	208	11	0	0	15
fixed	7	6	12	1513683	4	3	3	1	0	765	1	4	0	216	12	0	0	17
fixed	7	7	1	1515279	4	1	1	1	0	713	1	4	0	200	1	0	0	1
fixed	7	7	2	1516843	1	2	2	1	0	727	1	4	0	208	2	0	0	3
fixed	7	7	3	1518004	6	4	4	1	0	670	1	4	0	224	3	0	0	4
fixed	7	7	4	1519210	2	1	1	1	0	1027	1	4	0	200	4	0	0	5
fixed	7	7	5	1521164	5	3	3	1	0	760	1	4	0	216	5	0	0	6
fixed	7	7	6	1522582	6	4	4	1	0	716	1	4	0	224	6	0	0	8
fixed	7	7	7	1524238	3	1	1	1	0	702	1	4	0	200	7	0	0	9
fixed	7	7	8	1525515	2	3	3	1	0	1112	1	4	0	216	8	0	0	10
fixed	7	7	9	1527513	3	2	2	1	0	707	1	4	0	208	9	0	0	11
fixed	7	7	10	1528897	1	4	4	1	0	672	1	4	0	224	10	0	0	12
fixed	7	7	11	1530243	5	2	2	1	0	704	1	4	0	208	11	0	0	13
fixed	7	7	12	1531920	4	3	3	1	0	784	1	4	0	216	12	0	0	14
fixed	7	8	1	1533374	4	1	1	1	0	707	1	4	0	200	1	0	0	1
fixed	7	8	2	1534975	1	2	2	1	0	767	1	4	0	208	2	0	0	2
fixed	7	8	3	1536742	6	4	4	1	0	636	1	4	0	224	3	0	0	3
fixed	7	8	4	1538150	2	1	1	1	0	896	1	4	0	200	4	0	0	5
fixed	7	8	5	1539502	5	3	3	1	0	800	1	4	0	216	5	0	0	6
fixed	7	8	6	1541109	6	4	4	1	0	787	1	4	0	224	6	0	0	7
fixed	7	8	7	1542732	3	1	1	1	0	894	1	4	0	200	7	0	0	8
fixed	7	8	8	1544252	2	3	3	1	0	910	1	4	0	216	8	0	0	9
fixed	7	8	9	1545843	3	2	2	1	0	795	1	4	0	208	9	0	0	10
fixed	7	8	10	1547599	1	4	4	1	0	752	1	4	0	224	10	0	0	11
fixed	7	8	11	1548857	5	2	0	1	2	0	3	4	0	208	10	0	1	11
fixed	7	8	12	1552112	4	3	0	1	2	0	3	4	0	216	10	0	2	10
fixed	7	9	1	1555478	4	1	1	1	0	826	1	4	0	200	1	0	0	1
fixed	7	9	2	1556673	1	2	2	1	0	1176	1	4	0	208	2	0	0	2
fixed	7	9	3	1558191	6	4	4	1	0	1512	1	4	0	224	3	0	0	3
fixed	7	9	4	1560531	2	1	1	1	0	1253	1	4	0	200	4	0	0	4
fixed	7	9	5	1562739	5	3	3	1	0	871	1	4	0	216	5	0	0	5
fixed	7	9	6	1564445	6	4	4	1	0	1359	1	4	0	224	6	0	0	6
fixed	7	9	7	1566724	3	1	1	1	0	702	1	4	0	200	7	0	0	7
fixed	7	9	8	1568447	2	3	3	1	0	997	1	4	0	216	8	0	0	8
fixed	7	9	9	1569748	3	2	2	1	0	694	1	4	0	208	9	0	0	9
fixed	7	9	10	1570871	1	4	4	1	0	639	1	4	0	224	10	0	0	9
fixed	7	9	11	1572144	5	2	2	1	0	641	1	4	0	208	11	0	0	10
fixed	7	9	12	1573731	4	3	3	1	0	926	1	4	0	216	12	0	0	11
fixed	7	10	1	1575393	4	1	1	1	0	623	1	4	0	200	1	0	0	1
fixed	7	10	2	1576422	1	2	2	1	0	732	1	4	0	208	2	0	0	2
fixed	7	10	3	1577945	6	4	4	1	0	979	1	4	0	224	3	0	0	3
fixed	7	10	4	1579825	2	1	1	1	0	907	1	4	0	200	4	0	0	4
fixed	7	10	5	1581254	5	3	3	1	0	815	1	4	0	216	5	0	0	4
fixed	7	10	6	1582874	6	4	4	1	0	1027	1	4	0	224	6	0	0	5
fixed	7	10	7	1584584	3	1	1	1	0	1082	1	4	0	200	7	0	0	6
fixed	7	10	8	1586058	2	3	3	1	0	939	1	4	0	216	8	0	0	7
fixed	7	10	9	1587426	3	2	2	1	0	785	1	4	0	208	9	0	0	8
fixed	7	10	10	1589033	1	4	4	1	0	782	1	4	0	224	10	0	0	8
fixed	7	10	11	1590629	5	2	2	1	0	746	1	4	0	208	11	0	0	9
fixed	7	10	12	1592258	4	3	3	1	0	1149	1	4	0	216	12	0	0	10
