type	block	sequ.	trial	time	Pos.	Color	Button	NumRsp	Resp_1	RT_1	R_Code	Resp_2	RT_2	Trigg.	n_hit	n_inc	n_miss	score_%

random	1	1	1	26688	6	1	1	1	0	894	1	4	0	8	1	0	0	100
random	1	1	2	28601	4	4	4	1	0	877	1	4	0	32	2	0	0	100
random	1	1	3	30028	2	2	0	2	2	0	3	4	0	16	2	0	1	67
random	1	1	4	33292	3	3	3	2	0	1430	2	4	0	24	3	0	1	75
random	1	1	5	35555	5	2	2	2	0	806	2	4	0	16	4	0	1	80
random	1	1	6	37000	1	4	4	1	0	753	1	4	0	32	5	0	1	83
random	1	1	7	38542	6	1	1	1	0	696	1	4	0	8	6	0	1	86
random	1	1	8	39791	2	3	3	1	0	1043	1	4	0	24	7	0	1	88
random	1	1	9	41349	4	2	2	1	0	697	1	4	0	16	8	0	1	89
random	1	1	10	42673	1	1	1	1	0	729	1	4	0	8	9	0	1	90
random	1	1	11	43690	5	4	4	1	0	686	1	4	0	32	10	0	1	91
random	1	1	12	44981	3	3	3	1	0	719	1	4	0	24	11	0	1	92
random	1	1	13	46522	5	2	2	1	0	926	1	4	0	16	12	0	1	92
random	1	1	14	47926	1	4	4	1	0	674	1	4	0	32	13	0	1	93
random	1	1	15	49298	3	1	1	1	0	728	1	4	0	8	14	0	1	93
random	1	1	16	50576	4	3	3	2	0	2290	2	4	0	24	15	0	1	94
random	1	1	17	53881	6	4	4	1	0	718	1	4	0	32	16	0	1	94
random	1	1	18	55134	2	1	1	1	0	649	1	4	0	8	17	0	1	94
random	1	1	19	56746	5	3	3	1	0	877	1	4	0	24	18	0	1	95
random	1	1	20	57926	2	2	2	2	0	2291	2	4	0	16	19	0	1	95
random	1	1	21	60819	3	3	3	2	0	2408	2	4	0	24	20	0	1	95
random	1	1	22	63889	6	1	1	1	0	622	1	4	0	8	21	0	1	95
random	1	1	23	65083	4	2	2	1	0	827	1	4	0	16	22	0	1	96
random	1	1	24	66315	1	4	4	1	0	664	1	4	0	32	23	0	1	96
random	1	1	25	67858	4	3	3	2	0	1782	2	4	0	24	24	0	1	96
random	1	1	26	70353	2	1	1	1	0	805	1	4	0	8	25	0	1	96
random	1	1	27	72111	5	2	2	1	0	1066	1	4	0	16	26	0	1	96
random	1	1	28	73587	6	4	4	1	0	659	1	4	0	32	27	0	1	96
random	1	1	29	74728	1	3	3	1	0	763	1	4	0	24	28	0	1	97
random	1	1	30	76272	5	2	2	1	0	738	1	4	0	16	29	0	1	97
random	1	1	31	77741	2	1	1	1	0	596	1	4	0	8	30	0	1	97
random	1	1	32	79163	3	3	3	1	0	736	1	4	0	24	31	0	1	97
random	1	1	33	80517	6	4	4	1	0	558	1	4	0	32	32	0	1	97
random	1	1	34	81528	4	2	2	1	0	731	1	4	0	16	33	0	1	97
random	1	1	35	82822	3	4	4	1	0	613	1	4	0	32	34	0	1	97
random	1	1	36	83761	1	1	1	1	0	765	1	4	0	8	35	0	1	97
random	1	1	37	85752	3	4	4	1	0	752	1	4	0	32	36	0	1	97
random	1	1	38	86994	5	3	3	1	0	1132	1	4	0	24	37	0	1	97
random	1	1	39	88527	6	1	1	1	0	667	1	4	0	8	38	0	1	97
random	1	1	40	89722	1	2	2	1	0	768	1	4	0	16	39	0	1	98
random	1	1	41	91454	2	3	3	1	0	687	1	4	0	24	40	0	1	98
random	1	1	42	92628	4	4	4	1	0	557	1	4	0	32	41	0	1	98
random	1	1	43	93884	1	2	2	1	0	776	1	4	0	16	42	0	1	98
random	1	1	44	95644	6	3	3	2	0	1981	2	4	0	24	43	0	1	98
random	1	1	45	98511	3	1	1	1	0	716	1	4	0	8	44	0	1	98
random	1	1	46	99587	4	4	4	1	0	830	1	4	0	32	45	0	1	98
random	1	1	47	101114	2	2	2	1	0	934	1	4	0	16	46	0	1	98
random	1	1	48	102811	5	1	1	1	0	758	1	4	0	8	47	0	1	98
random	1	1	49	104766	2	3	3	1	0	883	1	4	0	24	48	0	1	98
random	1	1	50	106530	3	1	1	1	0	680	1	4	0	8	49	0	1	98
random	1	1	51	108128	1	4	4	1	0	636	1	4	0	32	50	0	1	98
random	1	1	52	109808	5	3	3	1	0	1334	1	4	0	24	51	0	1	98
random	1	1	53	111874	3	2	2	1	0	638	1	4	0	16	52	0	1	98
random	1	1	54	113051	6	4	4	1	0	604	1	4	0	32	53	0	1	98
random	1	1	55	114283	4	2	2	1	0	768	1	4	0	16	54	0	1	98
random	1	1	56	115646	1	1	1	1	0	558	1	4	0	8	55	0	1	98
random	1	1	57	116788	5	4	4	1	0	630	1	4	0	32	56	0	1	98
random	1	1	58	118082	2	1	1	1	0	639	1	4	0	8	57	0	1	98
random	1	1	59	119333	6	2	2	1	0	914	1	4	0	16	58	0	1	98
random	1	1	60	120748	4	3	3	2	0	1990	2	4	0	24	59	0	1	98
random	1	1	61	123361	1	2	2	1	0	839	1	4	0	16	60	0	1	98
random	1	1	62	124870	6	4	4	1	0	719	1	4	0	32	61	0	1	98
random	1	1	63	126228	4	1	1	1	0	606	1	4	0	8	62	0	1	98
random	1	1	64	127684	2	2	2	1	0	1249	1	4	0	16	63	0	1	98
random	1	1	65	129710	4	3	3	1	0	962	1	4	0	24	64	0	1	98
random	1	1	66	131256	3	1	1	1	0	641	1	4	0	8	65	0	1	98
random	1	1	67	132508	1	3	3	1	0	900	1	4	0	24	66	0	1	99
random	1	1	68	134124	5	4	4	1	0	655	1	4	0	32	67	0	1	99
random	1	1	69	135319	2	2	2	1	0	805	1	4	0	16	68	0	1	99
random	1	1	70	136417	3	1	1	1	0	798	1	4	0	8	69	0	1	99
random	1	1	71	138196	5	4	4	1	0	579	1	4	0	32	70	0	1	99
random	1	1	72	139501	6	3	3	1	0	1075	1	4	0	24	71	0	1	99
random	1	1	73	141305	2	1	1	1	0	775	1	4	0	8	72	0	1	99
random	1	1	74	142655	5	3	3	1	0	918	1	4	0	24	73	0	1	99
random	1	1	75	144568	1	4	4	1	0	653	1	4	0	32	74	0	1	99
random	1	1	76	145866	6	2	2	1	0	774	1	4	0	16	75	0	1	99
random	1	1	77	147498	2	1	1	1	0	1593	1	4	0	8	76	0	1	99
random	1	1	78	149888	4	4	4	1	0	652	1	4	0	32	77	0	1	99
random	1	1	79	151105	3	2	2	1	0	728	1	4	0	16	78	0	1	99
random	1	1	80	152512	4	3	3	1	0	781	1	4	0	24	79	0	1	99
random	1	1	81	153872	1	4	4	1	0	555	1	4	0	32	80	0	1	99
random	1	1	82	155076	5	1	1	1	0	480	1	4	0	8	81	0	1	99
random	1	1	83	155945	3	2	2	1	0	811	1	4	0	16	82	0	1	99
random	1	1	84	157138	6	3	3	1	0	841	1	4	0	24	83	0	1	99
random	1	1	85	159266	3	2	2	1	0	1022	1	4	0	16	84	0	1	99
random	1	1	86	161132	1	3	3	1	0	664	1	4	0	24	85	0	1	99
random	1	1	87	162354	4	4	4	1	0	579	1	4	0	32	86	0	1	99
random	1	1	88	163664	2	1	1	1	0	684	1	4	0	8	87	0	1	99
random	1	1	89	164830	6	4	4	1	0	611	1	4	0	32	88	0	1	99
random	1	1	90	166020	3	3	3	1	0	696	1	4	0	24	89	0	1	99
random	1	1	91	167510	5	4	4	1	0	649	1	4	0	32	90	0	1	99
random	1	1	92	169162	1	2	2	1	0	707	1	4	0	16	91	0	1	99
random	1	1	93	170853	5	1	1	1	0	564	1	4	0	8	92	0	1	99
random	1	1	94	172337	4	3	3	2	0	1421	2	4	0	24	93	0	1	99
random	1	1	95	174058	6	1	1	1	0	780	1	4	0	8	94	0	1	99
random	1	1	96	175831	2	2	2	1	0	1081	1	4	0	16	95	0	1	99
random	1	1	97	177828	4	3	3	1	0	1164	1	4	0	24	96	0	1	99
random	1	1	98	179583	3	2	2	1	0	826	1	4	0	16	97	0	1	99
random	1	1	99	181300	6	3	3	1	0	1138	1	4	0	24	98	0	1	99
random	1	1	100	182921	1	4	4	1	0	685	1	4	0	32	99	0	1	99
random	1	1	101	184055	4	1	1	1	0	597	1	4	0	8	100	0	1	99
random	1	1	102	185386	5	2	2	1	0	1124	1	4	0	16	101	0	1	99
random	1	1	103	186912	2	4	4	1	0	604	1	4	0	32	102	0	1	99
random	1	1	104	188236	3	1	1	1	0	787	1	4	0	8	103	0	1	99
random	1	1	105	189975	1	3	3	1	0	1074	1	4	0	24	104	0	1	99
random	1	1	106	191851	2	2	2	1	0	810	1	4	0	16	105	0	1	99
random	1	1	107	192988	5	4	4	1	0	650	1	4	0	32	106	0	1	99
random	1	1	108	193953	6	1	1	1	0	721	1	4	0	8	107	0	1	99
random	1	1	109	195455	5	4	4	1	0	762	1	4	0	32	108	0	1	99
random	1	1	110	197147	6	3	3	1	0	1314	1	4	0	24	109	0	1	99
random	1	1	111	199383	2	2	2	1	0	779	1	4	0	16	110	0	1	99
random	1	1	112	200669	3	1	1	1	0	933	1	4	0	8	111	0	1	99
random	1	1	113	202078	1	2	2	1	0	985	1	4	0	16	112	0	1	99
random	1	1	114	203456	2	3	3	1	0	1143	1	4	0	24	113	0	1	99
random	1	1	115	205527	3	1	1	1	0	751	1	4	0	8	114	0	1	99
random	1	1	116	206922	4	4	4	1	0	668	1	4	0	32	115	0	1	99
random	1	1	117	208403	6	1	1	1	0	789	1	4	0	8	116	0	1	99
random	1	1	118	209761	5	3	3	1	0	876	1	4	0	24	117	0	1	99
random	1	1	119	211236	1	4	4	1	0	702	1	4	0	32	118	0	1	99
random	1	1	120	212525	4	2	2	1	0	759	1	4	0	16	119	0	1	99
fixed	2	1	1	214349	4	1	1	1	0	729	1	4	0	40	1	0	0	100
fixed	2	1	2	216070	1	2	2	1	0	1344	1	4	0	48	2	0	0	100
fixed	2	1	3	218202	6	4	4	1	0	630	1	4	0	64	3	0	0	100
fixed	2	1	4	219605	2	1	1	1	0	739	1	4	0	40	4	0	0	100
fixed	2	1	5	221135	5	3	3	1	0	794	1	4	0	56	5	0	0	100
fixed	2	1	6	222546	6	4	4	1	0	662	1	4	0	64	6	0	0	100
fixed	2	1	7	223532	3	1	1	1	0	869	1	4	0	40	7	0	0	100
fixed	2	1	8	224736	2	3	3	1	0	1242	1	4	0	56	8	0	0	100
fixed	2	1	9	226682	3	2	2	1	0	767	1	4	0	48	9	0	0	100
fixed	2	1	10	227878	1	4	4	1	0	789	1	4	0	64	10	0	0	100
fixed	2	1	11	229459	5	2	2	1	0	817	1	4	0	48	11	0	0	100
fixed	2	1	12	230968	4	3	3	1	0	762	1	4	0	56	12	0	0	100
fixed	2	2	1	232529	4	1	1	1	0	735	1	4	0	40	13	0	0	100
fixed	2	2	2	234172	1	2	2	1	0	930	1	4	0	48	14	0	0	100
fixed	2	2	3	235594	6	4	4	1	0	638	1	4	0	64	15	0	0	100
fixed	2	2	4	237175	2	1	1	1	0	643	1	4	0	40	16	0	0	100
fixed	2	2	5	238148	5	3	3	1	0	1153	1	4	0	56	17	0	0	100
fixed	2	2	6	240086	6	4	4	1	0	615	1	4	0	64	18	0	0	100
fixed	2	2	7	241619	3	1	1	1	0	726	1	4	0	40	19	0	0	100
fixed	2	2	8	242859	2	3	3	1	0	938	1	4	0	56	20	0	0	100
fixed	2	2	9	244547	3	2	2	1	0	794	1	4	0	48	21	0	0	100
fixed	2	2	10	245732	1	4	4	1	0	640	1	4	0	64	22	0	0	100
fixed	2	2	11	246800	5	2	2	1	0	795	1	4	0	48	23	0	0	100
fixed	2	2	12	248455	4	3	3	1	0	1285	1	4	0	56	24	0	0	100
fixed	2	3	1	250573	4	1	1	1	0	723	1	4	0	40	25	0	0	100
fixed	2	3	2	251697	1	2	2	1	0	788	1	4	0	48	26	0	0	100
fixed	2	3	3	252831	6	4	4	1	0	651	1	4	0	64	27	0	0	100
fixed	2	3	4	254052	2	1	1	1	0	632	1	4	0	40	28	0	0	100
fixed	2	3	5	255416	5	3	3	1	0	830	1	4	0	56	29	0	0	100
fixed	2	3	6	256958	6	4	4	1	0	661	1	4	0	64	30	0	0	100
fixed	2	3	7	258168	3	1	1	1	0	674	1	4	0	40	31	0	0	100
fixed	2	3	8	259843	2	3	3	2	0	1259	2	4	0	56	32	0	0	100
fixed	2	3	9	261770	3	2	2	1	0	825	1	4	0	48	33	0	0	100
fixed	2	3	10	263405	1	4	4	1	0	691	1	4	0	64	34	0	0	100
fixed	2	3	11	264629	5	2	2	1	0	776	1	4	0	48	35	0	0	100
fixed	2	3	12	265992	4	3	3	1	0	806	1	4	0	56	36	0	0	100
fixed	2	4	1	267432	4	1	1	1	0	729	1	4	0	40	37	0	0	100
fixed	2	4	2	268914	1	2	2	1	0	979	1	4	0	48	38	0	0	100
fixed	2	4	3	270494	6	4	4	1	0	679	1	4	0	64	39	0	0	100
fixed	2	4	4	272200	2	1	1	1	0	711	1	4	0	40	40	0	0	100
fixed	2	4	5	273409	5	3	3	1	0	884	1	4	0	56	41	0	0	100
fixed	2	4	6	274850	6	4	4	1	0	695	1	4	0	64	42	0	0	100
fixed	2	4	7	276199	3	1	1	1	0	726	1	4	0	40	43	0	0	100
fixed	2	4	8	277667	2	3	3	1	0	1056	1	4	0	56	44	0	0	100
fixed	2	4	9	279112	3	2	2	1	0	586	1	4	0	48	45	0	0	100
fixed	2	4	10	280734	1	4	4	1	0	702	1	4	0	64	46	0	0	100
fixed	2	4	11	282178	5	2	2	1	0	1393	1	4	0	48	47	0	0	100
fixed	2	4	12	284088	4	3	3	1	0	895	1	4	0	56	48	0	0	100
fixed	2	5	1	285693	4	1	1	1	0	723	1	4	0	40	49	0	0	100
fixed	2	5	2	287011	1	2	2	1	0	1060	1	4	0	48	50	0	0	100
fixed	2	5	3	288537	6	4	4	1	0	579	1	4	0	64	51	0	0	100
fixed	2	5	4	290148	2	1	1	1	0	783	1	4	0	40	52	0	0	100
fixed	2	5	5	291314	5	3	3	1	0	1230	1	4	0	56	53	0	0	100
fixed	2	5	6	293009	6	4	4	1	0	654	1	4	0	64	54	0	0	100
fixed	2	5	7	294349	3	1	1	1	0	805	1	4	0	40	55	0	0	100
fixed	2	5	8	295726	2	3	3	1	0	947	1	4	0	56	56	0	0	100
fixed	2	5	9	297509	3	2	2	1	0	775	1	4	0	48	57	0	0	100
fixed	2	5	10	298904	1	4	4	1	0	620	1	4	0	64	58	0	0	100
fixed	2	5	11	300349	5	2	2	1	0	807	1	4	0	48	59	0	0	100
fixed	2	5	12	301950	4	3	3	1	0	995	1	4	0	56	60	0	0	100
fixed	2	6	1	304239	4	1	1	1	0	786	1	4	0	40	61	0	0	100
fixed	2	6	2	305516	1	2	2	1	0	804	1	4	0	48	62	0	0	100
fixed	2	6	3	307322	6	4	4	1	0	552	1	4	0	64	63	0	0	100
fixed	2	6	4	308716	2	1	1	1	0	572	1	4	0	40	64	0	0	100
fixed	2	6	5	309765	5	3	3	1	0	1448	1	4	0	56	65	0	0	100
fixed	2	6	6	311839	6	4	4	1	0	624	1	4	0	64	66	0	0	100
fixed	2	6	7	312930	3	1	1	1	0	714	1	4	0	40	67	0	0	100
fixed	2	6	8	314523	2	3	3	1	0	871	1	4	0	56	68	0	0	100
fixed	2	6	9	316070	3	2	2	1	0	957	1	4	0	48	69	0	0	100
fixed	2	6	10	317566	1	4	4	1	0	574	1	4	0	64	70	0	0	100
fixed	2	6	11	318837	5	2	2	1	0	728	1	4	0	48	71	0	0	100
fixed	2	6	12	320195	4	3	3	1	0	1182	1	4	0	56	72	0	0	100
fixed	2	7	1	322533	4	1	1	1	0	1155	1	4	0	40	73	0	0	100
fixed	2	7	2	324624	1	2	2	1	0	811	1	4	0	48	74	0	0	100
fixed	2	7	3	325883	6	4	4	1	0	574	1	4	0	64	75	0	0	100
fixed	2	7	4	327192	2	1	1	1	0	758	1	4	0	40	76	0	0	100
fixed	2	7	5	328277	5	3	3	1	0	1072	1	4	0	56	77	0	0	100
fixed	2	7	6	329966	6	4	4	1	0	696	1	4	0	64	78	0	0	100
fixed	2	7	7	330975	3	1	1	1	0	822	1	4	0	40	79	0	0	100
fixed	2	7	8	332575	2	3	3	2	0	1330	2	4	0	56	80	0	0	100
fixed	2	7	9	334232	3	2	2	1	0	812	1	4	0	48	81	0	0	100
fixed	2	7	10	335863	1	4	4	1	0	734	1	4	0	64	82	0	0	100
fixed	2	7	11	337236	5	2	2	1	0	820	1	4	0	48	83	0	0	100
fixed	2	7	12	338380	4	3	3	1	0	908	1	4	0	56	84	0	0	100
fixed	2	8	1	340544	4	1	1	1	0	848	1	4	0	40	85	0	0	100
fixed	2	8	2	341715	1	2	2	1	0	1167	1	4	0	48	86	0	0	100
fixed	2	8	3	343338	6	4	4	1	0	562	1	4	0	64	87	0	0	100
fixed	2	8	4	344726	2	1	1	1	0	719	1	4	0	40	88	0	0	100
fixed	2	8	5	345896	5	3	3	2	0	1718	2	4	0	56	89	0	0	100
fixed	2	8	6	348591	6	4	4	1	0	788	1	4	0	64	90	0	0	100
fixed	2	8	7	350356	3	1	1	1	0	745	1	4	0	40	91	0	0	100
fixed	2	8	8	351441	2	3	3	1	0	947	1	4	0	56	92	0	0	100
fixed	2	8	9	353374	3	2	2	1	0	1065	1	4	0	48	93	0	0	100
fixed	2	8	10	355438	1	4	4	1	0	530	1	4	0	64	94	0	0	100
fixed	2	8	11	356521	5	2	2	1	0	852	1	4	0	48	95	0	0	100
fixed	2	8	12	358107	4	3	3	1	0	808	1	4	0	56	96	0	0	100
fixed	2	9	1	359791	4	1	1	1	0	697	1	4	0	40	97	0	0	100
fixed	2	9	2	361159	1	2	2	1	0	927	1	4	0	48	98	0	0	100
fixed	2	9	3	362619	6	4	4	1	0	481	1	4	0	64	99	0	0	100
fixed	2	9	4	363813	2	1	1	1	0	863	1	4	0	40	100	0	0	100
fixed	2	9	5	365572	5	3	3	1	0	1108	1	4	0	56	101	0	0	100
fixed	2	9	6	367035	6	4	4	1	0	935	1	4	0	64	102	0	0	100
fixed	2	9	7	368814	3	1	1	1	0	739	1	4	0	40	103	0	0	100
fixed	2	9	8	370077	2	3	3	2	0	1526	2	4	0	56	104	0	0	100
fixed	2	9	9	372398	3	2	2	1	0	755	1	4	0	48	105	0	0	100
fixed	2	9	10	373945	1	4	4	1	0	594	1	4	0	64	106	0	0	100
fixed	2	9	11	375405	5	2	2	1	0	924	1	4	0	48	107	0	0	100
fixed	2	9	12	377345	4	3	3	1	0	626	1	4	0	56	108	0	0	100
fixed	2	10	1	379139	4	1	1	1	0	670	1	4	0	40	109	0	0	100
fixed	2	10	2	380427	1	2	2	1	0	1215	1	4	0	48	110	0	0	100
fixed	2	10	3	382455	6	4	4	1	0	673	1	4	0	64	111	0	0	100
fixed	2	10	4	383634	2	1	1	1	0	775	1	4	0	40	112	0	0	100
fixed	2	10	5	385247	5	3	3	1	0	851	1	4	0	56	113	0	0	100
fixed	2	10	6	386987	6	4	4	1	0	658	1	4	0	64	114	0	0	100
fixed	2	10	7	388595	3	1	1	1	0	709	1	4	0	40	115	0	0	100
fixed	2	10	8	390230	2	3	3	1	0	1024	1	4	0	56	116	0	0	100
fixed	2	10	9	392173	3	2	2	1	0	574	1	4	0	48	117	0	0	100
fixed	2	10	10	393573	1	4	4	1	0	514	1	4	0	64	118	0	0	100
fixed	2	10	11	395103	5	2	2	1	0	802	1	4	0	48	119	0	0	100
fixed	2	10	12	396634	4	3	3	1	0	881	1	4	0	56	120	0	0	100
fixed	3	1	1	398584	4	1	1	1	0	534	1	4	0	72	1	0	0	100
fixed	3	1	2	400025	1	2	2	1	0	977	1	4	0	80	2	0	0	100
fixed	3	1	3	402024	6	4	4	1	0	589	1	4	0	96	3	0	0	100
fixed	3	1	4	403189	2	1	1	1	0	611	1	4	0	72	4	0	0	100
fixed	3	1	5	404097	5	3	3	1	0	748	1	4	0	88	5	0	0	100
fixed	3	1	6	405325	6	4	4	1	0	777	1	4	0	96	6	0	0	100
fixed	3	1	7	406725	3	1	1	1	0	669	1	4	0	72	7	0	0	100
fixed	3	1	8	408168	2	3	3	1	0	952	1	4	0	88	8	0	0	100
fixed	3	1	9	409998	3	2	2	1	0	818	1	4	0	80	9	0	0	100
fixed	3	1	10	411626	1	4	4	1	0	646	1	4	0	96	10	0	0	100
fixed	3	1	11	412714	5	2	2	1	0	792	1	4	0	80	11	0	0	100
fixed	3	1	12	414108	4	3	3	1	0	1092	1	4	0	88	12	0	0	100
fixed	3	2	1	416029	4	1	1	1	0	707	1	4	0	72	13	0	0	100
fixed	3	2	2	417450	1	2	2	1	0	943	1	4	0	80	14	0	0	100
fixed	3	2	3	419367	6	4	4	1	0	598	1	4	0	96	15	0	0	100
fixed	3	2	4	420850	2	1	1	1	0	815	1	4	0	72	16	0	0	100
fixed	3	2	5	422483	5	3	3	1	0	770	1	4	0	88	17	0	0	100
fixed	3	2	6	423573	6	4	4	1	0	652	1	4	0	96	18	0	0	100
fixed	3	2	7	424581	3	1	1	1	0	705	1	4	0	72	19	0	0	100
fixed	3	2	8	426027	2	3	3	1	0	964	1	4	0	88	20	0	0	100
fixed	3	2	9	427552	3	2	2	1	0	707	1	4	0	80	21	0	0	100
fixed	3	2	10	429053	1	4	4	1	0	596	1	4	0	96	22	0	0	100
fixed	3	2	11	430263	5	2	2	1	0	792	1	4	0	80	23	0	0	100
fixed	3	2	12	431599	4	3	3	1	0	624	1	4	0	88	24	0	0	100
fixed	3	3	1	433355	4	1	1	1	0	653	1	4	0	72	25	0	0	100
fixed	3	3	2	434469	1	2	2	1	0	942	1	4	0	80	26	0	0	100
fixed	3	3	3	435751	6	4	4	1	0	632	1	4	0	96	27	0	0	100
fixed	3	3	4	437206	2	1	1	1	0	626	1	4	0	72	28	0	0	100
fixed	3	3	5	438785	5	3	3	1	0	863	1	4	0	88	29	0	0	100
fixed	3	3	6	440268	6	4	4	1	0	561	1	4	0	96	30	0	0	100
fixed	3	3	7	441458	3	1	1	1	0	670	1	4	0	72	31	0	0	100
fixed	3	3	8	443008	2	3	3	1	0	837	1	4	0	88	32	0	0	100
fixed	3	3	9	444801	3	2	2	1	0	560	1	4	0	80	33	0	0	100
fixed	3	3	10	446100	1	4	4	1	0	570	1	4	0	96	34	0	0	100
fixed	3	3	11	447631	5	2	2	1	0	745	1	4	0	80	35	0	0	100
fixed	3	3	12	449082	4	3	3	1	0	611	1	4	0	88	36	0	0	100
fixed	3	4	1	450347	4	1	1	1	0	741	1	4	0	72	37	0	0	100
fixed	3	4	2	451749	1	2	2	1	0	882	1	4	0	80	38	0	0	100
fixed	3	4	3	453317	6	4	4	1	0	600	1	4	0	96	39	0	0	100
fixed	3	4	4	454511	2	1	1	1	0	877	1	4	0	72	40	0	0	100
fixed	3	4	5	455845	5	3	3	1	0	1109	1	4	0	88	41	0	0	100
fixed	3	4	6	457941	6	4	4	1	0	668	1	4	0	96	42	0	0	100
fixed	3	4	7	459472	3	1	1	1	0	707	1	4	0	72	43	0	0	100
fixed	3	4	8	460580	2	3	3	1	0	956	1	4	0	88	44	0	0	100
fixed	3	4	9	462369	3	2	2	1	0	969	1	4	0	80	45	0	0	100
fixed	3	4	10	464291	1	4	4	1	0	527	1	4	0	96	46	0	0	100
fixed	3	4	11	465372	5	2	2	1	0	785	1	4	0	80	47	0	0	100
fixed	3	4	12	466706	4	3	3	1	0	841	1	4	0	88	48	0	0	100
fixed	3	5	1	468625	4	1	1	1	0	751	1	4	0	72	49	0	0	100
fixed	3	5	2	470127	1	2	2	1	0	824	1	4	0	80	50	0	0	100
fixed	3	5	3	471566	6	4	4	1	0	611	1	4	0	96	51	0	0	100
fixed	3	5	4	473198	2	1	1	1	0	654	1	4	0	72	52	0	0	100
fixed	3	5	5	474248	5	3	3	1	0	1138	1	4	0	88	53	0	0	100
fixed	3	5	6	476366	6	4	4	1	0	640	1	4	0	96	54	0	0	100
fixed	3	5	7	477849	3	1	1	1	0	673	1	4	0	72	55	0	0	100
fixed	3	5	8	479128	2	3	3	1	0	963	1	4	0	88	56	0	0	100
fixed	3	5	9	480688	3	2	2	1	0	760	1	4	0	80	57	0	0	100
fixed	3	5	10	482130	1	4	4	1	0	628	1	4	0	96	58	0	0	100
fixed	3	5	11	483315	5	2	2	1	0	793	1	4	0	80	59	0	0	100
fixed	3	5	12	484628	4	3	3	1	0	681	1	4	0	88	60	0	0	100
fixed	3	6	1	485901	4	1	1	1	0	732	1	4	0	72	61	0	0	100
fixed	3	6	2	487469	1	2	2	1	0	753	1	4	0	80	62	0	0	100
fixed	3	6	3	488990	6	4	4	1	0	601	1	4	0	96	63	0	0	100
fixed	3	6	4	490517	2	1	1	1	0	784	1	4	0	72	64	0	0	100
fixed	3	6	5	491763	5	3	3	1	0	803	1	4	0	88	65	0	0	100
fixed	3	6	6	493039	6	4	4	1	0	629	1	4	0	96	66	0	0	100
fixed	3	6	7	494671	3	1	1	2	0	1208	2	4	0	72	67	0	0	100
fixed	3	6	8	496754	2	3	3	1	0	1104	1	4	0	88	68	0	0	100
fixed	3	6	9	498155	3	2	2	1	0	621	1	4	0	80	69	0	0	100
fixed	3	6	10	499393	1	4	4	1	0	401	1	4	0	96	70	0	0	100
fixed	3	6	11	500138	5	2	2	1	0	673	1	4	0	80	71	0	0	100
fixed	3	6	12	501210	4	3	3	1	0	899	1	4	0	88	72	0	0	100
fixed	3	7	1	502759	4	1	1	1	0	890	1	4	0	72	73	0	0	100
fixed	3	7	2	504562	1	2	2	1	0	909	1	4	0	80	74	0	0	100
fixed	3	7	3	506461	6	4	4	1	0	525	1	4	0	96	75	0	0	100
fixed	3	7	4	507480	2	1	1	1	0	626	1	4	0	72	76	0	0	100
fixed	3	7	5	509000	5	3	3	1	0	738	1	4	0	88	77	0	0	100
fixed	3	7	6	510376	6	4	4	1	0	655	1	4	0	96	78	0	0	100
fixed	3	7	7	511382	3	1	1	1	0	884	1	4	0	72	79	0	0	100
fixed	3	7	8	513180	2	3	3	1	0	945	1	4	0	88	80	0	0	100
fixed	3	7	9	514646	3	2	2	1	0	506	1	4	0	80	81	0	0	100
fixed	3	7	10	515469	1	4	4	1	0	576	1	4	0	96	82	0	0	100
fixed	3	7	11	516824	5	2	2	1	0	846	1	4	0	80	83	0	0	100
fixed	3	7	12	518469	4	3	3	1	0	744	1	4	0	88	84	0	0	100
fixed	3	8	1	520001	4	1	1	1	0	623	1	4	0	72	85	0	0	100
fixed	3	8	2	521007	1	2	2	2	0	1261	2	4	0	80	86	0	0	100
fixed	3	8	3	523141	6	4	4	1	0	762	1	4	0	96	87	0	0	100
fixed	3	8	4	524427	2	1	1	1	0	716	1	4	0	72	88	0	0	100
fixed	3	8	5	525658	5	3	3	1	0	976	1	4	0	88	89	0	0	100
fixed	3	8	6	527538	6	4	4	1	0	664	1	4	0	96	90	0	0	100
fixed	3	8	7	528558	3	1	1	1	0	901	1	4	0	72	91	0	0	100
fixed	3	8	8	529905	2	3	3	1	0	1020	1	4	0	88	92	0	0	100
fixed	3	8	9	531956	3	2	2	1	0	693	1	4	0	80	93	0	0	100
fixed	3	8	10	533240	1	4	4	1	0	583	1	4	0	96	94	0	0	100
fixed	3	8	11	534360	5	2	2	1	0	783	1	4	0	80	95	0	0	100
fixed	3	8	12	535744	4	3	3	1	0	629	1	4	0	88	96	0	0	100
fixed	3	9	1	537310	4	1	1	1	0	730	1	4	0	72	97	0	0	100
fixed	3	9	2	538910	1	2	0	2	2	0	3	4	0	80	97	0	1	99
fixed	3	9	3	542267	6	4	4	1	0	1945	1	4	0	96	98	0	1	99
fixed	3	9	4	545221	2	1	1	1	0	635	1	4	0	72	99	0	1	99
fixed	3	9	5	546451	5	3	3	1	0	791	1	4	0	88	100	0	1	99
fixed	3	9	6	548056	6	4	4	1	0	611	1	4	0	96	101	0	1	99
fixed	3	9	7	549340	3	1	1	1	0	581	1	4	0	72	102	0	1	99
fixed	3	9	8	550772	2	3	3	1	0	1048	1	4	0	88	103	0	1	99
fixed	3	9	9	552460	3	2	2	1	0	601	1	4	0	80	104	0	1	99
fixed	3	9	10	553742	1	4	4	1	0	451	1	4	0	96	105	0	1	99
fixed	3	9	11	554682	5	2	2	1	0	787	1	4	0	80	106	0	1	99
fixed	3	9	12	556294	4	3	3	1	0	678	1	4	0	88	107	0	1	99
fixed	3	10	1	557677	4	1	1	1	0	692	1	4	0	72	108	0	1	99
fixed	3	10	2	558877	1	2	2	2	0	1305	2	4	0	80	109	0	1	99
fixed	3	10	3	560855	6	4	4	1	0	629	1	4	0	96	110	0	1	99
fixed	3	10	4	562169	2	1	1	1	0	733	1	4	0	72	111	0	1	99
fixed	3	10	5	563647	5	3	3	1	0	959	1	4	0	88	112	0	1	99
fixed	3	10	6	565198	6	4	4	1	0	637	1	4	0	96	113	0	1	99
fixed	3	10	7	566626	3	1	1	1	0	729	1	4	0	72	114	0	1	99
fixed	3	10	8	567986	2	3	3	1	0	1287	1	4	0	88	115	0	1	99
fixed	3	10	9	570145	3	2	2	1	0	772	1	4	0	80	116	0	1	99
fixed	3	10	10	571805	1	4	4	1	0	542	1	4	0	96	117	0	1	99
fixed	3	10	11	572719	5	2	2	1	0	967	1	4	0	80	118	0	1	99
fixed	3	10	12	574317	4	3	3	1	0	1123	1	4	0	88	119	0	1	99
fixed	4	1	1	742662	4	1	1	2	0	1104	2	4	0	104	1	0	0	100
fixed	4	1	2	744662	1	2	2	1	0	1124	1	4	0	112	2	0	0	100
fixed	4	1	3	746192	6	4	4	1	0	571	1	4	0	128	3	0	0	100
fixed	4	1	4	747751	2	1	1	1	0	665	1	4	0	104	4	0	0	100
fixed	4	1	5	749301	5	3	3	1	0	743	1	4	0	120	5	0	0	100
fixed	4	1	6	750549	6	4	4	1	0	626	1	4	0	128	6	0	0	100
fixed	4	1	7	751863	3	1	1	1	0	603	1	4	0	104	7	0	0	100
fixed	4	1	8	753503	2	3	3	1	0	790	1	4	0	120	8	0	0	100
fixed	4	1	9	754974	3	2	2	1	0	720	1	4	0	112	9	0	0	100
fixed	4	1	10	756127	1	4	4	1	0	455	1	4	0	128	10	0	0	100
fixed	4	1	11	757467	5	2	2	1	0	765	1	4	0	112	11	0	0	100
fixed	4	1	12	758876	4	3	3	1	0	602	1	4	0	120	12	0	0	100
fixed	4	2	1	760658	4	1	1	1	0	694	1	4	0	104	13	0	0	100
fixed	4	2	2	761860	1	2	2	1	0	779	1	4	0	112	14	0	0	100
fixed	4	2	3	763178	6	4	4	1	0	571	1	4	0	128	15	0	0	100
fixed	4	2	4	764106	2	1	1	1	0	724	1	4	0	104	16	0	0	100
fixed	4	2	5	765848	5	3	3	1	0	723	1	4	0	120	17	0	0	100
fixed	4	2	6	767276	6	4	4	1	0	558	1	4	0	128	18	0	0	100
fixed	4	2	7	768547	3	1	1	1	0	704	1	4	0	104	19	0	0	100
fixed	4	2	8	770120	2	3	3	1	0	926	1	4	0	120	20	0	0	100
fixed	4	2	9	771632	3	2	2	1	0	589	1	4	0	112	21	0	0	100
fixed	4	2	10	772909	1	4	4	1	0	360	1	4	0	128	22	0	0	100
fixed	4	2	11	774146	5	2	2	1	0	659	1	4	0	112	23	0	0	100
fixed	4	2	12	775155	4	3	3	1	0	721	1	4	0	120	24	0	0	100
fixed	4	3	1	777165	4	1	1	1	0	627	1	4	0	104	25	0	0	100
fixed	4	3	2	778773	1	2	2	1	0	1159	1	4	0	112	26	0	0	100
fixed	4	3	3	780357	6	4	4	1	0	596	1	4	0	128	27	0	0	100
fixed	4	3	4	781576	2	1	1	1	0	784	1	4	0	104	28	0	0	100
fixed	4	3	5	783205	5	3	3	1	0	1004	1	4	0	120	29	0	0	100
fixed	4	3	6	785105	6	4	4	1	0	699	1	4	0	128	30	0	0	100
fixed	4	3	7	786219	3	1	1	1	0	524	1	4	0	104	31	0	0	100
fixed	4	3	8	787424	2	3	3	1	0	841	1	4	0	120	32	0	0	100
fixed	4	3	9	788594	3	2	2	1	0	663	1	4	0	112	33	0	0	100
fixed	4	3	10	790226	1	4	4	1	0	738	1	4	0	128	34	0	0	100
fixed	4	3	11	791330	5	2	2	1	0	716	1	4	0	112	35	0	0	100
fixed	4	3	12	792896	4	3	3	1	0	777	1	4	0	120	36	0	0	100
fixed	4	4	1	794876	4	1	1	1	0	797	1	4	0	104	37	0	0	100
fixed	4	4	2	796182	1	2	2	1	0	1022	1	4	0	112	38	0	0	100
fixed	4	4	3	797743	6	4	4	1	0	532	1	4	0	128	39	0	0	100
fixed	4	4	4	798892	2	1	1	1	0	771	1	4	0	104	40	0	0	100
fixed	4	4	5	800102	5	3	3	2	0	1376	2	4	0	120	41	0	0	100
fixed	4	4	6	801957	6	4	4	1	0	593	1	4	0	128	42	0	0	100
fixed	4	4	7	803219	3	1	1	1	0	652	1	4	0	104	43	0	0	100
fixed	4	4	8	804749	2	3	3	1	0	859	1	4	0	120	44	0	0	100
fixed	4	4	9	805914	3	2	2	1	0	658	1	4	0	112	45	0	0	100
fixed	4	4	10	807547	1	4	4	1	0	533	1	4	0	128	46	0	0	100
fixed	4	4	11	808434	5	2	2	1	0	775	1	4	0	112	47	0	0	100
fixed	4	4	12	809689	4	3	3	1	0	1130	1	4	0	120	48	0	0	100
fixed	4	5	1	812034	4	1	1	1	0	854	1	4	0	104	49	0	0	100
fixed	4	5	2	813766	1	2	2	1	0	1173	1	4	0	112	50	0	0	100
fixed	4	5	3	815386	6	4	4	1	0	561	1	4	0	128	51	0	0	100
fixed	4	5	4	816448	2	1	1	1	0	683	1	4	0	104	52	0	0	100
fixed	4	5	5	817468	5	3	3	2	0	1240	2	4	0	120	53	0	0	100
fixed	4	5	6	819086	6	4	4	1	0	612	1	4	0	128	54	0	0	100
fixed	4	5	7	820712	3	1	1	1	0	591	1	4	0	104	55	0	0	100
fixed	4	5	8	821662	2	3	3	1	0	1079	1	4	0	120	56	0	0	100
fixed	4	5	9	823207	3	2	2	1	0	566	1	4	0	112	57	0	0	100
fixed	4	5	10	824445	1	4	4	1	0	513	1	4	0	128	58	0	0	100
fixed	4	5	11	825505	5	2	2	1	0	740	1	4	0	112	59	0	0	100
fixed	4	5	12	826723	4	3	3	1	0	672	1	4	0	120	60	0	0	100
fixed	4	6	1	828625	4	1	1	1	0	728	1	4	0	104	61	0	0	100
fixed	4	6	2	829965	1	2	2	1	0	1183	1	4	0	112	62	0	0	100
fixed	4	6	3	832057	6	4	4	1	0	663	1	4	0	128	63	0	0	100
fixed	4	6	4	833174	2	1	1	1	0	823	1	4	0	104	64	0	0	100
fixed	4	6	5	834767	5	3	3	1	0	796	1	4	0	120	65	0	0	100
fixed	4	6	6	836438	6	4	4	1	0	605	1	4	0	128	66	0	0	100
fixed	4	6	7	837636	3	1	1	1	0	658	1	4	0	104	67	0	0	100
fixed	4	6	8	839092	2	3	3	1	0	1005	1	4	0	120	68	0	0	100
fixed	4	6	9	841121	3	2	2	1	0	606	1	4	0	112	69	0	0	100
fixed	4	6	10	842085	1	4	4	1	0	702	1	4	0	128	70	0	0	100
fixed	4	6	11	843548	5	2	2	1	0	760	1	4	0	112	71	0	0	100
fixed	4	6	12	844817	4	3	3	1	0	1066	1	4	0	120	72	0	0	100
fixed	4	7	1	846937	4	1	1	1	0	664	1	4	0	104	73	0	0	100
fixed	4	7	2	848051	1	2	2	1	0	1354	1	4	0	112	74	0	0	100
fixed	4	7	3	850371	6	4	4	1	0	591	1	4	0	128	75	0	0	100
fixed	4	7	4	851459	2	1	1	1	0	609	1	4	0	104	76	0	0	100
fixed	4	7	5	852747	5	3	3	1	0	882	1	4	0	120	77	0	0	100
fixed	4	7	6	853908	6	4	4	1	0	745	1	4	0	128	78	0	0	100
fixed	4	7	7	855407	3	1	1	1	0	769	1	4	0	104	79	0	0	100
fixed	4	7	8	857026	2	3	3	1	0	789	1	4	0	120	80	0	0	100
fixed	4	7	9	858278	3	2	2	1	0	656	1	4	0	112	81	0	0	100
fixed	4	7	10	859864	1	4	4	1	0	629	1	4	0	128	82	0	0	100
fixed	4	7	11	860900	5	2	2	1	0	809	1	4	0	112	83	0	0	100
fixed	4	7	12	862002	4	3	3	1	0	674	1	4	0	120	84	0	0	100
fixed	4	8	1	863360	4	1	1	1	0	696	1	4	0	104	85	0	0	100
fixed	4	8	2	864698	1	2	2	1	0	952	1	4	0	112	86	0	0	100
fixed	4	8	3	866064	6	4	4	1	0	614	1	4	0	128	87	0	0	100
fixed	4	8	4	867105	2	1	1	1	0	754	1	4	0	104	88	0	0	100
fixed	4	8	5	868257	5	3	3	1	0	817	1	4	0	120	89	0	0	100
fixed	4	8	6	869842	6	4	4	1	0	774	1	4	0	128	90	0	0	100
fixed	4	8	7	871458	3	1	1	1	0	658	1	4	0	104	91	0	0	100
fixed	4	8	8	872873	2	3	3	1	0	926	1	4	0	120	92	0	0	100
fixed	4	8	9	874124	3	2	2	1	0	777	1	4	0	112	93	0	0	100
fixed	4	8	10	875419	1	4	4	1	0	658	1	4	0	128	94	0	0	100
fixed	4	8	11	876611	5	2	2	1	0	743	1	4	0	112	95	0	0	100
fixed	4	8	12	877942	4	3	3	2	0	1263	2	4	0	120	96	0	0	100
fixed	4	9	1	880185	4	1	1	1	0	720	1	4	0	104	97	0	0	100
fixed	4	9	2	881667	1	2	2	1	0	1137	1	4	0	112	98	0	0	100
fixed	4	9	3	883286	6	4	4	1	0	589	1	4	0	128	99	0	0	100
fixed	4	9	4	884826	2	1	1	1	0	828	1	4	0	104	100	0	0	100
fixed	4	9	5	886613	5	3	3	1	0	872	1	4	0	120	101	0	0	100
fixed	4	9	6	888185	6	4	4	1	0	621	1	4	0	128	102	0	0	100
fixed	4	9	7	889238	3	1	1	1	0	1056	1	4	0	104	103	0	0	100
fixed	4	9	8	891315	2	3	3	1	0	856	1	4	0	120	104	0	0	100
fixed	4	9	9	892698	3	2	2	1	0	694	1	4	0	112	105	0	0	100
fixed	4	9	10	893987	1	4	4	1	0	551	1	4	0	128	106	0	0	100
fixed	4	9	11	895319	5	2	2	1	0	879	1	4	0	112	107	0	0	100
fixed	4	9	12	896752	4	3	3	1	0	923	1	4	0	120	108	0	0	100
fixed	4	10	1	898513	4	1	1	2	0	1479	2	4	0	104	109	0	0	100
fixed	4	10	2	900724	1	2	2	1	0	866	1	4	0	112	110	0	0	100
fixed	4	10	3	902346	6	4	4	1	0	557	1	4	0	128	111	0	0	100
fixed	4	10	4	903239	2	1	1	1	0	719	1	4	0	104	112	0	0	100
fixed	4	10	5	904310	5	3	3	2	0	1194	2	4	0	120	113	0	0	100
fixed	4	10	6	906517	6	4	4	1	0	725	1	4	0	128	114	0	0	100
fixed	4	10	7	908031	3	1	1	1	0	693	1	4	0	104	115	0	0	100
fixed	4	10	8	909107	2	3	3	1	0	863	1	4	0	120	116	0	0	100
fixed	4	10	9	910961	3	2	2	1	0	856	1	4	0	112	117	0	0	100
fixed	4	10	10	912359	1	4	4	1	0	710	1	4	0	128	118	0	0	100
fixed	4	10	11	913387	5	2	2	1	0	794	1	4	0	112	119	0	0	100
fixed	4	10	12	914831	4	3	3	1	0	885	1	4	0	120	120	0	0	100
fixed	5	1	1	916588	4	1	1	1	0	850	1	4	0	136	1	0	0	100
fixed	5	1	2	917894	1	2	2	1	0	1051	1	4	0	144	2	0	0	100
fixed	5	1	3	919794	6	4	4	1	0	571	1	4	0	160	3	0	0	100
fixed	5	1	4	921004	2	1	1	1	0	719	1	4	0	136	4	0	0	100
fixed	5	1	5	922450	5	3	3	1	0	850	1	4	0	152	5	0	0	100
fixed	5	1	6	923664	6	4	4	1	0	758	1	4	0	160	6	0	0	100
fixed	5	1	7	925353	3	1	1	1	0	687	1	4	0	136	7	0	0	100
fixed	5	1	8	927073	2	3	3	1	0	870	1	4	0	152	8	0	0	100
fixed	5	1	9	928940	3	2	2	1	0	1055	1	4	0	144	9	0	0	100
fixed	5	1	10	930979	1	4	4	1	0	521	1	4	0	160	10	0	0	100
fixed	5	1	11	932478	5	2	2	1	0	713	1	4	0	144	11	0	0	100
fixed	5	1	12	933791	4	3	3	1	0	890	1	4	0	152	12	0	0	100
fixed	5	2	1	935537	4	1	1	1	0	591	1	4	0	136	13	0	0	100
fixed	5	2	2	937029	1	2	2	1	0	856	1	4	0	144	14	0	0	100
fixed	5	2	3	938738	6	4	4	1	0	656	1	4	0	160	15	0	0	100
fixed	5	2	4	940362	2	1	1	1	0	804	1	4	0	136	16	0	0	100
fixed	5	2	5	941676	5	3	3	1	0	828	1	4	0	152	17	0	0	100
fixed	5	2	6	942937	6	4	4	1	0	726	1	4	0	160	18	0	0	100
fixed	5	2	7	944065	3	1	1	1	0	750	1	4	0	136	19	0	0	100
fixed	5	2	8	945320	2	3	3	1	0	873	1	4	0	152	20	0	0	100
fixed	5	2	9	947140	3	2	2	1	0	948	1	4	0	144	21	0	0	100
fixed	5	2	10	949061	1	4	4	1	0	539	1	4	0	160	22	0	0	100
fixed	5	2	11	950545	5	2	2	2	0	1356	2	4	0	144	23	0	0	100
fixed	5	2	12	952616	4	3	3	1	0	1004	1	4	0	152	24	0	0	100
fixed	5	3	1	954868	4	1	1	1	0	717	1	4	0	136	25	0	0	100
fixed	5	3	2	956049	1	2	2	1	0	1035	1	4	0	144	26	0	0	100
fixed	5	3	3	957557	6	4	4	1	0	579	1	4	0	160	27	0	0	100
fixed	5	3	4	958616	2	1	1	1	0	702	1	4	0	136	28	0	0	100
fixed	5	3	5	960098	5	3	3	1	0	1431	1	4	0	152	29	0	0	100
fixed	5	3	6	962074	6	4	4	1	0	588	1	4	0	160	30	0	0	100
fixed	5	3	7	963244	3	1	1	1	0	434	1	4	0	136	31	0	0	100
fixed	5	3	8	964655	2	3	3	1	0	975	1	4	0	152	32	0	0	100
fixed	5	3	9	966165	3	2	2	1	0	494	1	4	0	144	33	0	0	100
fixed	5	3	10	967515	1	4	4	1	0	533	1	4	0	160	34	0	0	100
fixed	5	3	11	968521	5	2	2	1	0	746	1	4	0	144	35	0	0	100
fixed	5	3	12	969682	4	3	3	1	0	674	1	4	0	152	36	0	0	100
fixed	5	4	1	971058	4	1	1	1	0	703	1	4	0	136	37	0	0	100
fixed	5	4	2	972799	1	2	2	1	0	733	1	4	0	144	38	0	0	100
fixed	5	4	3	973972	6	4	4	1	0	580	1	4	0	160	39	0	0	100
fixed	5	4	4	975115	2	1	1	1	0	675	1	4	0	136	40	0	0	100
fixed	5	4	5	976454	5	3	3	1	0	794	1	4	0	152	41	0	0	100
fixed	5	4	6	978083	6	4	4	1	0	574	1	4	0	160	42	0	0	100
fixed	5	4	7	979204	3	1	1	1	0	614	1	4	0	136	43	0	0	100
fixed	5	4	8	980838	2	3	3	1	0	929	1	4	0	152	44	0	0	100
fixed	5	4	9	982113	3	2	2	1	0	595	1	4	0	144	45	0	0	100
fixed	5	4	10	983023	1	4	4	1	0	596	1	4	0	160	46	0	0	100
fixed	5	4	11	984212	5	2	2	1	0	674	1	4	0	144	47	0	0	100
fixed	5	4	12	985678	4	3	3	1	0	940	1	4	0	152	48	0	0	100
fixed	5	5	1	987866	4	1	1	1	0	687	1	4	0	136	49	0	0	100
fixed	5	5	2	988894	1	2	2	1	0	1156	1	4	0	144	50	0	0	100
fixed	5	5	3	990469	6	4	4	1	0	529	1	4	0	160	51	0	0	100
fixed	5	5	4	991400	2	1	1	1	0	730	1	4	0	136	52	0	0	100
fixed	5	5	5	992516	5	3	3	1	0	754	1	4	0	152	53	0	0	100
fixed	5	5	6	994215	6	4	4	1	0	618	1	4	0	160	54	0	0	100
fixed	5	5	7	995691	3	1	1	1	0	796	1	4	0	136	55	0	0	100
fixed	5	5	8	997159	2	3	3	1	0	989	1	4	0	152	56	0	0	100
fixed	5	5	9	998689	3	2	2	1	0	628	1	4	0	144	57	0	0	100
fixed	5	5	10	1000037	1	4	4	1	0	564	1	4	0	160	58	0	0	100
fixed	5	5	11	1000970	5	2	2	1	0	804	1	4	0	144	59	0	0	100
fixed	5	5	12	1002736	4	3	3	1	0	937	1	4	0	152	60	0	0	100
fixed	5	6	1	1004373	4	1	1	1	0	596	1	4	0	136	61	0	0	100
fixed	5	6	2	1005869	1	2	2	2	0	1341	2	4	0	144	62	0	0	100
fixed	5	6	3	1007709	6	4	4	1	0	607	1	4	0	160	63	0	0	100
fixed	5	6	4	1009310	2	1	1	1	0	731	1	4	0	136	64	0	0	100
fixed	5	6	5	1010854	5	3	3	1	0	969	1	4	0	152	65	0	0	100
fixed	5	6	6	1012337	6	4	4	1	0	635	1	4	0	160	66	0	0	100
fixed	5	6	7	1013619	3	1	1	1	0	684	1	4	0	136	67	0	0	100
fixed	5	6	8	1015023	2	3	3	1	0	1209	1	4	0	152	68	0	0	100
fixed	5	6	9	1016918	3	2	2	1	0	792	1	4	0	144	69	0	0	100
fixed	5	6	10	1018546	1	4	4	1	0	572	1	4	0	160	70	0	0	100
fixed	5	6	11	1019750	5	2	2	1	0	1353	1	4	0	144	71	0	0	100
fixed	5	6	12	1021431	4	3	3	2	0	857	2	4	0	152	72	0	0	100
fixed	5	7	1	1022868	4	1	1	1	0	652	1	4	0	136	73	0	0	100
fixed	5	7	2	1023911	1	2	2	1	0	1033	1	4	0	144	74	0	0	100
fixed	5	7	3	1025297	6	4	4	1	0	566	1	4	0	160	75	0	0	100
fixed	5	7	4	1026385	2	1	1	1	0	800	1	4	0	136	76	0	0	100
fixed	5	7	5	1028043	5	3	3	1	0	834	1	4	0	152	77	0	0	100
fixed	5	7	6	1029434	6	4	4	1	0	582	1	4	0	160	78	0	0	100
fixed	5	7	7	1030468	3	1	1	1	0	770	1	4	0	136	79	0	0	100
fixed	5	7	8	1031579	2	3	3	1	0	876	1	4	0	152	80	0	0	100
fixed	5	7	9	1033172	3	2	2	1	0	681	1	4	0	144	81	0	0	100
fixed	5	7	10	1034402	1	4	4	1	0	644	1	4	0	160	82	0	0	100
fixed	5	7	11	1035382	5	2	2	1	0	842	1	4	0	144	83	0	0	100
fixed	5	7	12	1036991	4	3	3	1	0	830	1	4	0	152	84	0	0	100
fixed	5	8	1	1038557	4	1	1	1	0	732	1	4	0	136	85	0	0	100
fixed	5	8	2	1040136	1	2	2	1	0	1017	1	4	0	144	86	0	0	100
fixed	5	8	3	1041849	6	4	4	1	0	577	1	4	0	160	87	0	0	100
fixed	5	8	4	1043025	2	1	1	1	0	759	1	4	0	136	88	0	0	100
fixed	5	8	5	1044628	5	3	3	1	0	1411	1	4	0	152	89	0	0	100
fixed	5	8	6	1046452	6	4	4	1	0	718	1	4	0	160	90	0	0	100
fixed	5	8	7	1048208	3	1	1	1	0	748	1	4	0	136	91	0	0	100
fixed	5	8	8	1049950	2	3	3	1	0	1281	1	4	0	152	92	0	0	100
fixed	5	8	9	1051989	3	2	2	1	0	571	1	4	0	144	93	0	0	100
fixed	5	8	10	1053246	1	4	4	1	0	590	1	4	0	160	94	0	0	100
fixed	5	8	11	1054632	5	2	2	1	0	747	1	4	0	144	95	0	0	100
fixed	5	8	12	1056350	4	3	3	1	0	810	1	4	0	152	96	0	0	100
fixed	5	9	1	1057821	4	1	1	2	0	1052	2	4	0	136	97	0	0	100
fixed	5	9	2	1059201	1	2	2	1	0	1050	1	4	0	144	98	0	0	100
fixed	5	9	3	1061273	6	4	4	1	0	626	1	4	0	160	99	0	0	100
fixed	5	9	4	1062896	2	1	1	1	0	782	1	4	0	136	100	0	0	100
fixed	5	9	5	1064662	5	3	3	1	0	1027	1	4	0	152	101	0	0	100
fixed	5	9	6	1066497	6	4	4	1	0	533	1	4	0	160	102	0	0	100
fixed	5	9	7	1067567	3	1	1	1	0	823	1	4	0	136	103	0	0	100
fixed	5	9	8	1068758	2	3	3	1	0	869	1	4	0	152	104	0	0	100
fixed	5	9	9	1070628	3	2	2	1	0	774	1	4	0	144	105	0	0	100
fixed	5	9	10	1071752	1	4	4	1	0	750	1	4	0	160	106	0	0	100
fixed	5	9	11	1073162	5	2	2	1	0	818	1	4	0	144	107	0	0	100
fixed	5	9	12	1074706	4	3	3	1	0	729	1	4	0	152	108	0	0	100
fixed	5	10	1	1076166	4	1	1	1	0	1371	1	4	0	136	109	0	0	100
fixed	5	10	2	1078200	1	2	2	1	0	1165	1	4	0	144	110	0	0	100
fixed	5	10	3	1080113	6	4	4	1	0	556	1	4	0	160	111	0	0	100
fixed	5	10	4	1081631	2	1	1	1	0	860	1	4	0	136	112	0	0	100
fixed	5	10	5	1083019	5	3	3	1	0	1105	1	4	0	152	113	0	0	100
fixed	5	10	6	1084583	6	4	4	1	0	726	1	4	0	160	114	0	0	100
fixed	5	10	7	1085634	3	1	1	1	0	1138	1	4	0	136	115	0	0	100
fixed	5	10	8	1087581	2	3	3	1	0	1048	1	4	0	152	116	0	0	100
fixed	5	10	9	1089488	3	2	2	1	0	775	1	4	0	144	117	0	0	100
fixed	5	10	10	1091168	1	4	4	1	0	600	1	4	0	160	118	0	0	100
fixed	5	10	11	1092388	5	2	2	1	0	740	1	4	0	144	119	0	0	100
fixed	5	10	12	1094174	4	3	3	1	0	768	1	4	0	152	120	0	0	100
random	6	1	1	1239815	6	1	1	1	0	872	1	4	0	168	1	0	0	100
random	6	1	2	1241716	4	4	4	1	0	712	1	4	0	192	2	0	0	100
random	6	1	3	1242770	2	2	2	1	0	707	1	4	0	176	3	0	0	100
random	6	1	4	1244101	3	3	3	1	0	498	1	4	0	184	4	0	0	100
random	6	1	5	1245152	5	2	2	1	0	758	1	4	0	176	5	0	0	100
random	6	1	6	1246663	1	4	4	1	0	510	1	4	0	192	6	0	0	100
random	6	1	7	1247533	6	1	1	1	0	473	1	4	0	168	7	0	0	100
random	6	1	8	1248718	2	3	3	1	0	1215	1	4	0	184	8	0	0	100
random	6	1	9	1250705	4	2	2	1	0	451	1	4	0	176	9	0	0	100
random	6	1	10	1251963	1	1	1	1	0	549	1	4	0	168	10	0	0	100
random	6	1	11	1253406	5	4	4	1	0	648	1	4	0	192	11	0	0	100
random	6	1	12	1254571	3	3	3	1	0	703	1	4	0	184	12	0	0	100
random	6	1	13	1256090	5	2	2	1	0	598	1	4	0	176	13	0	0	100
random	6	1	14	1257575	1	4	4	1	0	647	1	4	0	192	14	0	0	100
random	6	1	15	1259104	3	1	1	1	0	799	1	4	0	168	15	0	0	100
random	6	1	16	1260492	4	3	3	1	0	604	1	4	0	184	16	0	0	100
random	6	1	17	1262056	6	4	4	1	0	570	1	4	0	192	17	0	0	100
random	6	1	18	1263279	2	1	1	1	0	654	1	4	0	168	18	0	0	100
random	6	1	19	1264389	5	3	3	2	0	1079	2	4	0	184	19	0	0	100
random	6	1	20	1266178	2	2	2	1	0	724	1	4	0	176	20	0	0	100
random	6	1	21	1267188	3	3	3	1	0	592	1	4	0	184	21	0	0	100
random	6	1	22	1268092	6	1	1	1	0	650	1	4	0	168	22	0	0	100
random	6	1	23	1269569	4	2	2	1	0	628	1	4	0	176	23	0	0	100
random	6	1	24	1270889	1	4	4	1	0	516	1	4	0	192	24	0	0	100
random	6	1	25	1272263	4	3	3	1	0	865	1	4	0	184	25	0	0	100
random	6	1	26	1273733	2	1	1	1	0	731	1	4	0	168	26	0	0	100
random	6	1	27	1275281	5	2	2	1	0	730	1	4	0	176	27	0	0	100
random	6	1	28	1276717	6	4	4	1	0	533	1	4	0	192	28	0	0	100
random	6	1	29	1278074	1	3	3	1	0	900	1	4	0	184	29	0	0	100
random	6	1	30	1279688	5	2	2	1	0	471	1	4	0	176	30	0	0	100
random	6	1	31	1280685	2	1	1	1	0	469	1	4	0	168	31	0	0	100
random	6	1	32	1281651	3	3	3	1	0	684	1	4	0	184	32	0	0	100
random	6	1	33	1282930	6	4	4	1	0	630	1	4	0	192	33	0	0	100
random	6	1	34	1284068	4	2	2	1	0	638	1	4	0	176	34	0	0	100
random	6	1	35	1285423	3	4	4	1	0	460	1	4	0	192	35	0	0	100
random	6	1	36	1286815	1	1	1	1	0	697	1	4	0	168	36	0	0	100
random	6	1	37	1288386	3	4	4	1	0	758	1	4	0	192	37	0	0	100
random	6	1	38	1289928	5	3	3	1	0	829	1	4	0	184	38	0	0	100
random	6	1	39	1291415	6	1	1	1	0	598	1	4	0	168	39	0	0	100
random	6	1	40	1292530	1	2	2	1	0	567	1	4	0	176	40	0	0	100
random	6	1	41	1293954	2	3	3	1	0	595	1	4	0	184	41	0	0	100
random	6	1	42	1295221	4	4	4	1	0	597	1	4	0	192	42	0	0	100
random	6	1	43	1296147	1	2	2	1	0	774	1	4	0	176	43	0	0	100
random	6	1	44	1297536	6	3	3	1	0	579	1	4	0	184	44	0	0	100
random	6	1	45	1299032	3	1	1	1	0	644	1	4	0	168	45	0	0	100
random	6	1	46	1300524	4	4	4	1	0	437	1	4	0	192	46	0	0	100
random	6	1	47	1301728	2	2	2	1	0	690	1	4	0	176	47	0	0	100
random	6	1	48	1303378	5	1	1	1	0	820	1	4	0	168	48	0	0	100
random	6	1	49	1304977	2	3	3	1	0	752	1	4	0	184	49	0	0	100
random	6	1	50	1306125	3	1	1	2	0	1128	2	4	0	168	50	0	0	100
random	6	1	51	1308068	1	4	4	1	0	629	1	4	0	192	51	0	0	100
random	6	1	52	1309067	5	3	3	1	0	739	1	4	0	184	52	0	0	100
random	6	1	53	1310825	3	2	2	1	0	544	1	4	0	176	53	0	0	100
random	6	1	54	1311920	6	4	4	1	0	610	1	4	0	192	54	0	0	100
random	6	1	55	1312820	4	2	2	1	0	636	1	4	0	176	55	0	0	100
random	6	1	56	1314160	1	1	1	1	0	435	1	4	0	168	56	0	0	100
random	6	1	57	1315096	5	4	4	1	0	556	1	4	0	192	57	0	0	100
random	6	1	58	1316329	2	1	1	1	0	615	1	4	0	168	58	0	0	100
random	6	1	59	1317374	6	2	2	1	0	1427	1	4	0	176	59	0	0	100
random	6	1	60	1319431	4	3	3	1	0	532	1	4	0	184	60	0	0	100
random	6	1	61	1320699	1	2	2	1	0	846	1	4	0	176	61	0	0	100
random	6	1	62	1322191	6	4	4	1	0	551	1	4	0	192	62	0	0	100
random	6	1	63	1323619	4	1	1	1	0	443	1	4	0	168	63	0	0	100
random	6	1	64	1324505	2	2	2	1	0	700	1	4	0	176	64	0	0	100
random	6	1	65	1325749	4	3	3	1	0	512	1	4	0	184	65	0	0	100
random	6	1	66	1327076	3	1	1	1	0	504	1	4	0	168	66	0	0	100
random	6	1	67	1328253	1	3	3	1	0	1006	1	4	0	184	67	0	0	100
random	6	1	68	1330113	5	4	4	1	0	815	1	4	0	192	68	0	0	100
random	6	1	69	1331651	2	2	2	1	0	670	1	4	0	176	69	0	0	100
random	6	1	70	1332704	3	1	1	1	0	706	1	4	0	168	70	0	0	100
random	6	1	71	1334009	5	4	4	1	0	490	1	4	0	192	71	0	0	100
random	6	1	72	1334854	6	3	3	2	0	1654	2	4	0	184	72	0	0	100
random	6	1	73	1337306	2	1	1	1	0	646	1	4	0	168	73	0	0	100
random	6	1	74	1338619	5	3	3	1	0	847	1	4	0	184	74	0	0	100
random	6	1	75	1340020	1	4	4	1	0	652	1	4	0	192	75	0	0	100
random	6	1	76	1341138	6	2	2	1	0	812	1	4	0	176	76	0	0	100
random	6	1	77	1342700	2	1	1	1	0	650	1	4	0	168	77	0	0	100
random	6	1	78	1344233	4	4	4	1	0	609	1	4	0	192	78	0	0	100
random	6	1	79	1345662	3	2	2	1	0	749	1	4	0	176	79	0	0	100
random	6	1	80	1346978	4	3	3	1	0	613	1	4	0	184	80	0	0	100
random	6	1	81	1347917	1	4	4	1	0	677	1	4	0	192	81	0	0	100
random	6	1	82	1349368	5	1	1	1	0	447	1	4	0	168	82	0	0	100
random	6	1	83	1350824	3	2	2	1	0	666	1	4	0	176	83	0	0	100
random	6	1	84	1352300	6	3	3	1	0	668	1	4	0	184	84	0	0	100
random	6	1	85	1353847	3	2	2	1	0	722	1	4	0	176	85	0	0	100
random	6	1	86	1355323	1	3	3	1	0	724	1	4	0	184	86	0	0	100
random	6	1	87	1356948	4	4	4	2	0	1015	2	4	0	192	87	0	0	100
random	6	1	88	1358654	2	1	1	1	0	631	1	4	0	168	88	0	0	100
random	6	1	89	1359784	6	4	4	1	0	583	1	4	0	192	89	0	0	100
random	6	1	90	1360750	3	3	3	1	0	790	1	4	0	184	90	0	0	100
random	6	1	91	1361843	5	4	4	1	0	736	1	4	0	192	91	0	0	100
random	6	1	92	1363544	1	2	2	1	0	791	1	4	0	176	92	0	0	100
random	6	1	93	1364747	5	1	1	1	0	788	1	4	0	168	93	0	0	100
random	6	1	94	1366196	4	3	3	1	0	791	1	4	0	184	94	0	0	100
random	6	1	95	1367887	6	1	1	1	0	855	1	4	0	168	95	0	0	100
random	6	1	96	1369564	2	2	2	1	0	761	1	4	0	176	96	0	0	100
random	6	1	97	1370972	4	3	3	1	0	892	1	4	0	184	97	0	0	100
random	6	1	98	1372764	3	2	2	1	0	633	1	4	0	176	98	0	0	100
random	6	1	99	1374151	6	3	3	1	0	1014	1	4	0	184	99	0	0	100
random	6	1	100	1375795	1	4	4	1	0	577	1	4	0	192	100	0	0	100
random	6	1	101	1376770	4	1	1	1	0	455	1	4	0	168	101	0	0	100
random	6	1	102	1377645	5	2	2	1	0	794	1	4	0	176	102	0	0	100
random	6	1	103	1379109	2	4	4	1	0	596	1	4	0	192	103	0	0	100
random	6	1	104	1380718	3	1	1	1	0	752	1	4	0	168	104	0	0	100
random	6	1	105	1382258	1	3	3	1	0	967	1	4	0	184	105	0	0	100
random	6	1	106	1384242	2	2	2	1	0	867	1	4	0	176	106	0	0	100
random	6	1	107	1385891	5	4	4	1	0	613	1	4	0	192	107	0	0	100
random	6	1	108	1386942	6	1	1	1	0	1016	1	4	0	168	108	0	0	100
random	6	1	109	1388849	5	4	4	1	0	711	1	4	0	192	109	0	0	100
random	6	1	110	1390571	6	3	3	1	0	1046	1	4	0	184	110	0	0	100
random	6	1	111	1392248	2	2	2	1	0	976	1	4	0	176	111	0	0	100
random	6	1	112	1393947	3	1	1	1	0	751	1	4	0	168	112	0	0	100
random	6	1	113	1395403	1	2	2	1	0	922	1	4	0	176	113	0	0	100
random	6	1	114	1397050	2	3	3	1	0	780	1	4	0	184	114	0	0	100
random	6	1	115	1398461	3	1	1	1	0	840	1	4	0	168	115	0	0	100
random	6	1	116	1399864	4	4	4	1	0	597	1	4	0	192	116	0	0	100
random	6	1	117	1401195	6	1	1	1	0	828	1	4	0	168	117	0	0	100
random	6	1	118	1402718	5	3	3	1	0	860	1	4	0	184	118	0	0	100
random	6	1	119	1403929	1	4	4	1	0	697	1	4	0	192	119	0	0	100
random	6	1	120	1405626	4	2	2	1	0	777	1	4	0	176	120	0	0	100
fixed	7	1	1	1407743	4	1	1	1	0	791	1	4	0	200	1	0	0	100
fixed	7	1	2	1409490	1	2	2	1	0	837	1	4	0	208	2	0	0	100
fixed	7	1	3	1411284	6	4	4	1	0	618	1	4	0	224	3	0	0	100
fixed	7	1	4	1412271	2	1	1	1	0	639	1	4	0	200	4	0	0	100
fixed	7	1	5	1413524	5	3	3	2	0	1378	2	4	0	216	5	0	0	100
fixed	7	1	6	1415817	6	4	4	1	0	609	1	4	0	224	6	0	0	100
fixed	7	1	7	1417106	3	1	1	1	0	675	1	4	0	200	7	0	0	100
fixed	7	1	8	1418728	2	3	3	1	0	710	1	4	0	216	8	0	0	100
fixed	7	1	9	1419874	3	2	2	1	0	653	1	4	0	208	9	0	0	100
fixed	7	1	10	1421042	1	4	4	1	0	652	1	4	0	224	10	0	0	100
fixed	7	1	11	1422606	5	2	2	1	0	890	1	4	0	208	11	0	0	100
fixed	7	1	12	1423957	4	3	3	1	0	656	1	4	0	216	12	0	0	100
fixed	7	2	1	1425305	4	1	1	1	0	775	1	4	0	200	1	0	0	8
fixed	7	2	2	1426735	1	2	2	1	0	715	1	4	0	208	2	0	0	14
fixed	7	2	3	1427827	6	4	4	1	0	652	1	4	0	224	3	0	0	20
fixed	7	2	4	1429234	2	1	1	1	0	681	1	4	0	200	4	0	0	25
fixed	7	2	5	1430326	5	3	3	1	0	1003	1	4	0	216	5	0	0	29
fixed	7	2	6	1431741	6	4	4	1	0	567	1	4	0	224	6	0	0	33
fixed	7	2	7	1432822	3	1	1	1	0	673	1	4	0	200	7	0	0	37
fixed	7	2	8	1434127	2	3	3	1	0	898	1	4	0	216	8	0	0	40
fixed	7	2	9	1435799	3	2	2	1	0	923	1	4	0	208	9	0	0	43
fixed	7	2	10	1437744	1	4	4	1	0	417	1	4	0	224	10	0	0	45
fixed	7	2	11	1438618	5	2	2	1	0	828	1	4	0	208	11	0	0	48
fixed	7	2	12	1439908	4	3	3	1	0	661	1	4	0	216	12	0	0	50
fixed	7	3	1	1441562	4	1	1	1	0	695	1	4	0	200	1	0	0	4
fixed	7	3	2	1443065	1	2	2	1	0	951	1	4	0	208	2	0	0	8
fixed	7	3	3	1444764	6	4	4	1	0	568	1	4	0	224	3	0	0	11
fixed	7	3	4	1445878	2	1	1	1	0	1000	1	4	0	200	4	0	0	14
fixed	7	3	5	1447541	5	3	3	1	0	793	1	4	0	216	5	0	0	17
fixed	7	3	6	1448630	6	4	4	1	0	699	1	4	0	224	6	0	0	20
fixed	7	3	7	1450356	3	1	1	1	0	866	1	4	0	200	7	0	0	23
fixed	7	3	8	1451585	2	3	3	1	0	790	1	4	0	216	8	0	0	25
fixed	7	3	9	1453403	3	2	2	1	0	698	1	4	0	208	9	0	0	27
fixed	7	3	10	1454519	1	4	4	1	0	594	1	4	0	224	10	0	0	29
fixed	7	3	11	1455500	5	2	2	1	0	889	1	4	0	208	11	0	0	31
fixed	7	3	12	1456783	4	3	3	1	0	626	1	4	0	216	12	0	0	33
fixed	7	4	1	1458069	4	1	1	1	0	692	1	4	0	200	1	0	0	3
fixed	7	4	2	1459429	1	2	2	1	0	746	1	4	0	208	2	0	0	5
fixed	7	4	3	1461198	6	4	4	1	0	423	1	4	0	224	3	0	0	8
fixed	7	4	4	1462621	2	1	1	1	0	651	1	4	0	200	4	0	0	10
fixed	7	4	5	1464083	5	3	3	1	0	885	1	4	0	216	5	0	0	12
fixed	7	4	6	1465730	6	4	4	1	0	687	1	4	0	224	6	0	0	14
fixed	7	4	7	1467091	3	1	1	1	0	661	1	4	0	200	7	0	0	16
fixed	7	4	8	1468109	2	3	3	1	0	1162	1	4	0	216	8	0	0	18
fixed	7	4	9	1469706	3	2	2	1	0	551	1	4	0	208	9	0	0	20
fixed	7	4	10	1471276	1	4	4	1	0	381	1	4	0	224	10	0	0	22
fixed	7	4	11	1472279	5	2	2	1	0	650	1	4	0	208	11	0	0	23
fixed	7	4	12	1473810	4	3	3	1	0	665	1	4	0	216	12	0	0	25
fixed	7	5	1	1475679	4	1	1	2	0	746	2	4	0	200	1	0	0	2
fixed	7	5	2	1477380	1	2	2	1	0	834	1	4	0	208	2	0	0	4
fixed	7	5	3	1478530	6	4	4	1	0	537	1	4	0	224	3	0	0	6
fixed	7	5	4	1479778	2	1	1	1	0	708	1	4	0	200	4	0	0	8
fixed	7	5	5	1480798	5	3	3	1	0	921	1	4	0	216	5	0	0	9
fixed	7	5	6	1482561	6	4	4	1	0	614	1	4	0	224	6	0	0	11
fixed	7	5	7	1483944	3	1	1	1	0	844	1	4	0	200	7	0	0	13
fixed	7	5	8	1485263	2	3	3	1	0	836	1	4	0	216	8	0	0	14
fixed	7	5	9	1487019	3	2	2	1	0	730	1	4	0	208	9	0	0	16
fixed	7	5	10	1488382	1	4	4	1	0	432	1	4	0	224	10	0	0	17
fixed	7	5	11	1489301	5	2	2	1	0	777	1	4	0	208	11	0	0	19
fixed	7	5	12	1490474	4	3	3	1	0	775	1	4	0	216	12	0	0	20
fixed	7	6	1	1492370	4	1	1	1	0	734	1	4	0	200	1	0	0	2
fixed	7	6	2	1493444	1	2	2	1	0	849	1	4	0	208	2	0	0	3
fixed	7	6	3	1495204	6	4	4	1	0	527	1	4	0	224	3	0	0	5
fixed	7	6	4	1496720	2	1	1	2	0	1111	2	4	0	200	4	0	0	6
fixed	7	6	5	1498502	5	3	3	1	0	819	1	4	0	216	5	0	0	8
fixed	7	6	6	1499870	6	4	4	1	0	561	1	4	0	224	6	0	0	9
fixed	7	6	7	1501201	3	1	1	1	0	657	1	4	0	200	7	0	0	10
fixed	7	6	8	1502797	2	3	3	1	0	885	1	4	0	216	8	0	0	12
fixed	7	6	9	1504171	3	2	2	1	0	827	1	4	0	208	9	0	0	13
fixed	7	6	10	1505796	1	4	4	1	0	366	1	4	0	224	10	0	0	14
fixed	7	6	11	1506477	5	2	2	1	0	657	1	4	0	208	11	0	0	15
fixed	7	6	12	1507850	4	3	3	1	0	607	1	4	0	216	12	0	0	17
fixed	7	7	1	1509144	4	1	1	1	0	680	1	4	0	200	1	0	0	1
fixed	7	7	2	1510402	1	2	2	1	0	979	1	4	0	208	2	0	0	3
fixed	7	7	3	1512133	6	4	4	1	0	594	1	4	0	224	3	0	0	4
fixed	7	7	4	1513599	2	1	1	1	0	876	1	4	0	200	4	0	0	5
fixed	7	7	5	1515026	5	3	3	1	0	735	1	4	0	216	5	0	0	6
fixed	7	7	6	1516393	6	4	4	1	0	669	1	4	0	224	6	0	0	8
fixed	7	7	7	1517990	3	1	1	1	0	834	1	4	0	200	7	0	0	9
fixed	7	7	8	1519313	2	3	3	1	0	1002	1	4	0	216	8	0	0	10
fixed	7	7	9	1520796	3	2	2	1	0	547	1	4	0	208	9	0	0	11
fixed	7	7	10	1521814	1	4	4	1	0	368	1	4	0	224	10	0	0	12
fixed	7	7	11	1522815	5	2	2	1	0	781	1	4	0	208	11	0	0	13
fixed	7	7	12	1524335	4	3	3	1	0	837	1	4	0	216	12	0	0	14
fixed	7	8	1	1526069	4	1	1	1	0	683	1	4	0	200	1	0	0	1
fixed	7	8	2	1527661	1	2	2	1	0	936	1	4	0	208	2	0	0	2
fixed	7	8	3	1528938	6	4	4	1	0	562	1	4	0	224	3	0	0	3
fixed	7	8	4	1530341	2	1	1	2	0	1007	2	4	0	200	4	0	0	5
fixed	7	8	5	1532024	5	3	3	1	0	1064	1	4	0	216	5	0	0	6
fixed	7	8	6	1533863	6	4	4	1	0	586	1	4	0	224	6	0	0	7
fixed	7	8	7	1535257	3	1	1	1	0	950	1	4	0	200	7	0	0	8
fixed	7	8	8	1537166	2	3	3	1	0	1069	1	4	0	216	8	0	0	9
fixed	7	8	9	1539186	3	2	2	1	0	736	1	4	0	208	9	0	0	10
fixed	7	8	10	1540471	1	4	4	1	0	705	1	4	0	224	10	0	0	11
fixed	7	8	11	1541672	5	2	2	1	0	886	1	4	0	208	11	0	0	12
fixed	7	8	12	1543544	4	3	3	1	0	847	1	4	0	216	12	0	0	13
fixed	7	9	1	1545116	4	1	1	1	0	917	1	4	0	200	1	0	0	1
fixed	7	9	2	1546746	1	2	2	1	0	1016	1	4	0	208	2	0	0	2
fixed	7	9	3	1548269	6	4	4	1	0	552	1	4	0	224	3	0	0	3
fixed	7	9	4	1549210	2	1	1	1	0	783	1	4	0	200	4	0	0	4
fixed	7	9	5	1550425	5	3	3	1	0	924	1	4	0	216	5	0	0	5
fixed	7	9	6	1552342	6	4	4	1	0	635	1	4	0	224	6	0	0	6
fixed	7	9	7	1553612	3	1	1	1	0	709	1	4	0	200	7	0	0	7
fixed	7	9	8	1554918	2	3	3	1	0	1014	1	4	0	216	8	0	0	8
fixed	7	9	9	1556440	3	2	2	1	0	790	1	4	0	208	9	0	0	9
fixed	7	9	10	1558147	1	4	4	1	0	493	1	4	0	224	10	0	0	9
fixed	7	9	11	1559021	5	2	2	1	0	840	1	4	0	208	11	0	0	10
fixed	7	9	12	1560236	4	3	3	1	0	692	1	4	0	216	12	0	0	11
fixed	7	10	1	1561690	4	1	1	1	0	767	1	4	0	200	1	0	0	1
fixed	7	10	2	1563164	1	2	2	1	0	808	1	4	0	208	2	0	0	2
fixed	7	10	3	1564994	6	4	4	1	0	635	1	4	0	224	3	0	0	3
fixed	7	10	4	1566199	2	1	1	1	0	872	1	4	0	200	4	0	0	4
fixed	7	10	5	1568026	5	3	3	1	0	859	1	4	0	216	5	0	0	4
fixed	7	10	6	1569607	6	4	4	1	0	599	1	4	0	224	6	0	0	5
fixed	7	10	7	1570684	3	1	1	1	0	858	1	4	0	200	7	0	0	6
fixed	7	10	8	1572251	2	3	3	2	0	1463	2	4	0	216	8	0	0	7
fixed	7	10	9	1574510	3	2	2	1	0	728	1	4	0	208	9	0	0	8
fixed	7	10	10	1575740	1	4	4	1	0	539	1	4	0	224	10	0	0	8
fixed	7	10	11	1576595	5	2	2	1	0	727	1	4	0	208	11	0	0	9
fixed	7	10	12	1578163	4	3	3	1	0	693	1	4	0	216	12	0	0	10
