type	block	sequ.	trial	time	Pos.	Color	Button	NumRsp	Resp_1	RT_1	R_Code	Resp_2	RT_2	Trigg.	n_hit	n_inc	n_miss	score_%

random	1	1	1	1717	6	1	1	1	0	577	1	4	0	8	1	0	0	100
random	1	1	2	2870	4	4	4	1	0	625	1	4	0	32	2	0	0	100
random	1	1	3	3904	2	2	2	1	0	805	1	4	0	16	3	0	0	100
random	1	1	4	4996	3	3	3	1	0	486	1	4	0	24	4	0	0	100
random	1	1	5	5978	5	2	2	1	0	741	1	4	0	16	5	0	0	100
random	1	1	6	7359	1	4	4	1	0	547	1	4	0	32	6	0	0	100
random	1	1	7	8800	6	1	1	1	0	534	1	4	0	8	7	0	0	100
random	1	1	8	9959	2	3	3	1	0	764	1	4	0	24	8	0	0	100
random	1	1	9	11518	4	2	2	1	0	490	1	4	0	16	9	0	0	100
random	1	1	10	12329	1	1	1	1	0	720	1	4	0	8	10	0	0	100
random	1	1	11	14093	5	4	4	1	0	573	1	4	0	32	11	0	0	100
random	1	1	12	15316	3	3	3	1	0	666	1	4	0	24	12	0	0	100
random	1	1	13	16705	5	2	2	1	0	718	1	4	0	16	13	0	0	100
random	1	1	14	18132	1	4	4	1	0	666	1	4	0	32	14	0	0	100
random	1	1	15	19686	3	1	1	1	0	560	1	4	0	8	15	0	0	100
random	1	1	16	20551	4	3	3	1	0	716	1	4	0	24	16	0	0	100
random	1	1	17	21716	6	4	4	1	0	675	1	4	0	32	17	0	0	100
random	1	1	18	22671	2	1	1	1	0	682	1	4	0	8	18	0	0	100
random	1	1	19	24195	5	3	3	2	0	1369	2	4	0	24	19	0	0	100
random	1	1	20	26591	2	2	2	1	0	860	1	4	0	16	20	0	0	100
random	1	1	21	27939	3	3	3	1	0	619	1	4	0	24	21	0	0	100
random	1	1	22	29468	6	1	1	1	0	722	1	4	0	8	22	0	0	100
random	1	1	23	30829	4	2	2	1	0	552	1	4	0	16	23	0	0	100
random	1	1	24	31935	1	4	4	1	0	434	1	4	0	32	24	0	0	100
random	1	1	25	33096	4	3	3	2	0	1024	2	4	0	24	25	0	0	100
random	1	1	26	34816	2	1	1	1	0	599	1	4	0	8	26	0	0	100
random	1	1	27	35721	5	2	2	1	0	737	1	4	0	16	27	0	0	100
random	1	1	28	36927	6	4	4	1	0	486	1	4	0	32	28	0	0	100
random	1	1	29	37767	1	3	3	1	0	1283	1	4	0	24	29	0	0	100
random	1	1	30	39530	5	2	2	1	0	528	1	4	0	16	30	0	0	100
random	1	1	31	40633	2	1	1	1	0	617	1	4	0	8	31	0	0	100
random	1	1	32	42069	3	3	3	1	0	604	1	4	0	24	32	0	0	100
random	1	1	33	43311	6	4	4	1	0	584	1	4	0	32	33	0	0	100
random	1	1	34	44823	4	2	2	1	0	607	1	4	0	16	34	0	0	100
random	1	1	35	45874	3	4	4	1	0	611	1	4	0	32	35	0	0	100
random	1	1	36	47241	1	1	1	1	0	521	1	4	0	8	36	0	0	100
random	1	1	37	48986	3	4	4	1	0	687	1	4	0	32	37	0	0	100
random	1	1	38	49971	5	3	3	2	0	1293	2	4	0	24	38	0	0	100
random	1	1	39	51828	6	1	1	1	0	631	1	4	0	8	39	0	0	100
random	1	1	40	52750	1	2	2	1	0	1056	1	4	0	16	40	0	0	100
random	1	1	41	54710	2	3	3	1	0	789	1	4	0	24	41	0	0	100
random	1	1	42	56242	4	4	4	1	0	572	1	4	0	32	42	0	0	100
random	1	1	43	57639	1	2	2	1	0	945	1	4	0	16	43	0	0	100
random	1	1	44	58956	6	3	3	1	0	633	1	4	0	24	44	0	0	100
random	1	1	45	60391	3	1	1	1	0	612	1	4	0	8	45	0	0	100
random	1	1	46	61977	4	4	4	1	0	513	1	4	0	32	46	0	0	100
random	1	1	47	62853	2	2	2	1	0	788	1	4	0	16	47	0	0	100
random	1	1	48	64290	5	1	1	1	0	647	1	4	0	8	48	0	0	100
random	1	1	49	65526	2	3	3	1	0	883	1	4	0	24	49	0	0	100
random	1	1	50	67241	3	1	1	2	0	1058	2	4	0	8	50	0	0	100
random	1	1	51	68920	1	4	4	1	0	643	1	4	0	32	51	0	0	100
random	1	1	52	70010	5	3	3	1	0	829	1	4	0	24	52	0	0	100
random	1	1	53	71857	3	2	2	1	0	846	1	4	0	16	53	0	0	100
random	1	1	54	73724	6	4	4	1	0	656	1	4	0	32	54	0	0	100
random	1	1	55	74930	4	2	2	1	0	660	1	4	0	16	55	0	0	100
random	1	1	56	76223	1	1	1	1	0	702	1	4	0	8	56	0	0	100
random	1	1	57	77644	5	4	4	1	0	617	1	4	0	32	57	0	0	100
random	1	1	58	79168	2	1	1	1	0	649	1	4	0	8	58	0	0	100
random	1	1	59	80131	6	2	2	1	0	1088	1	4	0	16	59	0	0	100
random	1	1	60	82063	4	3	3	1	0	639	1	4	0	24	60	0	0	100
random	1	1	61	83905	1	2	2	1	0	1104	1	4	0	16	61	0	0	100
random	1	1	62	85396	6	4	4	1	0	561	1	4	0	32	62	0	0	100
random	1	1	63	86643	4	1	1	1	0	404	1	4	0	8	63	0	0	100
random	1	1	64	87714	2	2	2	1	0	791	1	4	0	16	64	0	0	100
random	1	1	65	89426	4	3	3	1	0	647	1	4	0	24	65	0	0	100
random	1	1	66	90403	3	1	1	1	0	613	1	4	0	8	66	0	0	100
random	1	1	67	91792	1	3	3	1	0	858	1	4	0	24	67	0	0	100
random	1	1	68	93319	5	4	4	1	0	626	1	4	0	32	68	0	0	100
random	1	1	69	94468	2	2	2	1	0	705	1	4	0	16	69	0	0	100
random	1	1	70	96103	3	1	1	1	0	715	1	4	0	8	70	0	0	100
random	1	1	71	97536	5	4	4	1	0	599	1	4	0	32	71	0	0	100
random	1	1	72	99013	6	3	3	1	0	1136	1	4	0	24	72	0	0	100
random	1	1	73	101281	2	1	1	1	0	712	1	4	0	8	73	0	0	100
random	1	1	74	102413	5	3	3	1	0	849	1	4	0	24	74	0	0	100
random	1	1	75	103654	1	4	4	1	0	652	1	4	0	32	75	0	0	100
random	1	1	76	105117	6	2	2	1	0	710	1	4	0	16	76	0	0	100
random	1	1	77	106242	2	1	1	1	0	646	1	4	0	8	77	0	0	100
random	1	1	78	107738	4	4	4	1	0	583	1	4	0	32	78	0	0	100
random	1	1	79	108864	3	2	2	1	0	943	1	4	0	16	79	0	0	100
random	1	1	80	110497	4	3	3	1	0	682	1	4	0	24	80	0	0	100
random	1	1	81	112153	1	4	4	1	0	572	1	4	0	32	81	0	0	100
random	1	1	82	113247	5	1	1	1	0	549	1	4	0	8	82	0	0	100
random	1	1	83	114190	3	2	2	1	0	966	1	4	0	16	83	0	0	100
random	1	1	84	115491	6	3	3	1	0	711	1	4	0	24	84	0	0	100
random	1	1	85	116785	3	2	2	1	0	751	1	4	0	16	85	0	0	100
random	1	1	86	118477	1	3	3	1	0	632	1	4	0	24	86	0	0	100
random	1	1	87	119923	4	4	4	1	0	595	1	4	0	32	87	0	0	100
random	1	1	88	121191	2	1	1	1	0	493	1	4	0	8	88	0	0	100
random	1	1	89	122068	6	4	4	1	0	648	1	4	0	32	89	0	0	100
random	1	1	90	123691	3	3	3	1	0	803	1	4	0	24	90	0	0	100
random	1	1	91	125057	5	4	4	1	0	609	1	4	0	32	91	0	0	100
random	1	1	92	126523	1	2	2	1	0	700	1	4	0	16	92	0	0	100
random	1	1	93	127621	5	1	1	1	0	637	1	4	0	8	93	0	0	100
random	1	1	94	128586	4	3	3	1	0	716	1	4	0	24	94	0	0	100
random	1	1	95	130080	6	1	1	2	0	925	2	4	0	8	95	0	0	100
random	1	1	96	131687	2	2	2	1	0	896	1	4	0	16	96	0	0	100
random	1	1	97	133426	4	3	3	1	0	879	1	4	0	24	97	0	0	100
random	1	1	98	134619	3	2	2	1	0	588	1	4	0	16	98	0	0	100
random	1	1	99	135826	6	3	3	1	0	809	1	4	0	24	99	0	0	100
random	1	1	100	137019	1	4	4	1	0	670	1	4	0	32	100	0	0	100
random	1	1	101	138301	4	1	1	1	0	409	1	4	0	8	101	0	0	100
random	1	1	102	139314	5	2	2	1	0	685	1	4	0	16	102	0	0	100
random	1	1	103	140369	2	4	4	1	0	673	1	4	0	32	103	0	0	100
random	1	1	104	141440	3	1	1	1	0	708	1	4	0	8	104	0	0	100
random	1	1	105	142663	1	3	3	1	0	792	1	4	0	24	105	0	0	100
random	1	1	106	144468	2	2	2	1	0	707	1	4	0	16	106	0	0	100
random	1	1	107	145815	5	4	4	1	0	546	1	4	0	32	107	0	0	100
random	1	1	108	147194	6	1	1	1	0	671	1	4	0	8	108	0	0	100
random	1	1	109	149115	5	4	4	1	0	614	1	4	0	32	109	0	0	100
random	1	1	110	150096	6	3	3	1	0	805	1	4	0	24	110	0	0	100
random	1	1	111	151777	2	2	2	1	0	646	1	4	0	16	111	0	0	100
random	1	1	112	152926	3	1	1	1	0	685	1	4	0	8	112	0	0	100
random	1	1	113	154381	1	2	2	1	0	743	1	4	0	16	113	0	0	100
random	1	1	114	155575	2	3	3	1	0	693	1	4	0	24	114	0	0	100
random	1	1	115	157269	3	1	1	1	0	709	1	4	0	8	115	0	0	100
random	1	1	116	158749	4	4	4	1	0	582	1	4	0	32	116	0	0	100
random	1	1	117	159922	6	1	1	1	0	740	1	4	0	8	117	0	0	100
random	1	1	118	161509	5	3	3	1	0	762	1	4	0	24	118	0	0	100
random	1	1	119	163145	1	4	4	1	0	596	1	4	0	32	119	0	0	100
random	1	1	120	164386	4	2	2	1	0	775	1	4	0	16	120	0	0	100
fixed	2	1	1	166121	4	1	1	1	0	798	1	4	0	40	1	0	0	100
fixed	2	1	2	167713	1	2	2	2	0	1698	2	4	0	48	2	0	0	100
fixed	2	1	3	170169	6	4	4	1	0	594	1	4	0	64	3	0	0	100
fixed	2	1	4	171476	2	1	1	1	0	683	1	4	0	40	4	0	0	100
fixed	2	1	5	173153	5	3	3	1	0	900	1	4	0	56	5	0	0	100
fixed	2	1	6	174561	6	4	4	1	0	592	1	4	0	64	6	0	0	100
fixed	2	1	7	175520	3	1	1	1	0	704	1	4	0	40	7	0	0	100
fixed	2	1	8	177248	2	3	3	1	0	734	1	4	0	56	8	0	0	100
fixed	2	1	9	178704	3	2	2	2	0	881	2	4	0	48	9	0	0	100
fixed	2	1	10	180091	1	4	4	1	0	622	1	4	0	64	10	0	0	100
fixed	2	1	11	181533	5	2	2	1	0	737	1	4	0	48	11	0	0	100
fixed	2	1	12	182831	4	3	3	1	0	682	1	4	0	56	12	0	0	100
fixed	2	2	1	184318	4	1	1	1	0	723	1	4	0	40	13	0	0	100
fixed	2	2	2	185833	1	2	2	1	0	659	1	4	0	48	14	0	0	100
fixed	2	2	3	187079	6	4	4	1	0	590	1	4	0	64	15	0	0	100
fixed	2	2	4	188663	2	1	1	1	0	699	1	4	0	40	16	0	0	100
fixed	2	2	5	189935	5	3	3	1	0	845	1	4	0	56	17	0	0	100
fixed	2	2	6	191549	6	4	4	1	0	705	1	4	0	64	18	0	0	100
fixed	2	2	7	193261	3	1	1	1	0	760	1	4	0	40	19	0	0	100
fixed	2	2	8	194655	2	3	3	1	0	886	1	4	0	56	20	0	0	100
fixed	2	2	9	196205	3	2	2	1	0	612	1	4	0	48	21	0	0	100
fixed	2	2	10	197356	1	4	4	1	0	667	1	4	0	64	22	0	0	100
fixed	2	2	11	198791	5	2	2	1	0	718	1	4	0	48	23	0	0	100
fixed	2	2	12	200172	4	3	3	1	0	707	1	4	0	56	24	0	0	100
fixed	2	3	1	201861	4	1	1	2	0	1308	2	4	0	40	25	0	0	100
fixed	2	3	2	203905	1	2	2	1	0	846	1	4	0	48	26	0	0	100
fixed	2	3	3	205231	6	4	4	1	0	558	1	4	0	64	27	0	0	100
fixed	2	3	4	206495	2	1	1	1	0	712	1	4	0	40	28	0	0	100
fixed	2	3	5	207512	5	3	3	1	0	781	1	4	0	56	29	0	0	100
fixed	2	3	6	208977	6	4	4	1	0	607	1	4	0	64	30	0	0	100
fixed	2	3	7	210197	3	1	1	1	0	779	1	4	0	40	31	0	0	100
fixed	2	3	8	211537	2	3	3	1	0	794	1	4	0	56	32	0	0	100
fixed	2	3	9	213310	3	2	2	1	0	831	1	4	0	48	33	0	0	100
fixed	2	3	10	214831	1	4	4	1	0	575	1	4	0	64	34	0	0	100
fixed	2	3	11	215890	5	2	2	1	0	762	1	4	0	48	35	0	0	100
fixed	2	3	12	216955	4	3	3	1	0	733	1	4	0	56	36	0	0	100
fixed	2	4	1	218552	4	1	1	1	0	705	1	4	0	40	37	0	0	100
fixed	2	4	2	219808	1	2	2	1	0	804	1	4	0	48	38	0	0	100
fixed	2	4	3	221498	6	4	4	1	0	581	1	4	0	64	39	0	0	100
fixed	2	4	4	222758	2	1	1	1	0	687	1	4	0	40	40	0	0	100
fixed	2	4	5	224372	5	3	3	1	0	1379	1	4	0	56	41	0	0	100
fixed	2	4	6	226341	6	4	4	1	0	567	1	4	0	64	42	0	0	100
fixed	2	4	7	227778	3	1	1	1	0	754	1	4	0	40	43	0	0	100
fixed	2	4	8	229515	2	3	3	1	0	689	1	4	0	56	44	0	0	100
fixed	2	4	9	230874	3	2	2	1	0	448	1	4	0	48	45	0	0	100
fixed	2	4	10	231919	1	4	4	1	0	595	1	4	0	64	46	0	0	100
fixed	2	4	11	233304	5	2	2	1	0	720	1	4	0	48	47	0	0	100
fixed	2	4	12	234970	4	3	3	1	0	762	1	4	0	56	48	0	0	100
fixed	2	5	1	236863	4	1	1	1	0	793	1	4	0	40	49	0	0	100
fixed	2	5	2	238633	1	2	2	1	0	806	1	4	0	48	50	0	0	100
fixed	2	5	3	240059	6	4	4	1	0	626	1	4	0	64	51	0	0	100
fixed	2	5	4	241040	2	1	1	1	0	737	1	4	0	40	52	0	0	100
fixed	2	5	5	242368	5	3	3	1	0	817	1	4	0	56	53	0	0	100
fixed	2	5	6	243979	6	4	4	1	0	556	1	4	0	64	54	0	0	100
fixed	2	5	7	244956	3	1	1	1	0	715	1	4	0	40	55	0	0	100
fixed	2	5	8	246471	2	3	3	1	0	891	1	4	0	56	56	0	0	100
fixed	2	5	9	248336	3	2	2	2	0	1308	2	4	0	48	57	0	0	100
fixed	2	5	10	250359	1	4	4	1	0	694	1	4	0	64	58	0	0	100
fixed	2	5	11	251719	5	2	2	1	0	1156	1	4	0	48	59	0	0	100
fixed	2	5	12	253915	4	3	3	1	0	888	1	4	0	56	60	0	0	100
fixed	2	6	1	255476	4	1	1	1	0	757	1	4	0	40	61	0	0	100
fixed	2	6	2	257086	1	2	2	1	0	657	1	4	0	48	62	0	0	100
fixed	2	6	3	258364	6	4	4	1	0	587	1	4	0	64	63	0	0	100
fixed	2	6	4	259808	2	1	1	1	0	798	1	4	0	40	64	0	0	100
fixed	2	6	5	261278	5	3	3	1	0	1040	1	4	0	56	65	0	0	100
fixed	2	6	6	262811	6	4	4	1	0	606	1	4	0	64	66	0	0	100
fixed	2	6	7	264072	3	1	1	1	0	745	1	4	0	40	67	0	0	100
fixed	2	6	8	265499	2	3	3	1	0	749	1	4	0	56	68	0	0	100
fixed	2	6	9	267030	3	2	2	1	0	900	1	4	0	48	69	0	0	100
fixed	2	6	10	268493	1	4	4	1	0	614	1	4	0	64	70	0	0	100
fixed	2	6	11	269960	5	2	2	1	0	928	1	4	0	48	71	0	0	100
fixed	2	6	12	271887	4	3	3	1	0	766	1	4	0	56	72	0	0	100
fixed	2	7	1	273670	4	1	1	1	0	754	1	4	0	40	73	0	0	100
fixed	2	7	2	275162	1	2	2	1	0	676	1	4	0	48	74	0	0	100
fixed	2	7	3	276663	6	4	4	1	0	588	1	4	0	64	75	0	0	100
fixed	2	7	4	277670	2	1	1	2	0	1473	2	4	0	40	76	0	0	100
fixed	2	7	5	279955	5	3	3	1	0	920	1	4	0	56	77	0	0	100
fixed	2	7	6	281559	6	4	4	1	0	700	1	4	0	64	78	0	0	100
fixed	2	7	7	282756	3	1	1	1	0	978	1	4	0	40	79	0	0	100
fixed	2	7	8	284545	2	3	3	1	0	742	1	4	0	56	80	0	0	100
fixed	2	7	9	286136	3	2	2	1	0	491	1	4	0	48	81	0	0	100
fixed	2	7	10	287041	1	4	4	1	0	652	1	4	0	64	82	0	0	100
fixed	2	7	11	288315	5	2	2	1	0	863	1	4	0	48	83	0	0	100
fixed	2	7	12	290042	4	3	3	1	0	757	1	4	0	56	84	0	0	100
fixed	2	8	1	291731	4	1	1	1	0	950	1	4	0	40	85	0	0	100
fixed	2	8	2	293291	1	2	2	1	0	612	1	4	0	48	86	0	0	100
fixed	2	8	3	294300	6	4	4	1	0	921	1	4	0	64	87	0	0	100
fixed	2	8	4	295666	2	1	1	1	0	879	1	4	0	40	88	0	0	100
fixed	2	8	5	297535	5	3	3	1	0	808	1	4	0	56	89	0	0	100
fixed	2	8	6	298910	6	4	4	1	0	662	1	4	0	64	90	0	0	100
fixed	2	8	7	300227	3	1	1	1	0	726	1	4	0	40	91	0	0	100
fixed	2	8	8	301575	2	3	3	1	0	765	1	4	0	56	92	0	0	100
fixed	2	8	9	302669	3	2	2	1	0	703	1	4	0	48	93	0	0	100
fixed	2	8	10	303867	1	4	4	1	0	572	1	4	0	64	94	0	0	100
fixed	2	8	11	305109	5	2	2	1	0	927	1	4	0	48	95	0	0	100
fixed	2	8	12	306412	4	3	3	1	0	760	1	4	0	56	96	0	0	100
fixed	2	9	1	307938	4	1	1	1	0	687	1	4	0	40	97	0	0	100
fixed	2	9	2	309118	1	2	2	1	0	870	1	4	0	48	98	0	0	100
fixed	2	9	3	310439	6	4	4	1	0	550	1	4	0	64	99	0	0	100
fixed	2	9	4	311720	2	1	1	1	0	719	1	4	0	40	100	0	0	100
fixed	2	9	5	313102	5	3	3	1	0	620	1	4	0	56	101	0	0	100
fixed	2	9	6	314579	6	4	4	1	0	630	1	4	0	64	102	0	0	100
fixed	2	9	7	316149	3	1	1	1	0	652	1	4	0	40	103	0	0	100
fixed	2	9	8	317743	2	3	3	1	0	752	1	4	0	56	104	0	0	100
fixed	2	9	9	319230	3	2	2	1	0	633	1	4	0	48	105	0	0	100
fixed	2	9	10	320860	1	4	4	1	0	660	1	4	0	64	106	0	0	100
fixed	2	9	11	322210	5	2	2	1	0	603	1	4	0	48	107	0	0	100
fixed	2	9	12	323832	4	3	3	3	0	1758	2	4	0	56	108	0	0	100
fixed	2	10	1	326433	4	1	1	1	0	664	1	4	0	40	109	0	0	100
fixed	2	10	2	327747	1	2	2	2	0	1121	2	4	0	48	110	0	0	100
fixed	2	10	3	329850	6	4	4	1	0	583	1	4	0	64	111	0	0	100
fixed	2	10	4	331309	2	1	1	1	0	673	1	4	0	40	112	0	0	100
fixed	2	10	5	332814	5	3	3	1	0	745	1	4	0	56	113	0	0	100
fixed	2	10	6	333998	6	4	4	1	0	632	1	4	0	64	114	0	0	100
fixed	2	10	7	335371	3	1	1	1	0	669	1	4	0	40	115	0	0	100
fixed	2	10	8	337073	2	3	3	1	0	790	1	4	0	56	116	0	0	100
fixed	2	10	9	338824	3	2	2	1	0	739	1	4	0	48	117	0	0	100
fixed	2	10	10	340596	1	4	4	1	0	664	1	4	0	64	118	0	0	100
fixed	2	10	11	342002	5	2	2	1	0	677	1	4	0	48	119	0	0	100
fixed	2	10	12	343347	4	3	3	1	0	764	1	4	0	56	120	0	0	100
fixed	3	1	1	345043	4	1	1	1	0	635	1	4	0	72	1	0	0	100
fixed	3	1	2	346325	1	2	2	1	0	774	1	4	0	80	2	0	0	100
fixed	3	1	3	347862	6	4	4	1	0	541	1	4	0	96	3	0	0	100
fixed	3	1	4	349203	2	1	1	1	0	740	1	4	0	72	4	0	0	100
fixed	3	1	5	350410	5	3	3	1	0	872	1	4	0	88	5	0	0	100
fixed	3	1	6	352196	6	4	4	1	0	620	1	4	0	96	6	0	0	100
fixed	3	1	7	353493	3	1	1	1	0	750	1	4	0	72	7	0	0	100
fixed	3	1	8	354741	2	3	3	1	0	761	1	4	0	88	8	0	0	100
fixed	3	1	9	356372	3	2	2	1	0	732	1	4	0	80	9	0	0	100
fixed	3	1	10	357629	1	4	4	1	0	654	1	4	0	96	10	0	0	100
fixed	3	1	11	358912	5	2	2	1	0	672	1	4	0	80	11	0	0	100
fixed	3	1	12	359909	4	3	3	1	0	782	1	4	0	88	12	0	0	100
fixed	3	2	1	361369	4	1	1	1	0	912	1	4	0	72	13	0	0	100
fixed	3	2	2	362616	1	2	2	1	0	860	1	4	0	80	14	0	0	100
fixed	3	2	3	364293	6	4	4	1	0	740	1	4	0	96	15	0	0	100
fixed	3	2	4	365492	2	1	1	1	0	898	1	4	0	72	16	0	0	100
fixed	3	2	5	367346	5	3	3	1	0	923	1	4	0	88	17	0	0	100
fixed	3	2	6	368929	6	4	4	1	0	600	1	4	0	96	18	0	0	100
fixed	3	2	7	370026	3	1	1	1	0	721	1	4	0	72	19	0	0	100
fixed	3	2	8	371368	2	3	3	1	0	761	1	4	0	88	20	0	0	100
fixed	3	2	9	372718	3	2	2	1	0	816	1	4	0	80	21	0	0	100
fixed	3	2	10	374441	1	4	4	1	0	623	1	4	0	96	22	0	0	100
fixed	3	2	11	375921	5	2	2	1	0	856	1	4	0	80	23	0	0	100
fixed	3	2	12	377440	4	3	3	1	0	1095	1	4	0	88	24	0	0	100
fixed	3	3	1	379563	4	1	1	1	0	901	1	4	0	72	25	0	0	100
fixed	3	3	2	380937	1	2	2	1	0	716	1	4	0	80	26	0	0	100
fixed	3	3	3	382568	6	4	4	1	0	623	1	4	0	96	27	0	0	100
fixed	3	3	4	383533	2	1	1	1	0	814	1	4	0	72	28	0	0	100
fixed	3	3	5	384775	5	3	3	1	0	1025	1	4	0	88	29	0	0	100
fixed	3	3	6	386147	6	4	4	1	0	719	1	4	0	96	30	0	0	100
fixed	3	3	7	387777	3	1	1	1	0	722	1	4	0	72	31	0	0	100
fixed	3	3	8	388802	2	3	3	1	0	822	1	4	0	88	32	0	0	100
fixed	3	3	9	390589	3	2	2	1	0	794	1	4	0	80	33	0	0	100
fixed	3	3	10	391744	1	4	4	1	0	850	1	4	0	96	34	0	0	100
fixed	3	3	11	393298	5	2	2	1	0	792	1	4	0	80	35	0	0	100
fixed	3	3	12	394526	4	3	3	2	0	1276	2	4	0	88	36	0	0	100
fixed	3	4	1	396956	4	1	1	1	0	853	1	4	0	72	37	0	0	100
fixed	3	4	2	398521	1	2	2	1	0	747	1	4	0	80	38	0	0	100
fixed	3	4	3	400084	6	4	4	1	0	712	1	4	0	96	39	0	0	100
fixed	3	4	4	401745	2	1	1	1	0	826	1	4	0	72	40	0	0	100
fixed	3	4	5	403443	5	3	3	1	0	842	1	4	0	88	41	0	0	100
fixed	3	4	6	404840	6	4	4	1	0	743	1	4	0	96	42	0	0	100
fixed	3	4	7	406073	3	1	1	1	0	819	1	4	0	72	43	0	0	100
fixed	3	4	8	407761	2	3	3	1	0	756	1	4	0	88	44	0	0	100
fixed	3	4	9	409483	3	2	2	1	0	1035	1	4	0	80	45	0	0	100
fixed	3	4	10	411344	1	4	4	1	0	571	1	4	0	96	46	0	0	100
fixed	3	4	11	412269	5	2	2	1	0	837	1	4	0	80	47	0	0	100
fixed	3	4	12	413927	4	3	3	1	0	871	1	4	0	88	48	0	0	100
fixed	3	5	1	415468	4	1	1	1	0	901	1	4	0	72	49	0	0	100
fixed	3	5	2	417331	1	2	2	1	0	838	1	4	0	80	50	0	0	100
fixed	3	5	3	419003	6	4	4	1	0	591	1	4	0	96	51	0	0	100
fixed	3	5	4	420039	2	1	1	1	0	700	1	4	0	72	52	0	0	100
fixed	3	5	5	421763	5	3	3	1	0	755	1	4	0	88	53	0	0	100
fixed	3	5	6	422862	6	4	4	1	0	604	1	4	0	96	54	0	0	100
fixed	3	5	7	424279	3	1	1	1	0	736	1	4	0	72	55	0	0	100
fixed	3	5	8	425958	2	3	3	1	0	856	1	4	0	88	56	0	0	100
fixed	3	5	9	427281	3	2	2	1	0	784	1	4	0	80	57	0	0	100
fixed	3	5	10	428869	1	4	4	1	0	629	1	4	0	96	58	0	0	100
fixed	3	5	11	430045	5	2	2	1	0	628	1	4	0	80	59	0	0	100
fixed	3	5	12	430979	4	3	3	1	0	980	1	4	0	88	60	0	0	100
fixed	3	6	1	433011	4	1	1	1	0	750	1	4	0	72	61	0	0	100
fixed	3	6	2	434161	1	2	2	1	0	814	1	4	0	80	62	0	0	100
fixed	3	6	3	435720	6	4	4	1	0	555	1	4	0	96	63	0	0	100
fixed	3	6	4	437071	2	1	1	1	0	618	1	4	0	72	64	0	0	100
fixed	3	6	5	438478	5	3	3	1	0	718	1	4	0	88	65	0	0	100
fixed	3	6	6	439514	6	4	4	1	0	722	1	4	0	96	66	0	0	100
fixed	3	6	7	441053	3	1	1	1	0	705	1	4	0	72	67	0	0	100
fixed	3	6	8	442355	2	3	3	1	0	1210	1	4	0	88	68	0	0	100
fixed	3	6	9	444136	3	2	2	1	0	486	1	4	0	80	69	0	0	100
fixed	3	6	10	445503	1	4	4	1	0	677	1	4	0	96	70	0	0	100
fixed	3	6	11	446904	5	2	2	1	0	890	1	4	0	80	71	0	0	100
fixed	3	6	12	448426	4	3	3	1	0	889	1	4	0	88	72	0	0	100
fixed	3	7	1	450070	4	1	1	1	0	811	1	4	0	72	73	0	0	100
fixed	3	7	2	451624	1	2	2	1	0	825	1	4	0	80	74	0	0	100
fixed	3	7	3	452973	6	4	4	1	0	657	1	4	0	96	75	0	0	100
fixed	3	7	4	454435	2	1	1	1	0	698	1	4	0	72	76	0	0	100
fixed	3	7	5	455977	5	3	3	1	0	905	1	4	0	88	77	0	0	100
fixed	3	7	6	457871	6	4	4	1	0	937	1	4	0	96	78	0	0	100
fixed	3	7	7	459800	3	1	1	1	0	1119	1	4	0	72	79	0	0	100
fixed	3	7	8	461821	2	3	3	1	0	690	1	4	0	88	80	0	0	100
fixed	3	7	9	463462	3	2	2	1	0	548	1	4	0	80	81	0	0	100
fixed	3	7	10	464900	1	4	4	1	0	623	1	4	0	96	82	0	0	100
fixed	3	7	11	466364	5	2	2	1	0	889	1	4	0	80	83	0	0	100
fixed	3	7	12	468177	4	3	3	1	0	885	1	4	0	88	84	0	0	100
fixed	3	8	1	469735	4	1	1	1	0	1090	1	4	0	72	85	0	0	100
fixed	3	8	2	471704	1	2	2	2	0	1223	2	4	0	80	86	0	0	100
fixed	3	8	3	473892	6	4	4	1	0	619	1	4	0	96	87	0	0	100
fixed	3	8	4	474853	2	1	1	1	0	842	1	4	0	72	88	0	0	100
fixed	3	8	5	476331	5	3	3	1	0	1051	1	4	0	88	89	0	0	100
fixed	3	8	6	477761	6	4	4	1	0	687	1	4	0	96	90	0	0	100
fixed	3	8	7	478864	3	1	1	1	0	944	1	4	0	72	91	0	0	100
fixed	3	8	8	480366	2	3	3	1	0	1248	1	4	0	88	92	0	0	100
fixed	3	8	9	482364	3	2	2	1	0	603	1	4	0	80	93	0	0	100
fixed	3	8	10	483557	1	4	4	1	0	705	1	4	0	96	94	0	0	100
fixed	3	8	11	484905	5	2	2	1	0	784	1	4	0	80	95	0	0	100
fixed	3	8	12	486510	4	3	3	1	0	1084	1	4	0	88	96	0	0	100
fixed	3	9	1	488514	4	1	1	1	0	927	1	4	0	72	97	0	0	100
fixed	3	9	2	490096	1	2	2	1	0	884	1	4	0	80	98	0	0	100
fixed	3	9	3	491324	6	4	4	1	0	640	1	4	0	96	99	0	0	100
fixed	3	9	4	492502	2	1	1	1	0	1166	1	4	0	72	100	0	0	100
fixed	3	9	5	494438	5	3	3	1	0	1132	1	4	0	88	101	0	0	100
fixed	3	9	6	496236	6	4	4	1	0	568	1	4	0	96	102	0	0	100
fixed	3	9	7	497675	3	1	1	1	0	1179	1	4	0	72	103	0	0	100
fixed	3	9	8	499598	2	3	3	1	0	882	1	4	0	88	104	0	0	100
fixed	3	9	9	501256	3	2	2	1	0	708	1	4	0	80	105	0	0	100
fixed	3	9	10	502882	1	4	4	1	0	854	1	4	0	96	106	0	0	100
fixed	3	9	11	504045	5	2	2	1	0	1501	1	4	0	80	107	0	0	100
fixed	3	9	12	505880	4	3	3	1	0	688	1	4	0	88	108	0	0	100
fixed	3	10	1	507410	4	1	1	1	0	734	1	4	0	72	109	0	0	100
fixed	3	10	2	508761	1	2	2	1	0	710	1	4	0	80	110	0	0	100
fixed	3	10	3	510459	6	4	4	1	0	638	1	4	0	96	111	0	0	100
fixed	3	10	4	512115	2	1	1	1	0	904	1	4	0	72	112	0	0	100
fixed	3	10	5	513577	5	3	3	2	0	1241	2	4	0	88	113	0	0	100
fixed	3	10	6	515307	6	4	4	1	0	560	1	4	0	96	114	0	0	100
fixed	3	10	7	516198	3	1	1	1	0	866	1	4	0	72	115	0	0	100
fixed	3	10	8	517982	2	3	3	1	0	1695	1	4	0	88	116	0	0	100
fixed	3	10	9	520665	3	2	2	1	0	613	1	4	0	80	117	0	0	100
fixed	3	10	10	521790	1	4	4	1	0	566	1	4	0	96	118	0	0	100
fixed	3	10	11	523320	5	2	2	1	0	749	1	4	0	80	119	0	0	100
fixed	3	10	12	524914	4	3	3	2	0	1618	2	4	0	88	120	0	0	100
fixed	4	1	1	647769	4	1	1	1	0	637	1	4	0	104	1	0	0	100
fixed	4	1	2	648754	1	2	2	1	0	700	1	4	0	112	2	0	0	100
fixed	4	1	3	650131	6	4	4	1	0	522	1	4	0	128	3	0	0	100
fixed	4	1	4	651118	2	1	1	1	0	608	1	4	0	104	4	0	0	100
fixed	4	1	5	652523	5	3	3	1	0	660	1	4	0	120	5	0	0	100
fixed	4	1	6	654171	6	4	4	1	0	510	1	4	0	128	6	0	0	100
fixed	4	1	7	655164	3	1	1	1	0	741	1	4	0	104	7	0	0	100
fixed	4	1	8	656908	2	3	3	1	0	650	1	4	0	120	8	0	0	100
fixed	4	1	9	658507	3	2	2	1	0	439	1	4	0	112	9	0	0	100
fixed	4	1	10	659858	1	4	4	1	0	574	1	4	0	128	10	0	0	100
fixed	4	1	11	661201	5	2	2	1	0	661	1	4	0	112	11	0	0	100
fixed	4	1	12	662459	4	3	3	1	0	895	1	4	0	120	12	0	0	100
fixed	4	2	1	664078	4	1	1	1	0	723	1	4	0	104	13	0	0	100
fixed	4	2	2	665745	1	2	2	1	0	837	1	4	0	112	14	0	0	100
fixed	4	2	3	666871	6	4	4	1	0	573	1	4	0	128	15	0	0	100
fixed	4	2	4	668454	2	1	1	1	0	673	1	4	0	104	16	0	0	100
fixed	4	2	5	669470	5	3	3	1	0	815	1	4	0	120	17	0	0	100
fixed	4	2	6	671102	6	4	4	1	0	546	1	4	0	128	18	0	0	100
fixed	4	2	7	672320	3	1	1	1	0	614	1	4	0	104	19	0	0	100
fixed	4	2	8	673755	2	3	3	1	0	809	1	4	0	120	20	0	0	100
fixed	4	2	9	675410	3	2	2	1	0	555	1	4	0	112	21	0	0	100
fixed	4	2	10	676645	1	4	4	1	0	455	1	4	0	128	22	0	0	100
fixed	4	2	11	677499	5	2	2	1	0	698	1	4	0	112	23	0	0	100
fixed	4	2	12	678540	4	3	3	1	0	711	1	4	0	120	24	0	0	100
fixed	4	3	1	680268	4	1	1	1	0	789	1	4	0	104	25	0	0	100
fixed	4	3	2	681386	1	2	2	1	0	750	1	4	0	112	26	0	0	100
fixed	4	3	3	682526	6	4	4	1	0	533	1	4	0	128	27	0	0	100
fixed	4	3	4	683809	2	1	1	1	0	751	1	4	0	104	28	0	0	100
fixed	4	3	5	685392	5	3	3	1	0	668	1	4	0	120	29	0	0	100
fixed	4	3	6	686363	6	4	4	1	0	723	1	4	0	128	30	0	0	100
fixed	4	3	7	688019	3	1	1	1	0	677	1	4	0	104	31	0	0	100
fixed	4	3	8	689626	2	3	3	1	0	793	1	4	0	120	32	0	0	100
fixed	4	3	9	690789	3	2	2	1	0	688	1	4	0	112	33	0	0	100
fixed	4	3	10	692182	1	4	4	1	0	500	1	4	0	128	34	0	0	100
fixed	4	3	11	693673	5	2	2	1	0	645	1	4	0	112	35	0	0	100
fixed	4	3	12	695134	4	3	3	1	0	576	1	4	0	120	36	0	0	100
fixed	4	4	1	696742	4	1	1	1	0	699	1	4	0	104	37	0	0	100
fixed	4	4	2	698060	1	2	2	2	0	1643	2	4	0	112	38	0	0	100
fixed	4	4	3	700389	6	4	4	1	0	537	1	4	0	128	39	0	0	100
fixed	4	4	4	701706	2	1	1	1	0	665	1	4	0	104	40	0	0	100
fixed	4	4	5	702697	5	3	3	1	0	711	1	4	0	120	41	0	0	100
fixed	4	4	6	703946	6	4	4	1	0	570	1	4	0	128	42	0	0	100
fixed	4	4	7	704870	3	1	1	1	0	659	1	4	0	104	43	0	0	100
fixed	4	4	8	705823	2	3	3	1	0	779	1	4	0	120	44	0	0	100
fixed	4	4	9	706891	3	2	2	1	0	710	1	4	0	112	45	0	0	100
fixed	4	4	10	708392	1	4	4	1	0	638	1	4	0	128	46	0	0	100
fixed	4	4	11	709610	5	2	2	1	0	674	1	4	0	112	47	0	0	100
fixed	4	4	12	710799	4	3	3	1	0	464	1	4	0	120	48	0	0	100
fixed	4	5	1	712129	4	1	1	1	0	752	1	4	0	104	49	0	0	100
fixed	4	5	2	713762	1	2	2	1	0	979	1	4	0	112	50	0	0	100
fixed	4	5	3	715420	6	4	4	1	0	548	1	4	0	128	51	0	0	100
fixed	4	5	4	716328	2	1	1	1	0	1014	1	4	0	104	52	0	0	100
fixed	4	5	5	717660	5	3	3	1	0	797	1	4	0	120	53	0	0	100
fixed	4	5	6	719398	6	4	4	1	0	636	1	4	0	128	54	0	0	100
fixed	4	5	7	720986	3	1	1	1	0	688	1	4	0	104	55	0	0	100
fixed	4	5	8	722237	2	3	3	1	0	635	1	4	0	120	56	0	0	100
fixed	4	5	9	723302	3	2	2	1	0	503	1	4	0	112	57	0	0	100
fixed	4	5	10	724706	1	4	4	1	0	571	1	4	0	128	58	0	0	100
fixed	4	5	11	726075	5	2	2	1	0	665	1	4	0	112	59	0	0	100
fixed	4	5	12	727449	4	3	3	1	0	639	1	4	0	120	60	0	0	100
fixed	4	6	1	728937	4	1	1	1	0	888	1	4	0	104	61	0	0	100
fixed	4	6	2	730348	1	2	2	1	0	700	1	4	0	112	62	0	0	100
fixed	4	6	3	731834	6	4	4	1	0	565	1	4	0	128	63	0	0	100
fixed	4	6	4	733074	2	1	1	1	0	713	1	4	0	104	64	0	0	100
fixed	4	6	5	734485	5	3	3	1	0	973	1	4	0	120	65	0	0	100
fixed	4	6	6	736416	6	4	4	1	0	643	1	4	0	128	66	0	0	100
fixed	4	6	7	737556	3	1	1	1	0	682	1	4	0	104	67	0	0	100
fixed	4	6	8	738738	2	3	3	1	0	801	1	4	0	120	68	0	0	100
fixed	4	6	9	740493	3	2	2	1	0	607	1	4	0	112	69	0	0	100
fixed	4	6	10	741685	1	4	4	1	0	564	1	4	0	128	70	0	0	100
fixed	4	6	11	742784	5	2	2	1	0	798	1	4	0	112	71	0	0	100
fixed	4	6	12	743914	4	3	3	1	0	926	1	4	0	120	72	0	0	100
fixed	4	7	1	745394	4	1	1	1	0	967	1	4	0	104	73	0	0	100
fixed	4	7	2	747104	1	2	2	1	0	1038	1	4	0	112	74	0	0	100
fixed	4	7	3	748994	6	4	4	1	0	526	1	4	0	128	75	0	0	100
fixed	4	7	4	750013	2	1	1	1	0	683	1	4	0	104	76	0	0	100
fixed	4	7	5	751302	5	3	3	1	0	701	1	4	0	120	77	0	0	100
fixed	4	7	6	752717	6	4	4	1	0	689	1	4	0	128	78	0	0	100
fixed	4	7	7	753801	3	1	1	1	0	827	1	4	0	104	79	0	0	100
fixed	4	7	8	755212	2	3	3	1	0	887	1	4	0	120	80	0	0	100
fixed	4	7	9	756600	3	2	2	1	0	788	1	4	0	112	81	0	0	100
fixed	4	7	10	757790	1	4	4	1	0	689	1	4	0	128	82	0	0	100
fixed	4	7	11	758777	5	2	2	1	0	808	1	4	0	112	83	0	0	100
fixed	4	7	12	760272	4	3	3	1	0	697	1	4	0	120	84	0	0	100
fixed	4	8	1	761801	4	1	1	1	0	1304	1	4	0	104	85	0	0	100
fixed	4	8	2	763801	1	2	2	1	0	763	1	4	0	112	86	0	0	100
fixed	4	8	3	765326	6	4	4	1	0	802	1	4	0	128	87	0	0	100
fixed	4	8	4	767115	2	1	1	1	0	759	1	4	0	104	88	0	0	100
fixed	4	8	5	768389	5	3	3	1	0	1153	1	4	0	120	89	0	0	100
fixed	4	8	6	770410	6	4	4	1	0	563	1	4	0	128	90	0	0	100
fixed	4	8	7	771349	3	1	1	1	0	724	1	4	0	104	91	0	0	100
fixed	4	8	8	772763	2	3	3	1	0	639	1	4	0	120	92	0	0	100
fixed	4	8	9	774381	3	2	2	1	0	403	1	4	0	112	93	0	0	100
fixed	4	8	10	775737	1	4	4	1	0	609	1	4	0	128	94	0	0	100
fixed	4	8	11	776807	5	2	2	1	0	908	1	4	0	112	95	0	0	100
fixed	4	8	12	778171	4	3	3	1	0	667	1	4	0	120	96	0	0	100
fixed	4	9	1	779562	4	1	1	1	0	895	1	4	0	104	97	0	0	100
fixed	4	9	2	781382	1	2	2	1	0	874	1	4	0	112	98	0	0	100
fixed	4	9	3	783293	6	4	4	1	0	642	1	4	0	128	99	0	0	100
fixed	4	9	4	784624	2	1	1	1	0	849	1	4	0	104	100	0	0	100
fixed	4	9	5	786422	5	3	3	1	0	757	1	4	0	120	101	0	0	100
fixed	4	9	6	788113	6	4	4	1	0	677	1	4	0	128	102	0	0	100
fixed	4	9	7	789806	3	1	1	1	0	758	1	4	0	104	103	0	0	100
fixed	4	9	8	791199	2	3	3	1	0	883	1	4	0	120	104	0	0	100
fixed	4	9	9	792752	3	2	2	1	0	793	1	4	0	112	105	0	0	100
fixed	4	9	10	794275	1	4	4	1	0	545	1	4	0	128	106	0	0	100
fixed	4	9	11	795610	5	2	2	1	0	1160	1	4	0	112	107	0	0	100
fixed	4	9	12	797299	4	3	3	1	0	753	1	4	0	120	108	0	0	100
fixed	4	10	1	798792	4	1	1	1	0	609	1	4	0	104	109	0	0	100
fixed	4	10	2	799739	1	2	2	1	0	689	1	4	0	112	110	0	0	100
fixed	4	10	3	801240	6	4	4	1	0	570	1	4	0	128	111	0	0	100
fixed	4	10	4	802326	2	1	1	1	0	1108	1	4	0	104	112	0	0	100
fixed	4	10	5	804005	5	3	3	2	0	1420	2	4	0	120	113	0	0	100
fixed	4	10	6	806474	6	4	4	1	0	764	1	4	0	128	114	0	0	100
fixed	4	10	7	807842	3	1	1	1	0	826	1	4	0	104	115	0	0	100
fixed	4	10	8	808965	2	3	3	1	0	906	1	4	0	120	116	0	0	100
fixed	4	10	9	810875	3	2	2	1	0	881	1	4	0	112	117	0	0	100
fixed	4	10	10	812616	1	4	4	1	0	576	1	4	0	128	118	0	0	100
fixed	4	10	11	813876	5	2	2	1	0	803	1	4	0	112	119	0	0	100
fixed	4	10	12	815434	4	3	3	1	0	1136	1	4	0	120	120	0	0	100
fixed	5	1	1	817937	4	1	1	2	0	870	2	4	0	136	1	0	0	100
fixed	5	1	2	819262	1	2	2	3	0	1230	2	4	0	144	2	0	0	100
fixed	5	1	3	821278	6	4	4	1	0	584	1	4	0	160	3	0	0	100
fixed	5	1	4	822864	2	1	1	1	0	750	1	4	0	136	4	0	0	100
fixed	5	1	5	824426	5	3	3	1	0	819	1	4	0	152	5	0	0	100
fixed	5	1	6	825935	6	4	4	1	0	748	1	4	0	160	6	0	0	100
fixed	5	1	7	826979	3	1	1	1	0	695	1	4	0	136	7	0	0	100
fixed	5	1	8	828474	2	3	3	1	0	984	1	4	0	152	8	0	0	100
fixed	5	1	9	829924	3	2	2	1	0	627	1	4	0	144	9	0	0	100
fixed	5	1	10	831270	1	4	4	1	0	561	1	4	0	160	10	0	0	100
fixed	5	1	11	832151	5	2	2	1	0	732	1	4	0	144	11	0	0	100
fixed	5	1	12	833479	4	3	3	1	0	876	1	4	0	152	12	0	0	100
fixed	5	2	1	835115	4	1	1	1	0	686	1	4	0	136	13	0	0	100
fixed	5	2	2	836209	1	2	2	1	0	848	1	4	0	144	14	0	0	100
fixed	5	2	3	837966	6	4	4	1	0	598	1	4	0	160	15	0	0	100
fixed	5	2	4	839298	2	1	1	1	0	950	1	4	0	136	16	0	0	100
fixed	5	2	5	841264	5	3	3	1	0	802	1	4	0	152	17	0	0	100
fixed	5	2	6	842886	6	4	4	1	0	605	1	4	0	160	18	0	0	100
fixed	5	2	7	843967	3	1	1	1	0	776	1	4	0	136	19	0	0	100
fixed	5	2	8	845310	2	3	3	1	0	759	1	4	0	152	20	0	0	100
fixed	5	2	9	846760	3	2	2	1	0	465	1	4	0	144	21	0	0	100
fixed	5	2	10	848123	1	4	4	1	0	640	1	4	0	160	22	0	0	100
fixed	5	2	11	849217	5	2	2	1	0	761	1	4	0	144	23	0	0	100
fixed	5	2	12	850864	4	3	3	1	0	540	1	4	0	152	24	0	0	100
fixed	5	3	1	852541	4	1	1	1	0	540	1	4	0	136	25	0	0	100
fixed	5	3	2	853920	1	2	2	1	0	754	1	4	0	144	26	0	0	100
fixed	5	3	3	854976	6	4	4	2	0	1990	2	4	0	160	27	0	0	100
fixed	5	3	4	857770	2	1	1	1	0	799	1	4	0	136	28	0	0	100
fixed	5	3	5	859103	5	3	3	1	0	1383	1	4	0	152	29	0	0	100
fixed	5	3	6	861398	6	4	4	1	0	629	1	4	0	160	30	0	0	100
fixed	5	3	7	862748	3	1	1	1	0	1156	1	4	0	136	31	0	0	100
fixed	5	3	8	864911	2	3	3	1	0	889	1	4	0	152	32	0	0	100
fixed	5	3	9	866337	3	2	2	1	0	677	1	4	0	144	33	0	0	100
fixed	5	3	10	867664	1	4	4	1	0	844	1	4	0	160	34	0	0	100
fixed	5	3	11	869217	5	2	2	1	0	882	1	4	0	144	35	0	0	100
fixed	5	3	12	870674	4	3	3	1	0	1269	1	4	0	152	36	0	0	100
fixed	5	4	1	873108	4	1	1	1	0	877	1	4	0	136	37	0	0	100
fixed	5	4	2	874670	1	2	2	1	0	923	1	4	0	144	38	0	0	100
fixed	5	4	3	876408	6	4	4	1	0	858	1	4	0	160	39	0	0	100
fixed	5	4	4	877630	2	1	1	1	0	1206	1	4	0	136	40	0	0	100
fixed	5	4	5	879559	5	3	3	1	0	948	1	4	0	152	41	0	0	100
fixed	5	4	6	881463	6	4	4	1	0	619	1	4	0	160	42	0	0	100
fixed	5	4	7	882761	3	1	1	1	0	509	1	4	0	136	43	0	0	100
fixed	5	4	8	883784	2	3	3	1	0	1625	1	4	0	152	44	0	0	100
fixed	5	4	9	886111	3	2	2	1	0	631	1	4	0	144	45	0	0	100
fixed	5	4	10	887324	1	4	4	1	0	1067	1	4	0	160	46	0	0	100
fixed	5	4	11	889123	5	2	2	1	0	1031	1	4	0	144	47	0	0	100
fixed	5	4	12	890510	4	3	3	1	0	789	1	4	0	152	48	0	0	100
fixed	5	5	1	892388	4	1	1	1	0	773	1	4	0	136	49	0	0	100
fixed	5	5	2	893763	1	2	2	1	0	1715	1	4	0	144	50	0	0	100
fixed	5	5	3	896121	6	4	4	1	0	615	1	4	0	160	51	0	0	100
fixed	5	5	4	897392	2	1	1	1	0	897	1	4	0	136	52	0	0	100
fixed	5	5	5	898914	5	3	3	1	0	2193	1	4	0	152	53	0	0	100
fixed	5	5	6	901957	6	4	4	1	0	488	1	4	0	160	54	0	0	100
fixed	5	5	7	902965	3	1	1	1	0	653	1	4	0	136	55	0	0	100
fixed	5	5	8	904434	2	3	3	1	0	750	1	4	0	152	56	0	0	100
fixed	5	5	9	905883	3	2	2	1	0	634	1	4	0	144	57	0	0	100
fixed	5	5	10	906821	1	4	4	1	0	545	1	4	0	160	58	0	0	100
fixed	5	5	11	907947	5	2	2	1	0	650	1	4	0	144	59	0	0	100
fixed	5	5	12	909203	4	3	3	2	0	773	2	4	0	152	60	0	0	100
fixed	5	6	1	911201	4	1	1	1	0	688	1	4	0	136	61	0	0	100
fixed	5	6	2	912215	1	2	2	1	0	989	1	4	0	144	62	0	0	100
fixed	5	6	3	913866	6	4	4	1	0	575	1	4	0	160	63	0	0	100
fixed	5	6	4	914995	2	1	1	1	0	631	1	4	0	136	64	0	0	100
fixed	5	6	5	916209	5	3	3	2	0	1244	2	4	0	152	65	0	0	100
fixed	5	6	6	918449	6	4	4	1	0	757	1	4	0	160	66	0	0	100
fixed	5	6	7	920112	3	1	1	1	0	671	1	4	0	136	67	0	0	100
fixed	5	6	8	921769	2	3	3	1	0	729	1	4	0	152	68	0	0	100
fixed	5	6	9	922823	3	2	2	1	0	780	1	4	0	144	69	0	0	100
fixed	5	6	10	924407	1	4	4	1	0	745	1	4	0	160	70	0	0	100
fixed	5	6	11	926165	5	2	2	1	0	710	1	4	0	144	71	0	0	100
fixed	5	6	12	927431	4	3	3	1	0	857	1	4	0	152	72	0	0	100
fixed	5	7	1	929078	4	1	1	1	0	755	1	4	0	136	73	0	0	100
fixed	5	7	2	930139	1	2	2	1	0	806	1	4	0	144	74	0	0	100
fixed	5	7	3	931633	6	4	4	1	0	718	1	4	0	160	75	0	0	100
fixed	5	7	4	933403	2	1	1	1	0	684	1	4	0	136	76	0	0	100
fixed	5	7	5	934659	5	3	3	1	0	790	1	4	0	152	77	0	0	100
fixed	5	7	6	936117	6	4	4	1	0	593	1	4	0	160	78	0	0	100
fixed	5	7	7	937416	3	1	1	1	0	769	1	4	0	136	79	0	0	100
fixed	5	7	8	938862	2	3	3	1	0	1013	1	4	0	152	80	0	0	100
fixed	5	7	9	940664	3	2	2	1	0	816	1	4	0	144	81	0	0	100
fixed	5	7	10	942031	1	4	4	1	0	670	1	4	0	160	82	0	0	100
fixed	5	7	11	943722	5	2	2	1	0	919	1	4	0	144	83	0	0	100
fixed	5	7	12	945327	4	3	3	1	0	771	1	4	0	152	84	0	0	100
fixed	5	8	1	947122	4	1	1	1	0	1102	1	4	0	136	85	0	0	100
fixed	5	8	2	949085	1	2	2	1	0	844	1	4	0	144	86	0	0	100
fixed	5	8	3	950540	6	4	4	1	0	526	1	4	0	160	87	0	0	100
fixed	5	8	4	951929	2	1	1	1	0	723	1	4	0	136	88	0	0	100
fixed	5	8	5	953218	5	3	3	1	0	797	1	4	0	152	89	0	0	100
fixed	5	8	6	954675	6	4	4	1	0	598	1	4	0	160	90	0	0	100
fixed	5	8	7	956309	3	1	1	1	0	842	1	4	0	136	91	0	0	100
fixed	5	8	8	957446	2	3	3	1	0	953	1	4	0	152	92	0	0	100
fixed	5	8	9	959210	3	2	2	1	0	799	1	4	0	144	93	0	0	100
fixed	5	8	10	960433	1	4	4	1	0	747	1	4	0	160	94	0	0	100
fixed	5	8	11	961618	5	2	2	1	0	1041	1	4	0	144	95	0	0	100
fixed	5	8	12	963218	4	3	3	1	0	1469	1	4	0	152	96	0	0	100
fixed	5	9	1	965267	4	1	1	1	0	854	1	4	0	136	97	0	0	100
fixed	5	9	2	966975	1	2	2	1	0	958	1	4	0	144	98	0	0	100
fixed	5	9	3	968709	6	4	4	1	0	724	1	4	0	160	99	0	0	100
fixed	5	9	4	969954	2	1	1	1	0	1032	1	4	0	136	100	0	0	100
fixed	5	9	5	971846	5	3	3	1	0	824	1	4	0	152	101	0	0	100
fixed	5	9	6	973045	6	4	4	1	0	781	1	4	0	160	102	0	0	100
fixed	5	9	7	974670	3	1	1	1	0	1912	1	4	0	136	103	0	0	100
fixed	5	9	8	977038	2	3	3	1	0	804	1	4	0	152	104	0	0	100
fixed	5	9	9	978757	3	2	2	1	0	779	1	4	0	144	105	0	0	100
fixed	5	9	10	979968	1	4	4	1	0	583	1	4	0	160	106	0	0	100
fixed	5	9	11	981276	5	2	2	1	0	840	1	4	0	144	107	0	0	100
fixed	5	9	12	982951	4	3	3	1	0	969	1	4	0	152	108	0	0	100
fixed	5	10	1	985199	4	1	1	1	0	874	1	4	0	136	109	0	0	100
fixed	5	10	2	986612	1	2	2	1	0	910	1	4	0	144	110	0	0	100
fixed	5	10	3	988383	6	4	4	1	0	515	1	4	0	160	111	0	0	100
fixed	5	10	4	989660	2	1	1	1	0	1205	1	4	0	136	112	0	0	100
fixed	5	10	5	991741	5	3	3	1	0	1029	1	4	0	152	113	0	0	100
fixed	5	10	6	993664	6	4	4	1	0	628	1	4	0	160	114	0	0	100
fixed	5	10	7	995209	3	1	1	1	0	1234	1	4	0	136	115	0	0	100
fixed	5	10	8	997174	2	3	3	1	0	1071	1	4	0	152	116	0	0	100
fixed	5	10	9	998739	3	2	2	1	0	684	1	4	0	144	117	0	0	100
fixed	5	10	10	999992	1	4	4	1	0	959	1	4	0	160	118	0	0	100
fixed	5	10	11	1001813	5	2	2	1	0	1562	1	4	0	144	119	0	0	100
fixed	5	10	12	1003896	4	3	3	1	0	1002	1	4	0	152	120	0	0	100
random	6	1	1	1116669	6	1	1	1	0	809	1	4	0	168	1	0	0	100
random	6	1	2	1118165	4	4	4	1	0	618	1	4	0	192	2	0	0	100
random	6	1	3	1119237	2	2	2	1	0	629	1	4	0	176	3	0	0	100
random	6	1	4	1120476	3	3	3	1	0	528	1	4	0	184	4	0	0	100
random	6	1	5	1121398	5	2	2	1	0	609	1	4	0	176	5	0	0	100
random	6	1	6	1123024	1	4	4	1	0	628	1	4	0	192	6	0	0	100
random	6	1	7	1124163	6	1	1	1	0	572	1	4	0	168	7	0	0	100
random	6	1	8	1125241	2	3	3	1	0	766	1	4	0	184	8	0	0	100
random	6	1	9	1126405	4	2	2	1	0	485	1	4	0	176	9	0	0	100
random	6	1	10	1127720	1	1	1	1	0	637	1	4	0	168	10	0	0	100
random	6	1	11	1128786	5	4	4	1	0	576	1	4	0	192	11	0	0	100
random	6	1	12	1129832	3	3	3	1	0	724	1	4	0	184	12	0	0	100
random	6	1	13	1131157	5	2	2	1	0	708	1	4	0	176	13	0	0	100
random	6	1	14	1132194	1	4	4	1	0	592	1	4	0	192	14	0	0	100
random	6	1	15	1133445	3	1	1	1	0	595	1	4	0	168	15	0	0	100
random	6	1	16	1134442	4	3	3	1	0	657	1	4	0	184	16	0	0	100
random	6	1	17	1135414	6	4	4	1	0	680	1	4	0	192	17	0	0	100
random	6	1	18	1136971	2	1	1	1	0	645	1	4	0	168	18	0	0	100
random	6	1	19	1138001	5	3	3	1	0	682	1	4	0	184	19	0	0	100
random	6	1	20	1139014	2	2	2	1	0	568	1	4	0	176	20	0	0	100
random	6	1	21	1140147	3	3	3	1	0	687	1	4	0	184	21	0	0	100
random	6	1	22	1141763	6	1	1	1	0	859	1	4	0	168	22	0	0	100
random	6	1	23	1143218	4	2	2	2	0	829	2	4	0	176	23	0	0	100
random	6	1	24	1144793	1	4	4	1	0	522	1	4	0	192	24	0	0	100
random	6	1	25	1146411	4	3	3	1	0	925	1	4	0	184	25	0	0	100
random	6	1	26	1147725	2	1	1	1	0	670	1	4	0	168	26	0	0	100
random	6	1	27	1149297	5	2	2	1	0	636	1	4	0	176	27	0	0	100
random	6	1	28	1150891	6	4	4	1	0	688	1	4	0	192	28	0	0	100
random	6	1	29	1152372	1	3	3	1	0	945	1	4	0	184	29	0	0	100
random	6	1	30	1153660	5	2	2	1	0	643	1	4	0	176	30	0	0	100
random	6	1	31	1154708	2	1	1	1	0	774	1	4	0	168	31	0	0	100
random	6	1	32	1156077	3	3	3	1	0	780	1	4	0	184	32	0	0	100
random	6	1	33	1157805	6	4	4	1	0	715	1	4	0	192	33	0	0	100
random	6	1	34	1159447	4	2	2	1	0	582	1	4	0	176	34	0	0	100
random	6	1	35	1160760	3	4	4	1	0	670	1	4	0	192	35	0	0	100
random	6	1	36	1162304	1	1	1	1	0	732	1	4	0	168	36	0	0	100
random	6	1	37	1163988	3	4	4	1	0	741	1	4	0	192	37	0	0	100
random	6	1	38	1165429	5	3	3	1	0	920	1	4	0	184	38	0	0	100
random	6	1	39	1167036	6	1	1	1	0	740	1	4	0	168	39	0	0	100
random	6	1	40	1168549	1	2	2	1	0	908	1	4	0	176	40	0	0	100
random	6	1	41	1170156	2	3	3	1	0	552	1	4	0	184	41	0	0	100
random	6	1	42	1171626	4	4	4	1	0	562	1	4	0	192	42	0	0	100
random	6	1	43	1172685	1	2	2	1	0	765	1	4	0	176	43	0	0	100
random	6	1	44	1173778	6	3	3	1	0	2342	1	4	0	184	44	0	0	100
random	6	1	45	1176829	3	1	1	1	0	750	1	4	0	168	45	0	0	100
random	6	1	46	1178196	4	4	4	1	0	716	1	4	0	192	46	0	0	100
random	6	1	47	1179731	2	2	2	1	0	698	1	4	0	176	47	0	0	100
random	6	1	48	1181394	5	1	1	1	0	884	1	4	0	168	48	0	0	100
random	6	1	49	1183218	2	3	3	1	0	887	1	4	0	184	49	0	0	100
random	6	1	50	1185091	3	1	1	1	0	735	1	4	0	168	50	0	0	100
random	6	1	51	1186600	1	4	4	1	0	503	1	4	0	192	51	0	0	100
random	6	1	52	1187661	5	3	3	1	0	834	1	4	0	184	52	0	0	100
random	6	1	53	1188855	3	2	2	1	0	632	1	4	0	176	53	0	0	100
random	6	1	54	1190119	6	4	4	1	0	618	1	4	0	192	54	0	0	100
random	6	1	55	1191204	4	2	2	1	0	1028	1	4	0	176	55	0	0	100
random	6	1	56	1192955	1	1	1	1	0	787	1	4	0	168	56	0	0	100
random	6	1	57	1194291	5	4	4	1	0	690	1	4	0	192	57	0	0	100
random	6	1	58	1195713	2	1	1	1	0	862	1	4	0	168	58	0	0	100
random	6	1	59	1196986	6	2	2	1	0	919	1	4	0	176	59	0	0	100
random	6	1	60	1198588	4	3	3	1	0	683	1	4	0	184	60	0	0	100
random	6	1	61	1200444	1	2	2	1	0	797	1	4	0	176	61	0	0	100
random	6	1	62	1201802	6	4	4	1	0	884	1	4	0	192	62	0	0	100
random	6	1	63	1203619	4	1	1	1	0	950	1	4	0	168	63	0	0	100
random	6	1	64	1205097	2	2	2	1	0	1128	1	4	0	176	64	0	0	100
random	6	1	65	1207009	4	3	3	1	0	1111	1	4	0	184	65	0	0	100
random	6	1	66	1208954	3	1	1	1	0	941	1	4	0	168	66	0	0	100
random	6	1	67	1210343	1	3	3	1	0	1034	1	4	0	184	67	0	0	100
random	6	1	68	1211922	5	4	4	1	0	2167	1	4	0	192	68	0	0	100
random	6	1	69	1215027	2	2	2	1	0	779	1	4	0	176	69	0	0	100
random	6	1	70	1216535	3	1	1	1	0	699	1	4	0	168	70	0	0	100
random	6	1	71	1217593	5	4	4	1	0	663	1	4	0	192	71	0	0	100
random	6	1	72	1218919	6	3	3	1	0	863	1	4	0	184	72	0	0	100
random	6	1	73	1220443	2	1	1	1	0	846	1	4	0	168	73	0	0	100
random	6	1	74	1221987	5	3	3	1	0	1269	1	4	0	184	74	0	0	100
random	6	1	75	1223783	1	4	4	1	0	560	1	4	0	192	75	0	0	100
random	6	1	76	1224936	6	2	2	1	0	807	1	4	0	176	76	0	0	100
random	6	1	77	1226338	2	1	1	1	0	740	1	4	0	168	77	0	0	100
random	6	1	78	1228058	4	4	4	1	0	732	1	4	0	192	78	0	0	100
random	6	1	79	1229108	3	2	2	1	0	1007	1	4	0	176	79	0	0	100
random	6	1	80	1230859	4	3	3	1	0	1045	1	4	0	184	80	0	0	100
random	6	1	81	1232473	1	4	4	1	0	760	1	4	0	192	81	0	0	100
random	6	1	82	1233759	5	1	1	1	0	1002	1	4	0	168	82	0	0	100
random	6	1	83	1235745	3	2	2	1	0	1454	1	4	0	176	83	0	0	100
random	6	1	84	1237759	6	3	3	1	0	569	1	4	0	184	84	0	0	100
random	6	1	85	1239239	3	2	2	1	0	954	1	4	0	176	85	0	0	100
random	6	1	86	1240854	1	3	3	1	0	510	1	4	0	184	86	0	0	100
random	6	1	87	1242171	4	4	4	1	0	614	1	4	0	192	87	0	0	100
random	6	1	88	1243166	2	1	1	1	0	1131	1	4	0	168	88	0	0	100
random	6	1	89	1244743	6	4	4	1	0	609	1	4	0	192	89	0	0	100
random	6	1	90	1245705	3	3	3	1	0	1344	1	4	0	184	90	0	0	100
random	6	1	91	1248068	5	4	4	1	0	756	1	4	0	192	91	0	0	100
random	6	1	92	1249556	1	2	2	1	0	797	1	4	0	176	92	0	0	100
random	6	1	93	1250972	5	1	1	1	0	753	1	4	0	168	93	0	0	100
random	6	1	94	1252568	4	3	3	2	0	2158	2	4	0	184	94	0	0	100
random	6	1	95	1255537	6	1	1	1	0	728	1	4	0	168	95	0	0	100
random	6	1	96	1257124	2	2	2	1	0	805	1	4	0	176	96	0	0	100
random	6	1	97	1258587	4	3	3	1	0	718	1	4	0	184	97	0	0	100
random	6	1	98	1260082	3	2	2	1	0	519	1	4	0	176	98	0	0	100
random	6	1	99	1261255	6	3	3	1	0	926	1	4	0	184	99	0	0	100
random	6	1	100	1263129	1	4	4	1	0	526	1	4	0	192	100	0	0	100
random	6	1	101	1264225	4	1	1	1	0	768	1	4	0	168	101	0	0	100
random	6	1	102	1265769	5	2	2	1	0	702	1	4	0	176	102	0	0	100
random	6	1	103	1267078	2	4	4	2	0	1087	2	4	0	192	103	0	0	100
random	6	1	104	1268832	3	1	1	1	0	836	1	4	0	168	104	0	0	100
random	6	1	105	1270272	1	3	3	1	0	1160	1	4	0	184	105	0	0	100
random	6	1	106	1271757	2	2	2	1	0	721	1	4	0	176	106	0	0	100
random	6	1	107	1273192	5	4	4	1	0	1028	1	4	0	192	107	0	0	100
random	6	1	108	1274787	6	1	1	2	0	1353	2	4	0	168	108	0	0	100
random	6	1	109	1277199	5	4	4	1	0	826	1	4	0	192	109	0	0	100
random	6	1	110	1279024	6	3	3	1	0	1149	1	4	0	184	110	0	0	100
random	6	1	111	1281117	2	2	2	1	0	780	1	4	0	176	111	0	0	100
random	6	1	112	1282734	3	1	1	1	0	792	1	4	0	168	112	0	0	100
random	6	1	113	1284098	1	2	2	1	0	870	1	4	0	176	113	0	0	100
random	6	1	114	1286014	2	3	3	1	0	1101	1	4	0	184	114	0	0	100
random	6	1	115	1287715	3	1	1	1	0	917	1	4	0	168	115	0	0	100
random	6	1	116	1288941	4	4	4	1	0	793	1	4	0	192	116	0	0	100
random	6	1	117	1290589	6	1	1	1	0	763	1	4	0	168	117	0	0	100
random	6	1	118	1291999	5	3	3	1	0	1895	1	4	0	184	118	0	0	100
random	6	1	119	1294505	1	4	4	1	0	646	1	4	0	192	119	0	0	100
random	6	1	120	1295768	4	2	2	1	0	632	1	4	0	176	120	0	0	100
fixed	7	1	1	1297430	4	1	1	1	0	793	1	4	0	200	1	0	0	100
fixed	7	1	2	1298891	1	2	2	2	0	1315	2	4	0	208	2	0	0	100
fixed	7	1	3	1300910	6	4	4	1	0	614	1	4	0	224	3	0	0	100
fixed	7	1	4	1301899	2	1	1	1	0	620	1	4	0	200	4	0	0	100
fixed	7	1	5	1303386	5	3	3	1	0	893	1	4	0	216	5	0	0	100
fixed	7	1	6	1304967	6	4	4	1	0	746	1	4	0	224	6	0	0	100
fixed	7	1	7	1306541	3	1	1	1	0	743	1	4	0	200	7	0	0	100
fixed	7	1	8	1308304	2	3	3	1	0	973	1	4	0	216	8	0	0	100
fixed	7	1	9	1310245	3	2	2	1	0	1042	1	4	0	208	9	0	0	100
fixed	7	1	10	1311703	1	4	4	1	0	813	1	4	0	224	10	0	0	100
fixed	7	1	11	1313327	5	2	2	1	0	952	1	4	0	208	11	0	0	100
fixed	7	1	12	1314969	4	3	3	1	0	1443	1	4	0	216	12	0	0	100
fixed	7	2	1	1317548	4	1	1	1	0	893	1	4	0	200	1	0	0	8
fixed	7	2	2	1318739	1	2	2	1	0	1331	1	4	0	208	2	0	0	14
fixed	7	2	3	1320676	6	4	4	1	0	1113	1	4	0	224	3	0	0	20
fixed	7	2	4	1322411	2	1	1	1	0	687	1	4	0	200	4	0	0	25
fixed	7	2	5	1323987	5	3	3	1	0	853	1	4	0	216	5	0	0	29
fixed	7	2	6	1325713	6	4	4	1	0	716	1	4	0	224	6	0	0	33
fixed	7	2	7	1327163	3	1	1	1	0	1494	1	4	0	200	7	0	0	37
fixed	7	2	8	1329317	2	3	3	1	0	763	1	4	0	216	8	0	0	40
fixed	7	2	9	1330563	3	2	2	1	0	870	1	4	0	208	9	0	0	43
fixed	7	2	10	1332430	1	4	4	1	0	535	1	4	0	224	10	0	0	45
fixed	7	2	11	1333482	5	2	2	1	0	827	1	4	0	208	11	0	0	48
fixed	7	2	12	1334631	4	3	3	1	0	842	1	4	0	216	12	0	0	50
fixed	7	3	1	1336311	4	1	1	1	0	874	1	4	0	200	1	0	0	4
fixed	7	3	2	1338123	1	2	2	1	0	686	1	4	0	208	2	0	0	8
fixed	7	3	3	1339749	6	4	4	1	0	657	1	4	0	224	3	0	0	11
fixed	7	3	4	1341402	2	1	1	2	0	1155	2	4	0	200	4	0	0	14
fixed	7	3	5	1343208	5	3	3	1	0	702	1	4	0	216	5	0	0	17
fixed	7	3	6	1344595	6	4	4	1	0	875	1	4	0	224	6	0	0	20
fixed	7	3	7	1345885	3	1	0	1	2	0	3	4	0	200	6	0	1	19
fixed	7	3	8	1349410	2	3	3	1	0	847	1	4	0	216	7	0	1	22
fixed	7	3	9	1350672	3	2	2	1	0	738	1	4	0	208	8	0	1	24
fixed	7	3	10	1351721	1	4	4	1	0	654	1	4	0	224	9	0	1	26
fixed	7	3	11	1353212	5	2	2	1	0	647	1	4	0	208	10	0	1	29
fixed	7	3	12	1354291	4	3	3	1	0	761	1	4	0	216	11	0	1	31
fixed	7	4	1	1355926	4	1	1	1	0	747	1	4	0	200	1	0	0	3
fixed	7	4	2	1357320	1	2	2	1	0	761	1	4	0	208	2	0	0	5
fixed	7	4	3	1358515	6	4	4	1	0	614	1	4	0	224	3	0	0	8
fixed	7	4	4	1359440	2	1	1	1	0	735	1	4	0	200	4	0	0	10
fixed	7	4	5	1361192	5	3	3	1	0	685	1	4	0	216	5	0	0	12
fixed	7	4	6	1362653	6	4	4	1	0	599	1	4	0	224	6	0	0	14
fixed	7	4	7	1363724	3	1	1	1	0	698	1	4	0	200	7	0	0	16
fixed	7	4	8	1365030	2	3	3	1	0	890	1	4	0	216	8	0	0	18
fixed	7	4	9	1366263	3	2	2	1	0	1078	1	4	0	208	9	0	0	20
fixed	7	4	10	1367943	1	4	4	1	0	679	1	4	0	224	10	0	0	22
fixed	7	4	11	1369553	5	2	2	1	0	763	1	4	0	208	11	0	0	23
fixed	7	4	12	1371076	4	3	3	1	0	1154	1	4	0	216	12	0	0	25
fixed	7	5	1	1373268	4	1	1	1	0	661	1	4	0	200	1	0	0	2
fixed	7	5	2	1374886	1	2	2	1	0	1000	1	4	0	208	2	0	0	4
fixed	7	5	3	1376841	6	4	4	1	0	725	1	4	0	224	3	0	0	6
fixed	7	5	4	1377887	2	1	1	1	0	666	1	4	0	200	4	0	0	8
fixed	7	5	5	1379328	5	3	3	1	0	885	1	4	0	216	5	0	0	9
fixed	7	5	6	1380543	6	4	4	1	0	825	1	4	0	224	6	0	0	11
fixed	7	5	7	1382034	3	1	1	1	0	1722	1	4	0	200	7	0	0	13
fixed	7	5	8	1384762	2	3	3	1	0	830	1	4	0	216	8	0	0	14
fixed	7	5	9	1386185	3	2	2	1	0	650	1	4	0	208	9	0	0	16
fixed	7	5	10	1387543	1	4	4	1	0	513	1	4	0	224	10	0	0	17
fixed	7	5	11	1388682	5	2	2	1	0	632	1	4	0	208	11	0	0	19
fixed	7	5	12	1389942	4	3	3	1	0	683	1	4	0	216	12	0	0	20
fixed	7	6	1	1391245	4	1	1	1	0	939	1	4	0	200	1	0	0	2
fixed	7	6	2	1393160	1	2	2	1	0	627	1	4	0	208	2	0	0	3
fixed	7	6	3	1394094	6	4	4	1	0	667	1	4	0	224	3	0	0	5
fixed	7	6	4	1395271	2	1	1	1	0	697	1	4	0	200	4	0	0	6
fixed	7	6	5	1396535	5	3	3	1	0	1052	1	4	0	216	5	0	0	8
fixed	7	6	6	1398244	6	4	4	1	0	683	1	4	0	224	6	0	0	9
fixed	7	6	7	1399877	3	1	1	1	0	814	1	4	0	200	7	0	0	10
fixed	7	6	8	1401648	2	3	3	1	0	803	1	4	0	216	8	0	0	12
fixed	7	6	9	1402765	3	2	2	1	0	748	1	4	0	208	9	0	0	13
fixed	7	6	10	1404143	1	4	4	1	0	521	1	4	0	224	10	0	0	14
fixed	7	6	11	1405577	5	2	2	1	0	925	1	4	0	208	11	0	0	15
fixed	7	6	12	1407203	4	3	3	1	0	1096	1	4	0	216	12	0	0	17
fixed	7	7	1	1409156	4	1	1	1	0	677	1	4	0	200	1	0	0	1
fixed	7	7	2	1410737	1	2	2	1	0	794	1	4	0	208	2	0	0	3
fixed	7	7	3	1412092	6	4	4	1	0	617	1	4	0	224	3	0	0	4
fixed	7	7	4	1413531	2	1	1	1	0	963	1	4	0	200	4	0	0	5
fixed	7	7	5	1415287	5	3	3	1	0	721	1	4	0	216	5	0	0	6
fixed	7	7	6	1416491	6	4	4	1	0	814	1	4	0	224	6	0	0	8
fixed	7	7	7	1418303	3	1	1	1	0	802	1	4	0	200	7	0	0	9
fixed	7	7	8	1419608	2	3	3	1	0	1259	1	4	0	216	8	0	0	10
fixed	7	7	9	1421365	3	2	2	1	0	736	1	4	0	208	9	0	0	11
fixed	7	7	10	1423132	1	4	4	1	0	621	1	4	0	224	10	0	0	12
fixed	7	7	11	1424584	5	2	2	1	0	680	1	4	0	208	11	0	0	13
fixed	7	7	12	1426110	4	3	3	1	0	727	1	4	0	216	12	0	0	14
fixed	7	8	1	1427568	4	1	1	1	0	929	1	4	0	200	1	0	0	1
fixed	7	8	2	1429319	1	2	2	1	0	815	1	4	0	208	2	0	0	2
fixed	7	8	3	1430462	6	4	4	1	0	983	1	4	0	224	3	0	0	3
fixed	7	8	4	1432398	2	1	1	1	0	1565	1	4	0	200	4	0	0	5
fixed	7	8	5	1434618	5	3	3	1	0	966	1	4	0	216	5	0	0	6
fixed	7	8	6	1435966	6	4	4	1	0	726	1	4	0	224	6	0	0	7
fixed	7	8	7	1437149	3	1	1	1	0	652	1	4	0	200	7	0	0	8
fixed	7	8	8	1438364	2	3	3	1	0	752	1	4	0	216	8	0	0	9
fixed	7	8	9	1440138	3	2	2	1	0	789	1	4	0	208	9	0	0	10
fixed	7	8	10	1441257	1	4	4	1	0	765	1	4	0	224	10	0	0	11
fixed	7	8	11	1442764	5	2	2	1	0	926	1	4	0	208	11	0	0	12
fixed	7	8	12	1444601	4	3	3	1	0	1224	1	4	0	216	12	0	0	13
fixed	7	9	1	1446448	4	1	1	1	0	737	1	4	0	200	1	0	0	1
fixed	7	9	2	1447781	1	2	2	1	0	921	1	4	0	208	2	0	0	2
fixed	7	9	3	1449575	6	4	4	1	0	701	1	4	0	224	3	0	0	3
fixed	7	9	4	1451213	2	1	1	1	0	1408	1	4	0	200	4	0	0	4
fixed	7	9	5	1453429	5	3	3	1	0	962	1	4	0	216	5	0	0	5
fixed	7	9	6	1455173	6	4	4	1	0	1080	1	4	0	224	6	0	0	6
fixed	7	9	7	1457052	3	1	1	1	0	753	1	4	0	200	7	0	0	7
fixed	7	9	8	1458325	2	3	3	1	0	834	1	4	0	216	8	0	0	8
fixed	7	9	9	1459460	3	2	2	1	0	771	1	4	0	208	9	0	0	9
fixed	7	9	10	1461092	1	4	4	1	0	581	1	4	0	224	10	0	0	9
fixed	7	9	11	1462188	5	2	2	1	0	1343	1	4	0	208	11	0	0	10
fixed	7	9	12	1464158	4	3	3	1	0	499	1	4	0	216	12	0	0	11
fixed	7	10	1	1465427	4	1	1	1	0	749	1	4	0	200	1	0	0	1
fixed	7	10	2	1467130	1	2	2	1	0	941	1	4	0	208	2	0	0	2
fixed	7	10	3	1468739	6	4	4	1	0	1289	1	4	0	224	3	0	0	3
fixed	7	10	4	1470982	2	1	1	1	0	803	1	4	0	200	4	0	0	4
fixed	7	10	5	1472485	5	3	3	1	0	1387	1	4	0	216	5	0	0	4
fixed	7	10	6	1474851	6	4	4	1	0	1502	1	4	0	224	6	0	0	5
fixed	7	10	7	1476846	3	1	1	1	0	650	1	4	0	200	7	0	0	6
fixed	7	10	8	1477867	2	3	3	1	0	799	1	4	0	216	8	0	0	7
fixed	7	10	9	1479465	3	2	2	1	0	771	1	4	0	208	9	0	0	8
fixed	7	10	10	1480648	1	4	4	1	0	793	1	4	0	224	10	0	0	8
fixed	7	10	11	1481935	5	2	2	2	0	1570	2	4	0	208	11	0	0	9
fixed	7	10	12	1484522	4	3	3	1	0	757	1	4	0	216	12	0	0	10
