type	block	sequ.	trial	time	Pos.	Color	Button	NumRsp	Resp_1	RT_1	R_Code	Resp_2	RT_2	Trigg.	n_hit	n_inc	n_miss	score_%

random	1	1	1	1237	6	1	1	1	0	922	1	4	0	8	1	0	0	100
random	1	1	2	2781	4	4	4	1	0	712	1	4	0	32	2	0	0	100
random	1	1	3	3913	2	2	2	1	0	744	1	4	0	16	3	0	0	100
random	1	1	4	5127	3	3	3	1	0	405	1	4	0	24	4	0	0	100
random	1	1	5	6018	5	2	2	1	0	911	1	4	0	16	5	0	0	100
random	1	1	6	7336	1	4	4	1	0	535	1	4	0	32	6	0	0	100
random	1	1	7	8841	6	1	1	1	0	816	1	4	0	8	7	0	0	100
random	1	1	8	9976	2	3	3	1	0	727	1	4	0	24	8	0	0	100
random	1	1	9	11250	4	2	2	1	0	818	1	4	0	16	9	0	0	100
random	1	1	10	12965	1	1	1	1	0	785	1	4	0	8	10	0	0	100
random	1	1	11	14652	5	4	4	1	0	657	1	4	0	32	11	0	0	100
random	1	1	12	16280	3	3	3	1	0	773	1	4	0	24	12	0	0	100
random	1	1	13	17929	5	2	2	1	0	831	1	4	0	16	13	0	0	100
random	1	1	14	19388	1	4	4	1	0	633	1	4	0	32	14	0	0	100
random	1	1	15	20507	3	1	1	1	0	690	1	4	0	8	15	0	0	100
random	1	1	16	21775	4	3	3	1	0	788	1	4	0	24	16	0	0	100
random	1	1	17	23184	6	4	4	1	0	720	1	4	0	32	17	0	0	100
random	1	1	18	24862	2	1	1	1	0	705	1	4	0	8	18	0	0	100
random	1	1	19	26049	5	3	3	1	0	543	1	4	0	24	19	0	0	100
random	1	1	20	27593	2	2	2	1	0	766	1	4	0	16	20	0	0	100
random	1	1	21	28936	3	3	3	1	0	717	1	4	0	24	21	0	0	100
random	1	1	22	30062	6	1	1	1	0	965	1	4	0	8	22	0	0	100
random	1	1	23	31578	4	2	2	1	0	700	1	4	0	16	23	0	0	100
random	1	1	24	32908	1	4	4	1	0	637	1	4	0	32	24	0	0	100
random	1	1	25	34587	4	3	3	1	0	1021	1	4	0	24	25	0	0	100
random	1	1	26	36357	2	1	1	1	0	802	1	4	0	8	26	0	0	100
random	1	1	27	37957	5	2	2	1	0	775	1	4	0	16	27	0	0	100
random	1	1	28	39741	6	4	4	1	0	643	1	4	0	32	28	0	0	100
random	1	1	29	41292	1	3	3	1	0	865	1	4	0	24	29	0	0	100
random	1	1	30	42464	5	2	2	1	0	952	1	4	0	16	30	0	0	100
random	1	1	31	44096	2	1	1	1	0	706	1	4	0	8	31	0	0	100
random	1	1	32	45404	3	3	3	1	0	835	1	4	0	24	32	0	0	100
random	1	1	33	46866	6	4	4	1	0	525	1	4	0	32	33	0	0	100
random	1	1	34	48213	4	2	2	1	0	700	1	4	0	16	34	0	0	100
random	1	1	35	49785	3	4	4	1	0	754	1	4	0	32	35	0	0	100
random	1	1	36	51535	1	1	1	1	0	799	1	4	0	8	36	0	0	100
random	1	1	37	53216	3	4	4	1	0	792	1	4	0	32	37	0	0	100
random	1	1	38	54670	5	3	3	1	0	778	1	4	0	24	38	0	0	100
random	1	1	39	56428	6	1	1	1	0	752	1	4	0	8	39	0	0	100
random	1	1	40	57573	1	2	2	1	0	648	1	4	0	16	40	0	0	100
random	1	1	41	58517	2	3	3	1	0	736	1	4	0	24	41	0	0	100
random	1	1	42	60033	4	4	4	1	0	799	1	4	0	32	42	0	0	100
random	1	1	43	61662	1	2	2	1	0	955	1	4	0	16	43	0	0	100
random	1	1	44	63019	6	3	3	1	0	577	1	4	0	24	44	0	0	100
random	1	1	45	63976	3	1	1	1	0	528	1	4	0	8	45	0	0	100
random	1	1	46	65327	4	4	4	1	0	543	1	4	0	32	46	0	0	100
random	1	1	47	66596	2	2	2	1	0	746	1	4	0	16	47	0	0	100
random	1	1	48	67809	5	1	1	2	0	1150	2	4	0	8	48	0	0	100
random	1	1	49	69657	2	3	3	1	0	1088	1	4	0	24	49	0	0	100
random	1	1	50	71717	3	1	1	1	0	801	1	4	0	8	50	0	0	100
random	1	1	51	73069	1	4	4	1	0	791	1	4	0	32	51	0	0	100
random	1	1	52	74370	5	3	3	1	0	800	1	4	0	24	52	0	0	100
random	1	1	53	76132	3	2	2	1	0	574	1	4	0	16	53	0	0	100
random	1	1	54	77460	6	4	4	1	0	701	1	4	0	32	54	0	0	100
random	1	1	55	78923	4	2	2	1	0	760	1	4	0	16	55	0	0	100
random	1	1	56	80374	1	1	1	1	0	738	1	4	0	8	56	0	0	100
random	1	1	57	81809	5	4	4	1	0	821	1	4	0	32	57	0	0	100
random	1	1	58	83295	2	1	1	1	0	694	1	4	0	8	58	0	0	100
random	1	1	59	84875	6	2	2	1	0	771	1	4	0	16	59	0	0	100
random	1	1	60	86592	4	3	3	1	0	595	1	4	0	24	60	0	0	100
random	1	1	61	88336	1	2	2	1	0	752	1	4	0	16	61	0	0	100
random	1	1	62	89433	6	4	4	1	0	730	1	4	0	32	62	0	0	100
random	1	1	63	91156	4	1	1	1	0	666	1	4	0	8	63	0	0	100
random	1	1	64	92584	2	2	2	1	0	629	1	4	0	16	64	0	0	100
random	1	1	65	94131	4	3	3	1	0	699	1	4	0	24	65	0	0	100
random	1	1	66	95533	3	1	1	1	0	592	1	4	0	8	66	0	0	100
random	1	1	67	97059	1	3	3	1	0	727	1	4	0	24	67	0	0	100
random	1	1	68	98638	5	4	4	1	0	709	1	4	0	32	68	0	0	100
random	1	1	69	100045	2	2	2	1	0	752	1	4	0	16	69	0	0	100
random	1	1	70	101550	3	1	1	1	0	745	1	4	0	8	70	0	0	100
random	1	1	71	103298	5	4	4	1	0	663	1	4	0	32	71	0	0	100
random	1	1	72	104283	6	3	3	1	0	717	1	4	0	24	72	0	0	100
random	1	1	73	106163	2	1	1	1	0	709	1	4	0	8	73	0	0	100
random	1	1	74	107313	5	3	3	1	0	645	1	4	0	24	74	0	0	100
random	1	1	75	108435	1	4	4	1	0	605	1	4	0	32	75	0	0	100
random	1	1	76	109379	6	2	2	1	0	534	1	4	0	16	76	0	0	100
random	1	1	77	110445	2	1	1	1	0	696	1	4	0	8	77	0	0	100
random	1	1	78	111927	4	4	4	1	0	729	1	4	0	32	78	0	0	100
random	1	1	79	113219	3	2	2	1	0	803	1	4	0	16	79	0	0	100
random	1	1	80	114554	4	3	3	1	0	666	1	4	0	24	80	0	0	100
random	1	1	81	116175	1	4	4	1	0	766	1	4	0	32	81	0	0	100
random	1	1	82	117544	5	1	1	1	0	723	1	4	0	8	82	0	0	100
random	1	1	83	119144	3	2	2	1	0	688	1	4	0	16	83	0	0	100
random	1	1	84	120234	6	3	3	1	0	434	1	4	0	24	84	0	0	100
random	1	1	85	121734	3	2	2	1	0	746	1	4	0	16	85	0	0	100
random	1	1	86	123277	1	3	3	1	0	641	1	4	0	24	86	0	0	100
random	1	1	87	124256	4	4	4	1	0	823	1	4	0	32	87	0	0	100
random	1	1	88	125748	2	1	1	1	0	640	1	4	0	8	88	0	0	100
random	1	1	89	127020	6	4	4	1	0	722	1	4	0	32	89	0	0	100
random	1	1	90	128413	3	3	3	1	0	920	1	4	0	24	90	0	0	100
random	1	1	91	130091	5	4	4	1	0	696	1	4	0	32	91	0	0	100
random	1	1	92	131391	1	2	2	1	0	849	1	4	0	16	92	0	0	100
random	1	1	93	133234	5	1	1	1	0	715	1	4	0	8	93	0	0	100
random	1	1	94	134348	4	3	3	1	0	732	1	4	0	24	94	0	0	100
random	1	1	95	135808	6	1	1	1	0	846	1	4	0	8	95	0	0	100
random	1	1	96	137633	2	2	2	1	0	681	1	4	0	16	96	0	0	100
random	1	1	97	139311	4	3	3	1	0	777	1	4	0	24	97	0	0	100
random	1	1	98	140806	3	2	2	1	0	626	1	4	0	16	98	0	0	100
random	1	1	99	142148	6	3	3	1	0	674	1	4	0	24	99	0	0	100
random	1	1	100	143334	1	4	4	1	0	664	1	4	0	32	100	0	0	100
random	1	1	101	144452	4	1	1	1	0	616	1	4	0	8	101	0	0	100
random	1	1	102	145993	5	2	2	1	0	758	1	4	0	16	102	0	0	100
random	1	1	103	147352	2	4	4	1	0	669	1	4	0	32	103	0	0	100
random	1	1	104	148702	3	1	1	1	0	748	1	4	0	8	104	0	0	100
random	1	1	105	150474	1	3	3	1	0	721	1	4	0	24	105	0	0	100
random	1	1	106	151811	2	2	2	1	0	680	1	4	0	16	106	0	0	100
random	1	1	107	153029	5	4	4	1	0	644	1	4	0	32	107	0	0	100
random	1	1	108	154660	6	1	1	1	0	752	1	4	0	8	108	0	0	100
random	1	1	109	156503	5	4	4	1	0	857	1	4	0	32	109	0	0	100
random	1	1	110	157815	6	3	3	1	0	642	1	4	0	24	110	0	0	100
random	1	1	111	159399	2	2	2	1	0	687	1	4	0	16	111	0	0	100
random	1	1	112	160600	3	1	1	1	0	916	1	4	0	8	112	0	0	100
random	1	1	113	161962	1	2	2	1	0	635	1	4	0	16	113	0	0	100
random	1	1	114	163294	2	3	3	1	0	762	1	4	0	24	114	0	0	100
random	1	1	115	165016	3	1	1	1	0	713	1	4	0	8	115	0	0	100
random	1	1	116	166192	4	4	4	1	0	727	1	4	0	32	116	0	0	100
random	1	1	117	167821	6	1	1	1	0	722	1	4	0	8	117	0	0	100
random	1	1	118	169275	5	3	3	1	0	749	1	4	0	24	118	0	0	100
random	1	1	119	170833	1	4	4	1	0	667	1	4	0	32	119	0	0	100
random	1	1	120	172089	4	2	2	1	0	445	1	4	0	16	120	0	0	100
fixed	2	1	1	173727	4	1	1	1	0	528	1	4	0	40	1	0	0	100
fixed	2	1	2	174883	1	2	2	1	0	751	1	4	0	48	2	0	0	100
fixed	2	1	3	176026	6	4	4	1	0	615	1	4	0	64	3	0	0	100
fixed	2	1	4	177351	2	1	1	1	0	599	1	4	0	40	4	0	0	100
fixed	2	1	5	178580	5	3	3	1	0	834	1	4	0	56	5	0	0	100
fixed	2	1	6	180092	6	4	4	1	0	770	1	4	0	64	6	0	0	100
fixed	2	1	7	181173	3	1	1	1	0	709	1	4	0	40	7	0	0	100
fixed	2	1	8	182562	2	3	3	1	0	626	1	4	0	56	8	0	0	100
fixed	2	1	9	183604	3	2	2	1	0	541	1	4	0	48	9	0	0	100
fixed	2	1	10	184816	1	4	4	1	0	634	1	4	0	64	10	0	0	100
fixed	2	1	11	186444	5	2	2	1	0	645	1	4	0	48	11	0	0	100
fixed	2	1	12	187908	4	3	3	1	0	760	1	4	0	56	12	0	0	100
fixed	2	2	1	189651	4	1	1	1	0	797	1	4	0	40	13	0	0	100
fixed	2	2	2	191068	1	2	2	1	0	698	1	4	0	48	14	0	0	100
fixed	2	2	3	192707	6	4	4	1	0	652	1	4	0	64	15	0	0	100
fixed	2	2	4	193825	2	1	1	1	0	765	1	4	0	40	16	0	0	100
fixed	2	2	5	195329	5	3	3	1	0	693	1	4	0	56	17	0	0	100
fixed	2	2	6	196496	6	4	4	1	0	676	1	4	0	64	18	0	0	100
fixed	2	2	7	197838	3	1	1	1	0	786	1	4	0	40	19	0	0	100
fixed	2	2	8	199567	2	3	3	2	0	930	2	4	0	56	20	0	0	100
fixed	2	2	9	201050	3	2	2	1	0	747	1	4	0	48	21	0	0	100
fixed	2	2	10	202631	1	4	4	1	0	767	1	4	0	64	22	0	0	100
fixed	2	2	11	204097	5	2	2	1	0	602	1	4	0	48	23	0	0	100
fixed	2	2	12	205540	4	3	3	1	0	604	1	4	0	56	24	0	0	100
fixed	2	3	1	206994	4	1	1	1	0	751	1	4	0	40	25	0	0	100
fixed	2	3	2	208421	1	2	2	1	0	875	1	4	0	48	26	0	0	100
fixed	2	3	3	209694	6	4	4	1	0	677	1	4	0	64	27	0	0	100
fixed	2	3	4	211014	2	1	1	1	0	677	1	4	0	40	28	0	0	100
fixed	2	3	5	212525	5	3	3	1	0	660	1	4	0	56	29	0	0	100
fixed	2	3	6	213588	6	4	4	1	0	704	1	4	0	64	30	0	0	100
fixed	2	3	7	214980	3	1	1	1	0	748	1	4	0	40	31	0	0	100
fixed	2	3	8	216110	2	3	3	1	0	653	1	4	0	56	32	0	0	100
fixed	2	3	9	217734	3	2	2	1	0	584	1	4	0	48	33	0	0	100
fixed	2	3	10	219006	1	4	4	1	0	634	1	4	0	64	34	0	0	100
fixed	2	3	11	220242	5	2	2	1	0	622	1	4	0	48	35	0	0	100
fixed	2	3	12	221585	4	3	3	1	0	429	1	4	0	56	36	0	0	100
fixed	2	4	1	223217	4	1	1	1	0	968	1	4	0	40	37	0	0	100
fixed	2	4	2	224896	1	2	2	1	0	841	1	4	0	48	38	0	0	100
fixed	2	4	3	226568	6	4	4	1	0	626	1	4	0	64	39	0	0	100
fixed	2	4	4	228209	2	1	1	1	0	741	1	4	0	40	40	0	0	100
fixed	2	4	5	229480	5	3	3	1	0	638	1	4	0	56	41	0	0	100
fixed	2	4	6	231163	6	4	4	1	0	559	1	4	0	64	42	0	0	100
fixed	2	4	7	232653	3	1	1	1	0	800	1	4	0	40	43	0	0	100
fixed	2	4	8	234145	2	3	3	1	0	673	1	4	0	56	44	0	0	100
fixed	2	4	9	235261	3	2	2	1	0	689	1	4	0	48	45	0	0	100
fixed	2	4	10	236837	1	4	4	1	0	783	1	4	0	64	46	0	0	100
fixed	2	4	11	238119	5	2	2	1	0	584	1	4	0	48	47	0	0	100
fixed	2	4	12	239555	4	3	3	1	0	707	1	4	0	56	48	0	0	100
fixed	2	5	1	241194	4	1	1	1	0	750	1	4	0	40	49	0	0	100
fixed	2	5	2	242423	1	2	2	1	0	842	1	4	0	48	50	0	0	100
fixed	2	5	3	244231	6	4	4	1	0	510	1	4	0	64	51	0	0	100
fixed	2	5	4	245598	2	1	1	1	0	796	1	4	0	40	52	0	0	100
fixed	2	5	5	247237	5	3	3	1	0	479	1	4	0	56	53	0	0	100
fixed	2	5	6	248346	6	4	4	1	0	679	1	4	0	64	54	0	0	100
fixed	2	5	7	249657	3	1	1	1	0	904	1	4	0	40	55	0	0	100
fixed	2	5	8	251483	2	3	3	1	0	811	1	4	0	56	56	0	0	100
fixed	2	5	9	252915	3	2	2	1	0	646	1	4	0	48	57	0	0	100
fixed	2	5	10	253911	1	4	4	1	0	788	1	4	0	64	58	0	0	100
fixed	2	5	11	255596	5	2	2	1	0	708	1	4	0	48	59	0	0	100
fixed	2	5	12	257265	4	3	3	1	0	661	1	4	0	56	60	0	0	100
fixed	2	6	1	258704	4	1	1	1	0	672	1	4	0	40	61	0	0	100
fixed	2	6	2	260076	1	2	2	1	0	767	1	4	0	48	62	0	0	100
fixed	2	6	3	261651	6	4	4	1	0	668	1	4	0	64	63	0	0	100
fixed	2	6	4	262754	2	1	1	1	0	717	1	4	0	40	64	0	0	100
fixed	2	6	5	263768	5	3	3	1	0	578	1	4	0	56	65	0	0	100
fixed	2	6	6	264686	6	4	4	1	0	763	1	4	0	64	66	0	0	100
fixed	2	6	7	265829	3	1	1	1	0	715	1	4	0	40	67	0	0	100
fixed	2	6	8	267099	2	3	3	1	0	557	1	4	0	56	68	0	0	100
fixed	2	6	9	268454	3	2	2	1	0	596	1	4	0	48	69	0	0	100
fixed	2	6	10	269798	1	4	4	1	0	731	1	4	0	64	70	0	0	100
fixed	2	6	11	270975	5	2	2	1	0	697	1	4	0	48	71	0	0	100
fixed	2	6	12	271972	4	3	3	1	0	575	1	4	0	56	72	0	0	100
fixed	2	7	1	273440	4	1	1	1	0	904	1	4	0	40	73	0	0	100
fixed	2	7	2	274729	1	2	2	1	0	770	1	4	0	48	74	0	0	100
fixed	2	7	3	276395	6	4	4	1	0	731	1	4	0	64	75	0	0	100
fixed	2	7	4	277516	2	1	1	1	0	924	1	4	0	40	76	0	0	100
fixed	2	7	5	278985	5	3	3	1	0	485	1	4	0	56	77	0	0	100
fixed	2	7	6	280206	6	4	4	1	0	658	1	4	0	64	78	0	0	100
fixed	2	7	7	281694	3	1	1	1	0	627	1	4	0	40	79	0	0	100
fixed	2	7	8	282963	2	3	3	1	0	741	1	4	0	56	80	0	0	100
fixed	2	7	9	284421	3	2	2	1	0	415	1	4	0	48	81	0	0	100
fixed	2	7	10	285464	1	4	4	1	0	396	1	4	0	64	82	0	0	100
fixed	2	7	11	286514	5	2	2	1	0	703	1	4	0	48	83	0	0	100
fixed	2	7	12	287701	4	3	3	1	0	597	1	4	0	56	84	0	0	100
fixed	2	8	1	288911	4	1	1	1	0	545	1	4	0	40	85	0	0	100
fixed	2	8	2	290475	1	2	2	1	0	775	1	4	0	48	86	0	0	100
fixed	2	8	3	291887	6	4	4	1	0	547	1	4	0	64	87	0	0	100
fixed	2	8	4	293021	2	1	1	1	0	659	1	4	0	40	88	0	0	100
fixed	2	8	5	294071	5	3	3	1	0	567	1	4	0	56	89	0	0	100
fixed	2	8	6	295339	6	4	4	1	0	633	1	4	0	64	90	0	0	100
fixed	2	8	7	296502	3	1	1	1	0	792	1	4	0	40	91	0	0	100
fixed	2	8	8	298306	2	3	3	1	0	803	1	4	0	56	92	0	0	100
fixed	2	8	9	300070	3	2	2	1	0	504	1	4	0	48	93	0	0	100
fixed	2	8	10	301119	1	4	4	1	0	548	1	4	0	64	94	0	0	100
fixed	2	8	11	302036	5	2	2	1	0	613	1	4	0	48	95	0	0	100
fixed	2	8	12	303213	4	3	3	1	0	699	1	4	0	56	96	0	0	100
fixed	2	9	1	304834	4	1	1	1	0	703	1	4	0	40	97	0	0	100
fixed	2	9	2	306090	1	2	2	1	0	698	1	4	0	48	98	0	0	100
fixed	2	9	3	307751	6	4	4	1	0	627	1	4	0	64	99	0	0	100
fixed	2	9	4	309376	2	1	1	1	0	710	1	4	0	40	100	0	0	100
fixed	2	9	5	310738	5	3	3	1	0	621	1	4	0	56	101	0	0	100
fixed	2	9	6	312159	6	4	4	1	0	633	1	4	0	64	102	0	0	100
fixed	2	9	7	313223	3	1	1	1	0	771	1	4	0	40	103	0	0	100
fixed	2	9	8	315031	2	3	3	1	0	951	1	4	0	56	104	0	0	100
fixed	2	9	9	316443	3	2	2	1	0	435	1	4	0	48	105	0	0	100
fixed	2	9	10	317365	1	4	4	1	0	540	1	4	0	64	106	0	0	100
fixed	2	9	11	318876	5	2	2	1	0	716	1	4	0	48	107	0	0	100
fixed	2	9	12	319895	4	3	3	1	0	553	1	4	0	56	108	0	0	100
fixed	2	10	1	321408	4	1	1	1	0	681	1	4	0	40	109	0	0	100
fixed	2	10	2	322425	1	2	2	1	0	701	1	4	0	48	110	0	0	100
fixed	2	10	3	324013	6	4	4	1	0	682	1	4	0	64	111	0	0	100
fixed	2	10	4	325502	2	1	1	1	0	507	1	4	0	40	112	0	0	100
fixed	2	10	5	326933	5	3	3	1	0	583	1	4	0	56	113	0	0	100
fixed	2	10	6	328227	6	4	4	1	0	712	1	4	0	64	114	0	0	100
fixed	2	10	7	329743	3	1	1	1	0	728	1	4	0	40	115	0	0	100
fixed	2	10	8	330994	2	3	3	1	0	987	1	4	0	56	116	0	0	100
fixed	2	10	9	332779	3	2	2	1	0	632	1	4	0	48	117	0	0	100
fixed	2	10	10	334215	1	4	4	1	0	627	1	4	0	64	118	0	0	100
fixed	2	10	11	335863	5	2	2	1	0	637	1	4	0	48	119	0	0	100
fixed	2	10	12	337366	4	3	3	1	0	669	1	4	0	56	120	0	0	100
fixed	3	1	1	339533	4	1	1	1	0	481	1	4	0	72	1	0	0	100
fixed	3	1	2	340600	1	2	2	1	0	988	1	4	0	80	2	0	0	100
fixed	3	1	3	342431	6	4	4	1	0	542	1	4	0	96	3	0	0	100
fixed	3	1	4	343453	2	1	1	1	0	739	1	4	0	72	4	0	0	100
fixed	3	1	5	344865	5	3	3	1	0	503	1	4	0	88	5	0	0	100
fixed	3	1	6	345839	6	4	4	1	0	734	1	4	0	96	6	0	0	100
fixed	3	1	7	346858	3	1	1	1	0	707	1	4	0	72	7	0	0	100
fixed	3	1	8	348587	2	3	3	1	0	1018	1	4	0	88	8	0	0	100
fixed	3	1	9	350339	3	2	2	1	0	480	1	4	0	80	9	0	0	100
fixed	3	1	10	351734	1	4	4	1	0	588	1	4	0	96	10	0	0	100
fixed	3	1	11	352920	5	2	2	1	0	802	1	4	0	80	11	0	0	100
fixed	3	1	12	354279	4	3	3	1	0	857	1	4	0	88	12	0	0	100
fixed	3	2	1	356126	4	1	1	1	0	778	1	4	0	72	13	0	0	100
fixed	3	2	2	357784	1	2	2	1	0	756	1	4	0	80	14	0	0	100
fixed	3	2	3	359548	6	4	4	1	0	594	1	4	0	96	15	0	0	100
fixed	3	2	4	360932	2	1	1	1	0	655	1	4	0	72	16	0	0	100
fixed	3	2	5	362312	5	3	3	1	0	468	1	4	0	88	17	0	0	100
fixed	3	2	6	363285	6	4	4	1	0	715	1	4	0	96	18	0	0	100
fixed	3	2	7	365002	3	1	1	1	0	610	1	4	0	72	19	0	0	100
fixed	3	2	8	366005	2	3	3	1	0	800	1	4	0	88	20	0	0	100
fixed	3	2	9	367362	3	2	2	1	0	455	1	4	0	80	21	0	0	100
fixed	3	2	10	368189	1	4	4	1	0	531	1	4	0	96	22	0	0	100
fixed	3	2	11	369110	5	2	2	1	0	668	1	4	0	80	23	0	0	100
fixed	3	2	12	370219	4	3	3	1	0	494	1	4	0	88	24	0	0	100
fixed	3	3	1	371263	4	1	1	1	0	801	1	4	0	72	25	0	0	100
fixed	3	3	2	372965	1	2	2	1	0	641	1	4	0	80	26	0	0	100
fixed	3	3	3	374074	6	4	4	1	0	754	1	4	0	96	27	0	0	100
fixed	3	3	4	375351	2	1	1	1	0	692	1	4	0	72	28	0	0	100
fixed	3	3	5	376741	5	3	3	1	0	737	1	4	0	88	29	0	0	100
fixed	3	3	6	377782	6	4	4	1	0	669	1	4	0	96	30	0	0	100
fixed	3	3	7	379266	3	1	1	1	0	654	1	4	0	72	31	0	0	100
fixed	3	3	8	380617	2	3	3	1	0	693	1	4	0	88	32	0	0	100
fixed	3	3	9	381635	3	2	2	1	0	866	1	4	0	80	33	0	0	100
fixed	3	3	10	383516	1	4	4	1	0	690	1	4	0	96	34	0	0	100
fixed	3	3	11	385209	5	2	2	1	0	675	1	4	0	80	35	0	0	100
fixed	3	3	12	386367	4	3	3	1	0	665	1	4	0	88	36	0	0	100
fixed	3	4	1	387637	4	1	1	1	0	596	1	4	0	72	37	0	0	100
fixed	3	4	2	388593	1	2	2	1	0	715	1	4	0	80	38	0	0	100
fixed	3	4	3	390284	6	4	4	1	0	580	1	4	0	96	39	0	0	100
fixed	3	4	4	391817	2	1	1	1	0	603	1	4	0	72	40	0	0	100
fixed	3	4	5	392889	5	3	3	1	0	589	1	4	0	88	41	0	0	100
fixed	3	4	6	394337	6	4	4	1	0	592	1	4	0	96	42	0	0	100
fixed	3	4	7	395605	3	1	1	2	0	1178	2	4	0	72	43	0	0	100
fixed	3	4	8	397121	2	3	3	1	0	818	1	4	0	88	44	0	0	100
fixed	3	4	9	398626	3	2	2	1	0	595	1	4	0	80	45	0	0	100
fixed	3	4	10	399959	1	4	4	1	0	634	1	4	0	96	46	0	0	100
fixed	3	4	11	401185	5	2	2	1	0	614	1	4	0	80	47	0	0	100
fixed	3	4	12	402416	4	3	3	1	0	666	1	4	0	88	48	0	0	100
fixed	3	5	1	403693	4	1	1	1	0	620	1	4	0	72	49	0	0	100
fixed	3	5	2	404739	1	2	2	1	0	864	1	4	0	80	50	0	0	100
fixed	3	5	3	406229	6	4	4	1	0	585	1	4	0	96	51	0	0	100
fixed	3	5	4	407809	2	1	1	1	0	693	1	4	0	72	52	0	0	100
fixed	3	5	5	409156	5	3	3	1	0	748	1	4	0	88	53	0	0	100
fixed	3	5	6	410328	6	4	4	1	0	698	1	4	0	96	54	0	0	100
fixed	3	5	7	411881	3	1	1	1	0	729	1	4	0	72	55	0	0	100
fixed	3	5	8	413466	2	3	3	2	0	1221	2	4	0	88	56	0	0	100
fixed	3	5	9	415189	3	2	2	1	0	757	1	4	0	80	57	0	0	100
fixed	3	5	10	416586	1	4	4	1	0	658	1	4	0	96	58	0	0	100
fixed	3	5	11	417740	5	2	2	1	0	665	1	4	0	80	59	0	0	100
fixed	3	5	12	419406	4	3	3	1	0	722	1	4	0	88	60	0	0	100
fixed	3	6	1	420685	4	1	1	1	0	716	1	4	0	72	61	0	0	100
fixed	3	6	2	422267	1	2	2	1	0	689	1	4	0	80	62	0	0	100
fixed	3	6	3	423807	6	4	4	1	0	703	1	4	0	96	63	0	0	100
fixed	3	6	4	425239	2	1	1	1	0	715	1	4	0	72	64	0	0	100
fixed	3	6	5	426447	5	3	3	1	0	672	1	4	0	88	65	0	0	100
fixed	3	6	6	427870	6	4	4	1	0	684	1	4	0	96	66	0	0	100
fixed	3	6	7	429577	3	1	1	1	0	819	1	4	0	72	67	0	0	100
fixed	3	6	8	431014	2	3	3	1	0	646	1	4	0	88	68	0	0	100
fixed	3	6	9	432199	3	2	2	1	0	548	1	4	0	80	69	0	0	100
fixed	3	6	10	433077	1	4	4	1	0	567	1	4	0	96	70	0	0	100
fixed	3	6	11	434494	5	2	2	1	0	739	1	4	0	80	71	0	0	100
fixed	3	6	12	435937	4	3	3	1	0	862	1	4	0	88	72	0	0	100
fixed	3	7	1	437793	4	1	1	1	0	615	1	4	0	72	73	0	0	100
fixed	3	7	2	438896	1	2	2	1	0	680	1	4	0	80	74	0	0	100
fixed	3	7	3	440433	6	4	4	1	0	615	1	4	0	96	75	0	0	100
fixed	3	7	4	442059	2	1	1	1	0	739	1	4	0	72	76	0	0	100
fixed	3	7	5	443312	5	3	3	1	0	630	1	4	0	88	77	0	0	100
fixed	3	7	6	444403	6	4	4	1	0	784	1	4	0	96	78	0	0	100
fixed	3	7	7	445699	3	1	1	1	0	728	1	4	0	72	79	0	0	100
fixed	3	7	8	447122	2	3	3	1	0	708	1	4	0	88	80	0	0	100
fixed	3	7	9	448581	3	2	2	1	0	431	1	4	0	80	81	0	0	100
fixed	3	7	10	449705	1	4	4	1	0	679	1	4	0	96	82	0	0	100
fixed	3	7	11	450737	5	2	2	1	0	659	1	4	0	80	83	0	0	100
fixed	3	7	12	451936	4	3	3	1	0	728	1	4	0	88	84	0	0	100
fixed	3	8	1	453281	4	1	1	1	0	743	1	4	0	72	85	0	0	100
fixed	3	8	2	454661	1	2	2	1	0	805	1	4	0	80	86	0	0	100
fixed	3	8	3	456449	6	4	4	1	0	593	1	4	0	96	87	0	0	100
fixed	3	8	4	457876	2	1	1	1	0	805	1	4	0	72	88	0	0	100
fixed	3	8	5	459507	5	3	3	1	0	648	1	4	0	88	89	0	0	100
fixed	3	8	6	461133	6	4	4	1	0	667	1	4	0	96	90	0	0	100
fixed	3	8	7	462504	3	1	1	1	0	801	1	4	0	72	91	0	0	100
fixed	3	8	8	464004	2	3	3	1	0	802	1	4	0	88	92	0	0	100
fixed	3	8	9	465368	3	2	2	1	0	632	1	4	0	80	93	0	0	100
fixed	3	8	10	466534	1	4	4	1	0	518	1	4	0	96	94	0	0	100
fixed	3	8	11	467594	5	2	2	1	0	617	1	4	0	80	95	0	0	100
fixed	3	8	12	468988	4	3	3	1	0	718	1	4	0	88	96	0	0	100
fixed	3	9	1	470323	4	1	1	1	0	621	1	4	0	72	97	0	0	100
fixed	3	9	2	471914	1	2	2	1	0	722	1	4	0	80	98	0	0	100
fixed	3	9	3	473595	6	4	4	1	0	603	1	4	0	96	99	0	0	100
fixed	3	9	4	474923	2	1	1	1	0	571	1	4	0	72	100	0	0	100
fixed	3	9	5	476116	5	3	3	1	0	528	1	4	0	88	101	0	0	100
fixed	3	9	6	477388	6	4	4	1	0	658	1	4	0	96	102	0	0	100
fixed	3	9	7	478656	3	1	1	1	0	693	1	4	0	72	103	0	0	100
fixed	3	9	8	479710	2	3	3	1	0	976	1	4	0	88	104	0	0	100
fixed	3	9	9	481474	3	2	2	1	0	517	1	4	0	80	105	0	0	100
fixed	3	9	10	482511	1	4	4	1	0	545	1	4	0	96	106	0	0	100
fixed	3	9	11	483568	5	2	2	1	0	685	1	4	0	80	107	0	0	100
fixed	3	9	12	484730	4	3	3	1	0	699	1	4	0	88	108	0	0	100
fixed	3	10	1	486045	4	1	1	1	0	731	1	4	0	72	109	0	0	100
fixed	3	10	2	487413	1	2	2	1	0	617	1	4	0	80	110	0	0	100
fixed	3	10	3	488558	6	4	4	1	0	577	1	4	0	96	111	0	0	100
fixed	3	10	4	489750	2	1	1	1	0	599	1	4	0	72	112	0	0	100
fixed	3	10	5	490915	5	3	3	1	0	414	1	4	0	88	113	0	0	100
fixed	3	10	6	492189	6	4	4	1	0	656	1	4	0	96	114	0	0	100
fixed	3	10	7	493213	3	1	1	1	0	692	1	4	0	72	115	0	0	100
fixed	3	10	8	494425	2	3	3	1	0	785	1	4	0	88	116	0	0	100
fixed	3	10	9	495549	3	2	2	1	0	513	1	4	0	80	117	0	0	100
fixed	3	10	10	496376	1	4	4	1	0	558	1	4	0	96	118	0	0	100
fixed	3	10	11	497543	5	2	2	1	0	629	1	4	0	80	119	0	0	100
fixed	3	10	12	498735	4	3	3	1	0	586	1	4	0	88	120	0	0	100
fixed	4	1	1	603280	4	1	1	1	0	918	1	4	0	104	1	0	0	100
fixed	4	1	2	605011	1	2	2	1	0	461	1	4	0	112	2	0	0	100
fixed	4	1	3	606041	6	4	4	1	0	545	1	4	0	128	3	0	0	100
fixed	4	1	4	607486	2	1	1	1	0	924	1	4	0	104	4	0	0	100
fixed	4	1	5	609275	5	3	3	1	0	664	1	4	0	120	5	0	0	100
fixed	4	1	6	610638	6	4	4	1	0	782	1	4	0	128	6	0	0	100
fixed	4	1	7	612139	3	1	1	1	0	727	1	4	0	104	7	0	0	100
fixed	4	1	8	613579	2	3	3	1	0	802	1	4	0	120	8	0	0	100
fixed	4	1	9	614759	3	2	2	1	0	560	1	4	0	112	9	0	0	100
fixed	4	1	10	615762	1	4	4	1	0	557	1	4	0	128	10	0	0	100
fixed	4	1	11	617213	5	2	2	1	0	552	1	4	0	112	11	0	0	100
fixed	4	1	12	618529	4	3	3	1	0	728	1	4	0	120	12	0	0	100
fixed	4	2	1	620207	4	1	1	1	0	817	1	4	0	104	13	0	0	100
fixed	4	2	2	621725	1	2	2	1	0	833	1	4	0	112	14	0	0	100
fixed	4	2	3	622867	6	4	4	1	0	696	1	4	0	128	15	0	0	100
fixed	4	2	4	624373	2	1	1	1	0	801	1	4	0	104	16	0	0	100
fixed	4	2	5	626021	5	3	3	1	0	539	1	4	0	120	17	0	0	100
fixed	4	2	6	627021	6	4	4	1	0	657	1	4	0	128	18	0	0	100
fixed	4	2	7	628128	3	1	1	1	0	714	1	4	0	104	19	0	0	100
fixed	4	2	8	629229	2	3	3	1	0	651	1	4	0	120	20	0	0	100
fixed	4	2	9	630294	3	2	2	1	0	470	1	4	0	112	21	0	0	100
fixed	4	2	10	631509	1	4	4	1	0	875	1	4	0	128	22	0	0	100
fixed	4	2	11	633135	5	2	2	1	0	782	1	4	0	112	23	0	0	100
fixed	4	2	12	634730	4	3	3	1	0	658	1	4	0	120	24	0	0	100
fixed	4	3	1	636481	4	1	1	1	0	656	1	4	0	104	25	0	0	100
fixed	4	3	2	637472	1	2	2	1	0	974	1	4	0	112	26	0	0	100
fixed	4	3	3	638992	6	4	4	1	0	494	1	4	0	128	27	0	0	100
fixed	4	3	4	640494	2	1	1	1	0	438	1	4	0	104	28	0	0	100
fixed	4	3	5	641423	5	3	3	1	0	847	1	4	0	120	29	0	0	100
fixed	4	3	6	643253	6	4	4	1	0	721	1	4	0	128	30	0	0	100
fixed	4	3	7	644943	3	1	1	1	0	706	1	4	0	104	31	0	0	100
fixed	4	3	8	646292	2	3	3	1	0	752	1	4	0	120	32	0	0	100
fixed	4	3	9	647608	3	2	2	1	0	512	1	4	0	112	33	0	0	100
fixed	4	3	10	648695	1	4	4	1	0	650	1	4	0	128	34	0	0	100
fixed	4	3	11	649852	5	2	2	1	0	642	1	4	0	112	35	0	0	100
fixed	4	3	12	651102	4	3	3	1	0	732	1	4	0	120	36	0	0	100
fixed	4	4	1	652938	4	1	1	1	0	743	1	4	0	104	37	0	0	100
fixed	4	4	2	654650	1	2	2	1	0	830	1	4	0	112	38	0	0	100
fixed	4	4	3	656189	6	4	4	1	0	693	1	4	0	128	39	0	0	100
fixed	4	4	4	657546	2	1	1	1	0	780	1	4	0	104	40	0	0	100
fixed	4	4	5	658846	5	3	3	1	0	653	1	4	0	120	41	0	0	100
fixed	4	4	6	660279	6	4	4	1	0	656	1	4	0	128	42	0	0	100
fixed	4	4	7	661491	3	1	1	1	0	780	1	4	0	104	43	0	0	100
fixed	4	4	8	663170	2	3	3	1	0	678	1	4	0	120	44	0	0	100
fixed	4	4	9	664702	3	2	2	1	0	588	1	4	0	112	45	0	0	100
fixed	4	4	10	666046	1	4	4	1	0	612	1	4	0	128	46	0	0	100
fixed	4	4	11	667560	5	2	2	1	0	643	1	4	0	112	47	0	0	100
fixed	4	4	12	669023	4	3	3	1	0	782	1	4	0	120	48	0	0	100
fixed	4	5	1	670381	4	1	1	1	0	788	1	4	0	104	49	0	0	100
fixed	4	5	2	671673	1	2	2	1	0	669	1	4	0	112	50	0	0	100
fixed	4	5	3	673075	6	4	4	1	0	554	1	4	0	128	51	0	0	100
fixed	4	5	4	673950	2	1	1	1	0	661	1	4	0	104	52	0	0	100
fixed	4	5	5	675154	5	3	3	1	0	594	1	4	0	120	53	0	0	100
fixed	4	5	6	676519	6	4	4	1	0	624	1	4	0	128	54	0	0	100
fixed	4	5	7	678069	3	1	1	1	0	766	1	4	0	104	55	0	0	100
fixed	4	5	8	679497	2	3	3	1	0	674	1	4	0	120	56	0	0	100
fixed	4	5	9	681030	3	2	2	1	0	809	1	4	0	112	57	0	0	100
fixed	4	5	10	682760	1	4	4	1	0	687	1	4	0	128	58	0	0	100
fixed	4	5	11	684458	5	2	2	1	0	664	1	4	0	112	59	0	0	100
fixed	4	5	12	685657	4	3	3	1	0	613	1	4	0	120	60	0	0	100
fixed	4	6	1	687305	4	1	1	1	0	703	1	4	0	104	61	0	0	100
fixed	4	6	2	688418	1	2	2	1	0	688	1	4	0	112	62	0	0	100
fixed	4	6	3	689982	6	4	4	1	0	614	1	4	0	128	63	0	0	100
fixed	4	6	4	691156	2	1	1	1	0	676	1	4	0	104	64	0	0	100
fixed	4	6	5	692562	5	3	3	1	0	729	1	4	0	120	65	0	0	100
fixed	4	6	6	693750	6	4	4	1	0	695	1	4	0	128	66	0	0	100
fixed	4	6	7	694995	3	1	1	1	0	641	1	4	0	104	67	0	0	100
fixed	4	6	8	696267	2	3	3	1	0	780	1	4	0	120	68	0	0	100
fixed	4	6	9	697949	3	2	2	1	0	692	1	4	0	112	69	0	0	100
fixed	4	6	10	699614	1	4	4	1	0	638	1	4	0	128	70	0	0	100
fixed	4	6	11	700956	5	2	2	1	0	613	1	4	0	112	71	0	0	100
fixed	4	6	12	702492	4	3	3	1	0	716	1	4	0	120	72	0	0	100
fixed	4	7	1	704397	4	1	1	1	0	627	1	4	0	104	73	0	0	100
fixed	4	7	2	705839	1	2	2	1	0	694	1	4	0	112	74	0	0	100
fixed	4	7	3	707122	6	4	4	1	0	560	1	4	0	128	75	0	0	100
fixed	4	7	4	708518	2	1	1	1	0	605	1	4	0	104	76	0	0	100
fixed	4	7	5	709958	5	3	3	1	0	376	1	4	0	120	77	0	0	100
fixed	4	7	6	710914	6	4	4	1	0	655	1	4	0	128	78	0	0	100
fixed	4	7	7	711970	3	1	1	1	0	618	1	4	0	104	79	0	0	100
fixed	4	7	8	713196	2	3	3	1	0	759	1	4	0	120	80	0	0	100
fixed	4	7	9	714689	3	2	2	1	0	671	1	4	0	112	81	0	0	100
fixed	4	7	10	716278	1	4	4	1	0	644	1	4	0	128	82	0	0	100
fixed	4	7	11	717439	5	2	2	1	0	795	1	4	0	112	83	0	0	100
fixed	4	7	12	719098	4	3	3	1	0	524	1	4	0	120	84	0	0	100
fixed	4	8	1	720804	4	1	1	1	0	628	1	4	0	104	85	0	0	100
fixed	4	8	2	722023	1	2	2	2	0	1072	2	4	0	112	86	0	0	100
fixed	4	8	3	723612	6	4	4	1	0	589	1	4	0	128	87	0	0	100
fixed	4	8	4	724632	2	1	1	2	0	1138	2	4	0	104	88	0	0	100
fixed	4	8	5	726169	5	3	3	1	0	705	1	4	0	120	89	0	0	100
fixed	4	8	6	727457	6	4	4	1	0	714	1	4	0	128	90	0	0	100
fixed	4	8	7	728726	3	1	1	1	0	725	1	4	0	104	91	0	0	100
fixed	4	8	8	729842	2	3	3	1	0	701	1	4	0	120	92	0	0	100
fixed	4	8	9	731165	3	2	2	1	0	453	1	4	0	112	93	0	0	100
fixed	4	8	10	732583	1	4	4	1	0	689	1	4	0	128	94	0	0	100
fixed	4	8	11	733651	5	2	2	1	0	612	1	4	0	112	95	0	0	100
fixed	4	8	12	735039	4	3	3	1	0	593	1	4	0	120	96	0	0	100
fixed	4	9	1	736743	4	1	1	1	0	465	1	4	0	104	97	0	0	100
fixed	4	9	2	738125	1	2	2	1	0	655	1	4	0	112	98	0	0	100
fixed	4	9	3	739308	6	4	4	1	0	685	1	4	0	128	99	0	0	100
fixed	4	9	4	740350	2	1	1	1	0	696	1	4	0	104	100	0	0	100
fixed	4	9	5	741760	5	3	3	1	0	373	1	4	0	120	101	0	0	100
fixed	4	9	6	742800	6	4	4	1	0	681	1	4	0	128	102	0	0	100
fixed	4	9	7	744325	3	1	1	1	0	689	1	4	0	104	103	0	0	100
fixed	4	9	8	745730	2	3	3	1	0	788	1	4	0	120	104	0	0	100
fixed	4	9	9	747439	3	2	2	1	0	604	1	4	0	112	105	0	0	100
fixed	4	9	10	748876	1	4	4	1	0	575	1	4	0	128	106	0	0	100
fixed	4	9	11	749891	5	2	2	1	0	724	1	4	0	112	107	0	0	100
fixed	4	9	12	751636	4	3	3	1	0	651	1	4	0	120	108	0	0	100
fixed	4	10	1	753017	4	1	1	1	0	600	1	4	0	104	109	0	0	100
fixed	4	10	2	754257	1	2	2	1	0	1291	1	4	0	112	110	0	0	100
fixed	4	10	3	756439	6	4	4	1	0	655	1	4	0	128	111	0	0	100
fixed	4	10	4	757505	2	1	1	1	0	850	1	4	0	104	112	0	0	100
fixed	4	10	5	759180	5	3	3	1	0	675	1	4	0	120	113	0	0	100
fixed	4	10	6	760153	6	4	4	1	0	706	1	4	0	128	114	0	0	100
fixed	4	10	7	761899	3	1	1	1	0	672	1	4	0	104	115	0	0	100
fixed	4	10	8	763354	2	3	3	1	0	746	1	4	0	120	116	0	0	100
fixed	4	10	9	764911	3	2	2	1	0	456	1	4	0	112	117	0	0	100
fixed	4	10	10	766081	1	4	4	1	0	510	1	4	0	128	118	0	0	100
fixed	4	10	11	767618	5	2	2	1	0	677	1	4	0	112	119	0	0	100
fixed	4	10	12	769090	4	3	3	1	0	583	1	4	0	120	120	0	0	100
fixed	5	1	1	771192	4	1	1	1	0	478	1	4	0	136	1	0	0	100
fixed	5	1	2	772324	1	2	2	1	0	830	1	4	0	144	2	0	0	100
fixed	5	1	3	773906	6	4	4	1	0	539	1	4	0	160	3	0	0	100
fixed	5	1	4	775202	2	1	1	1	0	660	1	4	0	136	4	0	0	100
fixed	5	1	5	776705	5	3	3	1	0	541	1	4	0	152	5	0	0	100
fixed	5	1	6	777831	6	4	4	1	0	621	1	4	0	160	6	0	0	100
fixed	5	1	7	778763	3	1	1	1	0	701	1	4	0	136	7	0	0	100
fixed	5	1	8	779797	2	3	3	1	0	761	1	4	0	152	8	0	0	100
fixed	5	1	9	781187	3	2	2	1	0	503	1	4	0	144	9	0	0	100
fixed	5	1	10	782140	1	4	4	1	0	590	1	4	0	160	10	0	0	100
fixed	5	1	11	783549	5	2	2	1	0	627	1	4	0	144	11	0	0	100
fixed	5	1	12	784724	4	3	3	1	0	673	1	4	0	152	12	0	0	100
fixed	5	2	1	786415	4	1	1	1	0	657	1	4	0	136	13	0	0	100
fixed	5	2	2	787457	1	2	2	1	0	621	1	4	0	144	14	0	0	100
fixed	5	2	3	788786	6	4	4	1	0	573	1	4	0	160	15	0	0	100
fixed	5	2	4	790179	2	1	1	1	0	714	1	4	0	136	16	0	0	100
fixed	5	2	5	791234	5	3	3	1	0	469	1	4	0	152	17	0	0	100
fixed	5	2	6	792468	6	4	4	1	0	585	1	4	0	160	18	0	0	100
fixed	5	2	7	793570	3	1	1	1	0	850	1	4	0	136	19	0	0	100
fixed	5	2	8	794812	2	3	3	1	0	662	1	4	0	152	20	0	0	100
fixed	5	2	9	795834	3	2	2	1	0	459	1	4	0	144	21	0	0	100
fixed	5	2	10	796833	1	4	4	1	0	504	1	4	0	160	22	0	0	100
fixed	5	2	11	798192	5	2	2	1	0	710	1	4	0	144	23	0	0	100
fixed	5	2	12	799893	4	3	3	1	0	791	1	4	0	152	24	0	0	100
fixed	5	3	1	801318	4	1	1	1	0	482	1	4	0	136	25	0	0	100
fixed	5	3	2	802778	1	2	2	1	0	684	1	4	0	144	26	0	0	100
fixed	5	3	3	804366	6	4	4	1	0	617	1	4	0	160	27	0	0	100
fixed	5	3	4	805531	2	1	1	1	0	696	1	4	0	136	28	0	0	100
fixed	5	3	5	806762	5	3	3	1	0	508	1	4	0	152	29	0	0	100
fixed	5	3	6	807816	6	4	4	1	0	639	1	4	0	160	30	0	0	100
fixed	5	3	7	808861	3	1	1	1	0	1091	1	4	0	136	31	0	0	100
fixed	5	3	8	810700	2	3	3	1	0	645	1	4	0	152	32	0	0	100
fixed	5	3	9	811795	3	2	2	1	0	502	1	4	0	144	33	0	0	100
fixed	5	3	10	813086	1	4	4	1	0	472	1	4	0	160	34	0	0	100
fixed	5	3	11	814344	5	2	2	1	0	691	1	4	0	144	35	0	0	100
fixed	5	3	12	815797	4	3	3	1	0	693	1	4	0	152	36	0	0	100
fixed	5	4	1	817592	4	1	1	1	0	897	1	4	0	136	37	0	0	100
fixed	5	4	2	819226	1	2	2	1	0	540	1	4	0	144	38	0	0	100
fixed	5	4	3	820557	6	4	4	1	0	603	1	4	0	160	39	0	0	100
fixed	5	4	4	821470	2	1	1	1	0	725	1	4	0	136	40	0	0	100
fixed	5	4	5	822752	5	3	3	1	0	366	1	4	0	152	41	0	0	100
fixed	5	4	6	823916	6	4	4	1	0	629	1	4	0	160	42	0	0	100
fixed	5	4	7	825507	3	1	1	1	0	650	1	4	0	136	43	0	0	100
fixed	5	4	8	827179	2	3	3	1	0	714	1	4	0	152	44	0	0	100
fixed	5	4	9	828827	3	2	2	1	0	533	1	4	0	144	45	0	0	100
fixed	5	4	10	830014	1	4	4	1	0	675	1	4	0	160	46	0	0	100
fixed	5	4	11	831147	5	2	2	1	0	595	1	4	0	144	47	0	0	100
fixed	5	4	12	832249	4	3	3	1	0	852	1	4	0	152	48	0	0	100
fixed	5	5	1	834366	4	1	1	1	0	802	1	4	0	136	49	0	0	100
fixed	5	5	2	835878	1	2	2	1	0	819	1	4	0	144	50	0	0	100
fixed	5	5	3	837738	6	4	4	1	0	451	1	4	0	160	51	0	0	100
fixed	5	5	4	838839	2	1	1	1	0	381	1	4	0	136	52	0	0	100
fixed	5	5	5	840159	5	3	3	1	0	349	1	4	0	152	53	0	0	100
fixed	5	5	6	840868	6	4	4	1	0	631	1	4	0	160	54	0	0	100
fixed	5	5	7	841788	3	1	1	1	0	816	1	4	0	136	55	0	0	100
fixed	5	5	8	843028	2	3	3	1	0	828	1	4	0	152	56	0	0	100
fixed	5	5	9	844556	3	2	2	1	0	459	1	4	0	144	57	0	0	100
fixed	5	5	10	845523	1	4	4	1	0	458	1	4	0	160	58	0	0	100
fixed	5	5	11	846987	5	2	2	1	0	668	1	4	0	144	59	0	0	100
fixed	5	5	12	847994	4	3	3	1	0	593	1	4	0	152	60	0	0	100
fixed	5	6	1	849554	4	1	1	1	0	647	1	4	0	136	61	0	0	100
fixed	5	6	2	850719	1	2	2	1	0	550	1	4	0	144	62	0	0	100
fixed	5	6	3	852207	6	4	4	1	0	631	1	4	0	160	63	0	0	100
fixed	5	6	4	853747	2	1	1	1	0	677	1	4	0	136	64	0	0	100
fixed	5	6	5	855016	5	3	3	1	0	624	1	4	0	152	65	0	0	100
fixed	5	6	6	856039	6	4	4	1	0	796	1	4	0	160	66	0	0	100
fixed	5	6	7	857539	3	1	1	1	0	765	1	4	0	136	67	0	0	100
fixed	5	6	8	858914	2	3	3	1	0	851	1	4	0	152	68	0	0	100
fixed	5	6	9	860471	3	2	2	1	0	465	1	4	0	144	69	0	0	100
fixed	5	6	10	861477	1	4	4	1	0	494	1	4	0	160	70	0	0	100
fixed	5	6	11	862291	5	2	2	1	0	612	1	4	0	144	71	0	0	100
fixed	5	6	12	863220	4	3	3	1	0	740	1	4	0	152	72	0	0	100
fixed	5	7	1	864741	4	1	1	1	0	724	1	4	0	136	73	0	0	100
fixed	5	7	2	866132	1	2	2	1	0	713	1	4	0	144	74	0	0	100
fixed	5	7	3	867710	6	4	4	1	0	550	1	4	0	160	75	0	0	100
fixed	5	7	4	869257	2	1	1	1	0	677	1	4	0	136	76	0	0	100
fixed	5	7	5	870780	5	3	3	1	0	652	1	4	0	152	77	0	0	100
fixed	5	7	6	871986	6	4	4	1	0	665	1	4	0	160	78	0	0	100
fixed	5	7	7	873548	3	1	1	1	0	743	1	4	0	136	79	0	0	100
fixed	5	7	8	874651	2	3	3	1	0	624	1	4	0	152	80	0	0	100
fixed	5	7	9	875849	3	2	2	1	0	461	1	4	0	144	81	0	0	100
fixed	5	7	10	876714	1	4	4	1	0	417	1	4	0	160	82	0	0	100
fixed	5	7	11	877693	5	2	2	1	0	631	1	4	0	144	83	0	0	100
fixed	5	7	12	878915	4	3	3	1	0	468	1	4	0	152	84	0	0	100
fixed	5	8	1	880296	4	1	1	1	0	689	1	4	0	136	85	0	0	100
fixed	5	8	2	881433	1	2	2	1	0	649	1	4	0	144	86	0	0	100
fixed	5	8	3	882576	6	4	4	1	0	697	1	4	0	160	87	0	0	100
fixed	5	8	4	883941	2	1	1	1	0	727	1	4	0	136	88	0	0	100
fixed	5	8	5	885106	5	3	3	1	0	917	1	4	0	152	89	0	0	100
fixed	5	8	6	886921	6	4	4	1	0	545	1	4	0	160	90	0	0	100
fixed	5	8	7	887806	3	1	1	1	0	915	1	4	0	136	91	0	0	100
fixed	5	8	8	889508	2	3	3	1	0	915	1	4	0	152	92	0	0	100
fixed	5	8	9	891329	3	2	2	1	0	646	1	4	0	144	93	0	0	100
fixed	5	8	10	892949	1	4	4	1	0	601	1	4	0	160	94	0	0	100
fixed	5	8	11	894067	5	2	2	1	0	746	1	4	0	144	95	0	0	100
fixed	5	8	12	895499	4	3	3	1	0	685	1	4	0	152	96	0	0	100
fixed	5	9	1	897254	4	1	1	1	0	739	1	4	0	136	97	0	0	100
fixed	5	9	2	898429	1	2	2	1	0	513	1	4	0	144	98	0	0	100
fixed	5	9	3	899232	6	4	4	1	0	639	1	4	0	160	99	0	0	100
fixed	5	9	4	900682	2	1	1	1	0	666	1	4	0	136	100	0	0	100
fixed	5	9	5	902274	5	3	3	1	0	702	1	4	0	152	101	0	0	100
fixed	5	9	6	903422	6	4	4	1	0	725	1	4	0	160	102	0	0	100
fixed	5	9	7	904835	3	1	1	1	0	714	1	4	0	136	103	0	0	100
fixed	5	9	8	906355	2	3	3	1	0	786	1	4	0	152	104	0	0	100
fixed	5	9	9	907508	3	2	2	1	0	761	1	4	0	144	105	0	0	100
fixed	5	9	10	908755	1	4	4	1	0	524	1	4	0	160	106	0	0	100
fixed	5	9	11	910004	5	2	2	1	0	599	1	4	0	144	107	0	0	100
fixed	5	9	12	910930	4	3	3	1	0	632	1	4	0	152	108	0	0	100
fixed	5	10	1	912541	4	1	1	1	0	579	1	4	0	136	109	0	0	100
fixed	5	10	2	913613	1	2	2	1	0	662	1	4	0	144	110	0	0	100
fixed	5	10	3	914745	6	4	4	1	0	662	1	4	0	160	111	0	0	100
fixed	5	10	4	915835	2	1	1	1	0	816	1	4	0	136	112	0	0	100
fixed	5	10	5	917305	5	3	3	1	0	577	1	4	0	152	113	0	0	100
fixed	5	10	6	918454	6	4	4	1	0	641	1	4	0	160	114	0	0	100
fixed	5	10	7	919863	3	1	1	1	0	637	1	4	0	136	115	0	0	100
fixed	5	10	8	920808	2	3	3	1	0	821	1	4	0	152	116	0	0	100
fixed	5	10	9	921916	3	2	2	1	0	486	1	4	0	144	117	0	0	100
fixed	5	10	10	922802	1	4	4	1	0	545	1	4	0	160	118	0	0	100
fixed	5	10	11	923725	5	2	2	1	0	618	1	4	0	144	119	0	0	100
fixed	5	10	12	925046	4	3	3	1	0	698	1	4	0	152	120	0	0	100
random	6	1	1	1036978	6	1	1	1	0	788	1	4	0	168	1	0	0	100
random	6	1	2	1038155	4	4	4	1	0	843	1	4	0	192	2	0	0	100
random	6	1	3	1039458	2	2	2	1	0	692	1	4	0	176	3	0	0	100
random	6	1	4	1040577	3	3	3	1	0	468	1	4	0	184	4	0	0	100
random	6	1	5	1041597	5	2	2	1	0	833	1	4	0	176	5	0	0	100
random	6	1	6	1042911	1	4	4	1	0	665	1	4	0	192	6	0	0	100
random	6	1	7	1044381	6	1	1	1	0	739	1	4	0	168	7	0	0	100
random	6	1	8	1045872	2	3	3	1	0	740	1	4	0	184	8	0	0	100
random	6	1	9	1047604	4	2	2	1	0	722	1	4	0	176	9	0	0	100
random	6	1	10	1049004	1	1	1	1	0	712	1	4	0	168	10	0	0	100
random	6	1	11	1050066	5	4	4	1	0	826	1	4	0	192	11	0	0	100
random	6	1	12	1051285	3	3	3	1	0	951	1	4	0	184	12	0	0	100
random	6	1	13	1053053	5	2	2	1	0	756	1	4	0	176	13	0	0	100
random	6	1	14	1054200	1	4	4	1	0	860	1	4	0	192	14	0	0	100
random	6	1	15	1055658	3	1	1	1	0	837	1	4	0	168	15	0	0	100
random	6	1	16	1057351	4	3	3	1	0	830	1	4	0	184	16	0	0	100
random	6	1	17	1059159	6	4	4	1	0	697	1	4	0	192	17	0	0	100
random	6	1	18	1060466	2	1	1	1	0	738	1	4	0	168	18	0	0	100
random	6	1	19	1062153	5	3	3	1	0	699	1	4	0	184	19	0	0	100
random	6	1	20	1063553	2	2	2	1	0	687	1	4	0	176	20	0	0	100
random	6	1	21	1065125	3	3	3	1	0	757	1	4	0	184	21	0	0	100
random	6	1	22	1066811	6	1	1	1	0	677	1	4	0	168	22	0	0	100
random	6	1	23	1068118	4	2	2	1	0	726	1	4	0	176	23	0	0	100
random	6	1	24	1069538	1	4	4	1	0	594	1	4	0	192	24	0	0	100
random	6	1	25	1071164	4	3	3	1	0	1101	1	4	0	184	25	0	0	100
random	6	1	26	1072677	2	1	1	1	0	701	1	4	0	168	26	0	0	100
random	6	1	27	1074010	5	2	2	1	0	900	1	4	0	176	27	0	0	100
random	6	1	28	1075417	6	4	4	1	0	497	1	4	0	192	28	0	0	100
random	6	1	29	1076393	1	3	3	1	0	735	1	4	0	184	29	0	0	100
random	6	1	30	1078164	5	2	2	1	0	676	1	4	0	176	30	0	0	100
random	6	1	31	1079792	2	1	1	1	0	776	1	4	0	168	31	0	0	100
random	6	1	32	1081050	3	3	3	1	0	626	1	4	0	184	32	0	0	100
random	6	1	33	1082019	6	4	4	1	0	665	1	4	0	192	33	0	0	100
random	6	1	34	1083304	4	2	2	1	0	691	1	4	0	176	34	0	0	100
random	6	1	35	1084919	3	4	4	1	0	798	1	4	0	192	35	0	0	100
random	6	1	36	1086173	1	1	1	1	0	993	1	4	0	168	36	0	0	100
random	6	1	37	1088039	3	4	4	1	0	946	1	4	0	192	37	0	0	100
random	6	1	38	1089378	5	3	3	1	0	1049	1	4	0	184	38	0	0	100
random	6	1	39	1091363	6	1	1	1	0	925	1	4	0	168	39	0	0	100
random	6	1	40	1093208	1	2	2	1	0	839	1	4	0	176	40	0	0	100
random	6	1	41	1094569	2	3	3	1	0	477	1	4	0	184	41	0	0	100
random	6	1	42	1095367	4	4	4	1	0	700	1	4	0	192	42	0	0	100
random	6	1	43	1096421	1	2	2	1	0	607	1	4	0	176	43	0	0	100
random	6	1	44	1097619	6	3	3	1	0	620	1	4	0	184	44	0	0	100
random	6	1	45	1099165	3	1	1	1	0	659	1	4	0	168	45	0	0	100
random	6	1	46	1100825	4	4	4	1	0	709	1	4	0	192	46	0	0	100
random	6	1	47	1102119	2	2	2	1	0	662	1	4	0	176	47	0	0	100
random	6	1	48	1103118	5	1	1	2	0	1100	2	4	0	168	48	0	0	100
random	6	1	49	1105348	2	3	3	1	0	1013	1	4	0	184	49	0	0	100
random	6	1	50	1106772	3	1	1	1	0	769	1	4	0	168	50	0	0	100
random	6	1	51	1108333	1	4	4	1	0	711	1	4	0	192	51	0	0	100
random	6	1	52	1109777	5	3	3	1	0	705	1	4	0	184	52	0	0	100
random	6	1	53	1111296	3	2	2	1	0	593	1	4	0	176	53	0	0	100
random	6	1	54	1112895	6	4	4	1	0	774	1	4	0	192	54	0	0	100
random	6	1	55	1114136	4	2	2	1	0	737	1	4	0	176	55	0	0	100
random	6	1	56	1115267	1	1	1	1	0	745	1	4	0	168	56	0	0	100
random	6	1	57	1116880	5	4	4	1	0	1012	1	4	0	192	57	0	0	100
random	6	1	58	1118803	2	1	1	1	0	515	1	4	0	168	58	0	0	100
random	6	1	59	1119688	6	2	2	1	0	766	1	4	0	176	59	0	0	100
random	6	1	60	1121135	4	3	3	1	0	544	1	4	0	184	60	0	0	100
random	6	1	61	1122389	1	2	2	1	0	811	1	4	0	176	61	0	0	100
random	6	1	62	1123623	6	4	4	1	0	615	1	4	0	192	62	0	0	100
random	6	1	63	1124656	4	1	1	1	0	803	1	4	0	168	63	0	0	100
random	6	1	64	1126055	2	2	2	1	0	832	1	4	0	176	64	0	0	100
random	6	1	65	1127383	4	3	3	1	0	655	1	4	0	184	65	0	0	100
random	6	1	66	1128561	3	1	1	1	0	790	1	4	0	168	66	0	0	100
random	6	1	67	1130384	1	3	3	1	0	897	1	4	0	184	67	0	0	100
random	6	1	68	1131813	5	4	4	1	0	716	1	4	0	192	68	0	0	100
random	6	1	69	1133540	2	2	2	1	0	963	1	4	0	176	69	0	0	100
random	6	1	70	1135528	3	1	1	1	0	767	1	4	0	168	70	0	0	100
random	6	1	71	1137290	5	4	4	1	0	684	1	4	0	192	71	0	0	100
random	6	1	72	1138852	6	3	3	1	0	930	1	4	0	184	72	0	0	100
random	6	1	73	1140968	2	1	1	1	0	792	1	4	0	168	73	0	0	100
random	6	1	74	1142632	5	3	3	1	0	730	1	4	0	184	74	0	0	100
random	6	1	75	1144202	1	4	4	1	0	560	1	4	0	192	75	0	0	100
random	6	1	76	1145581	6	2	2	1	0	893	1	4	0	176	76	0	0	100
random	6	1	77	1147276	2	1	1	1	0	813	1	4	0	168	77	0	0	100
random	6	1	78	1148373	4	4	4	1	0	679	1	4	0	192	78	0	0	100
random	6	1	79	1149654	3	2	2	1	0	720	1	4	0	176	79	0	0	100
random	6	1	80	1151132	4	3	3	1	0	482	1	4	0	184	80	0	0	100
random	6	1	81	1152199	1	4	4	1	0	885	1	4	0	192	81	0	0	100
random	6	1	82	1153633	5	1	1	1	0	712	1	4	0	168	82	0	0	100
random	6	1	83	1154789	3	2	2	1	0	687	1	4	0	176	83	0	0	100
random	6	1	84	1156129	6	3	3	1	0	662	1	4	0	184	84	0	0	100
random	6	1	85	1158010	3	2	2	1	0	726	1	4	0	176	85	0	0	100
random	6	1	86	1159750	1	3	3	1	0	661	1	4	0	184	86	0	0	100
random	6	1	87	1160862	4	4	4	1	0	750	1	4	0	192	87	0	0	100
random	6	1	88	1162571	2	1	1	1	0	685	1	4	0	168	88	0	0	100
random	6	1	89	1163697	6	4	4	1	0	694	1	4	0	192	89	0	0	100
random	6	1	90	1164829	3	3	3	1	0	806	1	4	0	184	90	0	0	100
random	6	1	91	1166314	5	4	4	1	0	678	1	4	0	192	91	0	0	100
random	6	1	92	1167686	1	2	2	1	0	725	1	4	0	176	92	0	0	100
random	6	1	93	1168895	5	1	1	1	0	842	1	4	0	168	93	0	0	100
random	6	1	94	1170031	4	3	3	1	0	858	1	4	0	184	94	0	0	100
random	6	1	95	1171602	6	1	1	2	0	1207	2	4	0	168	95	0	0	100
random	6	1	96	1173608	2	2	2	1	0	810	1	4	0	176	96	0	0	100
random	6	1	97	1175019	4	3	3	1	0	886	1	4	0	184	97	0	0	100
random	6	1	98	1176470	3	2	2	1	0	688	1	4	0	176	98	0	0	100
random	6	1	99	1178130	6	3	3	1	0	706	1	4	0	184	99	0	0	100
random	6	1	100	1179473	1	4	4	1	0	658	1	4	0	192	100	0	0	100
random	6	1	101	1180889	4	1	1	1	0	566	1	4	0	168	101	0	0	100
random	6	1	102	1182335	5	2	2	1	0	928	1	4	0	176	102	0	0	100
random	6	1	103	1183738	2	4	4	1	0	885	1	4	0	192	103	0	0	100
random	6	1	104	1185032	3	1	1	1	0	750	1	4	0	168	104	0	0	100
random	6	1	105	1186387	1	3	3	1	0	733	1	4	0	184	105	0	0	100
random	6	1	106	1187491	2	2	2	1	0	678	1	4	0	176	106	0	0	100
random	6	1	107	1188630	5	4	4	1	0	630	1	4	0	192	107	0	0	100
random	6	1	108	1189928	6	1	1	1	0	727	1	4	0	168	108	0	0	100
random	6	1	109	1191258	5	4	4	1	0	958	1	4	0	192	109	0	0	100
random	6	1	110	1192629	6	3	3	2	0	1220	2	4	0	184	110	0	0	100
random	6	1	111	1194535	2	2	2	1	0	675	1	4	0	176	111	0	0	100
random	6	1	112	1196248	3	1	1	1	0	771	1	4	0	168	112	0	0	100
random	6	1	113	1197710	1	2	2	1	0	765	1	4	0	176	113	0	0	100
random	6	1	114	1199400	2	3	3	1	0	789	1	4	0	184	114	0	0	100
random	6	1	115	1200775	3	1	1	1	0	643	1	4	0	168	115	0	0	100
random	6	1	116	1201877	4	4	4	1	0	773	1	4	0	192	116	0	0	100
random	6	1	117	1203543	6	1	1	1	0	630	1	4	0	168	117	0	0	100
random	6	1	118	1204660	5	3	3	1	0	671	1	4	0	184	118	0	0	100
random	6	1	119	1206293	1	4	4	1	0	681	1	4	0	192	119	0	0	100
random	6	1	120	1207289	4	2	2	1	0	679	1	4	0	176	120	0	0	100
fixed	7	1	1	1208833	4	1	1	1	0	798	1	4	0	200	1	0	0	100
fixed	7	1	2	1210650	1	2	2	1	0	737	1	4	0	208	2	0	0	100
fixed	7	1	3	1212394	6	4	4	1	0	663	1	4	0	224	3	0	0	100
fixed	7	1	4	1213472	2	1	1	1	0	626	1	4	0	200	4	0	0	100
fixed	7	1	5	1214444	5	3	3	1	0	361	1	4	0	216	5	0	0	100
fixed	7	1	6	1215542	6	4	4	1	0	634	1	4	0	224	6	0	0	100
fixed	7	1	7	1216603	3	1	1	1	0	813	1	4	0	200	7	0	0	100
fixed	7	1	8	1218378	2	3	3	1	0	954	1	4	0	216	8	0	0	100
fixed	7	1	9	1219723	3	2	2	1	0	569	1	4	0	208	9	0	0	100
fixed	7	1	10	1220762	1	4	4	1	0	684	1	4	0	224	10	0	0	100
fixed	7	1	11	1222183	5	2	2	1	0	616	1	4	0	208	11	0	0	100
fixed	7	1	12	1223819	4	3	3	1	0	740	1	4	0	216	12	0	0	100
fixed	7	2	1	1225175	4	1	1	1	0	746	1	4	0	200	1	0	0	8
fixed	7	2	2	1226461	1	2	2	1	0	691	1	4	0	208	2	0	0	14
fixed	7	2	3	1227526	6	4	4	1	0	622	1	4	0	224	3	0	0	20
fixed	7	2	4	1228956	2	1	1	1	0	674	1	4	0	200	4	0	0	25
fixed	7	2	5	1230473	5	3	3	1	0	649	1	4	0	216	5	0	0	29
fixed	7	2	6	1231772	6	4	4	1	0	642	1	4	0	224	6	0	0	33
fixed	7	2	7	1233416	3	1	1	1	0	757	1	4	0	200	7	0	0	37
fixed	7	2	8	1235022	2	3	3	1	0	745	1	4	0	216	8	0	0	40
fixed	7	2	9	1236563	3	2	2	1	0	608	1	4	0	208	9	0	0	43
fixed	7	2	10	1238102	1	4	4	1	0	679	1	4	0	224	10	0	0	45
fixed	7	2	11	1239781	5	2	2	1	0	751	1	4	0	208	11	0	0	48
fixed	7	2	12	1241414	4	3	3	1	0	722	1	4	0	216	12	0	0	50
fixed	7	3	1	1242918	4	1	1	1	0	674	1	4	0	200	1	0	0	4
fixed	7	3	2	1244321	1	2	2	2	0	1247	2	4	0	208	2	0	0	8
fixed	7	3	3	1246539	6	4	4	1	0	889	1	4	0	224	3	0	0	11
fixed	7	3	4	1247822	2	1	1	1	0	651	1	4	0	200	4	0	0	14
fixed	7	3	5	1249284	5	3	3	1	0	764	1	4	0	216	5	0	0	17
fixed	7	3	6	1250622	6	4	4	1	0	756	1	4	0	224	6	0	0	20
fixed	7	3	7	1251733	3	1	1	1	0	829	1	4	0	200	7	0	0	23
fixed	7	3	8	1253528	2	3	3	1	0	793	1	4	0	216	8	0	0	25
fixed	7	3	9	1255335	3	2	2	1	0	500	1	4	0	208	9	0	0	27
fixed	7	3	10	1256258	1	4	4	1	0	629	1	4	0	224	10	0	0	29
fixed	7	3	11	1257174	5	2	2	1	0	606	1	4	0	208	11	0	0	31
fixed	7	3	12	1258245	4	3	3	1	0	785	1	4	0	216	12	0	0	33
fixed	7	4	1	1260094	4	1	1	1	0	571	1	4	0	200	1	0	0	3
fixed	7	4	2	1261650	1	2	2	1	0	793	1	4	0	208	2	0	0	5
fixed	7	4	3	1263093	6	4	4	1	0	532	1	4	0	224	3	0	0	8
fixed	7	4	4	1264081	2	1	1	1	0	658	1	4	0	200	4	0	0	10
fixed	7	4	5	1265227	5	3	3	1	0	497	1	4	0	216	5	0	0	12
fixed	7	4	6	1266620	6	4	4	1	0	703	1	4	0	224	6	0	0	14
fixed	7	4	7	1268298	3	1	1	1	0	647	1	4	0	200	7	0	0	16
fixed	7	4	8	1269924	2	3	3	1	0	866	1	4	0	216	8	0	0	18
fixed	7	4	9	1271114	3	2	2	1	0	752	1	4	0	208	9	0	0	20
fixed	7	4	10	1272507	1	4	4	1	0	669	1	4	0	224	10	0	0	22
fixed	7	4	11	1273925	5	2	2	1	0	745	1	4	0	208	11	0	0	23
fixed	7	4	12	1275534	4	3	3	1	0	717	1	4	0	216	12	0	0	25
fixed	7	5	1	1277320	4	1	1	1	0	865	1	4	0	200	1	0	0	2
fixed	7	5	2	1279183	1	2	2	1	0	738	1	4	0	208	2	0	0	4
fixed	7	5	3	1280952	6	4	4	1	0	639	1	4	0	224	3	0	0	6
fixed	7	5	4	1281948	2	1	1	1	0	709	1	4	0	200	4	0	0	8
fixed	7	5	5	1283153	5	3	3	1	0	650	1	4	0	216	5	0	0	9
fixed	7	5	6	1284280	6	4	4	1	0	739	1	4	0	224	6	0	0	11
fixed	7	5	7	1286002	3	1	1	1	0	906	1	4	0	200	7	0	0	13
fixed	7	5	8	1287850	2	3	3	1	0	691	1	4	0	216	8	0	0	14
fixed	7	5	9	1289576	3	2	2	1	0	570	1	4	0	208	9	0	0	16
fixed	7	5	10	1290898	1	4	4	1	0	522	1	4	0	224	10	0	0	17
fixed	7	5	11	1292202	5	2	2	1	0	659	1	4	0	208	11	0	0	19
fixed	7	5	12	1293211	4	3	3	1	0	608	1	4	0	216	12	0	0	20
fixed	7	6	1	1295030	4	1	1	1	0	803	1	4	0	200	1	0	0	2
fixed	7	6	2	1296811	1	2	2	1	0	776	1	4	0	208	2	0	0	3
fixed	7	6	3	1298114	6	4	4	1	0	729	1	4	0	224	3	0	0	5
fixed	7	6	4	1299231	2	1	1	1	0	657	1	4	0	200	4	0	0	6
fixed	7	6	5	1300778	5	3	3	1	0	551	1	4	0	216	5	0	0	8
fixed	7	6	6	1301878	6	4	4	1	0	593	1	4	0	224	6	0	0	9
fixed	7	6	7	1302808	3	1	1	1	0	690	1	4	0	200	7	0	0	10
fixed	7	6	8	1304114	2	3	3	1	0	755	1	4	0	216	8	0	0	12
fixed	7	6	9	1305638	3	2	2	1	0	529	1	4	0	208	9	0	0	13
fixed	7	6	10	1306578	1	4	4	1	0	698	1	4	0	224	10	0	0	14
fixed	7	6	11	1308187	5	2	2	1	0	806	1	4	0	208	11	0	0	15
fixed	7	6	12	1309811	4	3	3	1	0	673	1	4	0	216	12	0	0	17
fixed	7	7	1	1311637	4	1	1	1	0	683	1	4	0	200	1	0	0	1
fixed	7	7	2	1313352	1	2	2	1	0	715	1	4	0	208	2	0	0	3
fixed	7	7	3	1314353	6	4	4	1	0	649	1	4	0	224	3	0	0	4
fixed	7	7	4	1315968	2	1	1	1	0	660	1	4	0	200	4	0	0	5
fixed	7	7	5	1316987	5	3	3	1	0	593	1	4	0	216	5	0	0	6
fixed	7	7	6	1318355	6	4	4	1	0	647	1	4	0	224	6	0	0	8
fixed	7	7	7	1319733	3	1	1	1	0	717	1	4	0	200	7	0	0	9
fixed	7	7	8	1321150	2	3	3	1	0	625	1	4	0	216	8	0	0	10
fixed	7	7	9	1322757	3	2	2	1	0	565	1	4	0	208	9	0	0	11
fixed	7	7	10	1323708	1	4	4	1	0	564	1	4	0	224	10	0	0	12
fixed	7	7	11	1325301	5	2	2	1	0	681	1	4	0	208	11	0	0	13
fixed	7	7	12	1326297	4	3	3	1	0	607	1	4	0	216	12	0	0	14
fixed	7	8	1	1327894	4	1	1	1	0	683	1	4	0	200	1	0	0	1
fixed	7	8	2	1329087	1	2	2	1	0	713	1	4	0	208	2	0	0	2
fixed	7	8	3	1330361	6	4	4	1	0	771	1	4	0	224	3	0	0	3
fixed	7	8	4	1331772	2	1	1	1	0	719	1	4	0	200	4	0	0	5
fixed	7	8	5	1332925	5	3	3	1	0	574	1	4	0	216	5	0	0	6
fixed	7	8	6	1333898	6	4	4	1	0	645	1	4	0	224	6	0	0	7
fixed	7	8	7	1335016	3	1	1	1	0	653	1	4	0	200	7	0	0	8
fixed	7	8	8	1336107	2	3	3	1	0	799	1	4	0	216	8	0	0	9
fixed	7	8	9	1337591	3	2	2	1	0	616	1	4	0	208	9	0	0	10
fixed	7	8	10	1339145	1	4	4	1	0	663	1	4	0	224	10	0	0	11
fixed	7	8	11	1340701	5	2	2	1	0	701	1	4	0	208	11	0	0	12
fixed	7	8	12	1341966	4	3	3	1	0	471	1	4	0	216	12	0	0	13
fixed	7	9	1	1342997	4	1	1	1	0	587	1	4	0	200	1	0	0	1
fixed	7	9	2	1344459	1	2	2	1	0	542	1	4	0	208	2	0	0	2
fixed	7	9	3	1345703	6	4	4	1	0	713	1	4	0	224	3	0	0	3
fixed	7	9	4	1347176	2	1	1	1	0	434	1	4	0	200	4	0	0	4
fixed	7	9	5	1348178	5	3	3	1	0	816	1	4	0	216	5	0	0	5
fixed	7	9	6	1349870	6	4	4	1	0	656	1	4	0	224	6	0	0	6
fixed	7	9	7	1351546	3	1	1	1	0	674	1	4	0	200	7	0	0	7
fixed	7	9	8	1353143	2	3	3	1	0	862	1	4	0	216	8	0	0	8
fixed	7	9	9	1354982	3	2	2	1	0	624	1	4	0	208	9	0	0	9
fixed	7	9	10	1356039	1	4	4	1	0	571	1	4	0	224	10	0	0	9
fixed	7	9	11	1357292	5	2	2	1	0	606	1	4	0	208	11	0	0	10
fixed	7	9	12	1358891	4	3	3	1	0	690	1	4	0	216	12	0	0	11
fixed	7	10	1	1360474	4	1	1	1	0	799	1	4	0	200	1	0	0	1
fixed	7	10	2	1361920	1	2	2	1	0	570	1	4	0	208	2	0	0	2
fixed	7	10	3	1363371	6	4	4	1	0	437	1	4	0	224	3	0	0	3
fixed	7	10	4	1364235	2	1	1	1	0	664	1	4	0	200	4	0	0	4
fixed	7	10	5	1365266	5	3	3	1	0	604	1	4	0	216	5	0	0	4
fixed	7	10	6	1366594	6	4	4	1	0	692	1	4	0	224	6	0	0	5
fixed	7	10	7	1368061	3	1	1	1	0	654	1	4	0	200	7	0	0	6
fixed	7	10	8	1369366	2	3	3	1	0	550	1	4	0	216	8	0	0	7
fixed	7	10	9	1370829	3	2	2	2	0	1009	2	4	0	208	9	0	0	8
fixed	7	10	10	1372643	1	4	4	1	0	708	1	4	0	224	10	0	0	8
fixed	7	10	11	1373850	5	2	2	1	0	713	1	4	0	208	11	0	0	9
fixed	7	10	12	1375440	4	3	3	1	0	710	1	4	0	216	12	0	0	10
