type	block	sequ.	trial	time	Pos.	Color	Button	NumRsp	Resp_1	RT_1	R_Code	Resp_2	RT_2	Trigg.	n_hit	n_inc	n_miss	score_%

random	1	1	1	30095	6	1	1	1	0	1504	1	4	0	8	1	0	0	100
random	1	1	2	32533	4	4	4	1	0	945	1	4	0	32	2	0	0	100
random	1	1	3	34365	2	2	2	1	0	1195	1	4	0	16	3	0	0	100
random	1	1	4	36056	3	3	3	1	0	1028	1	4	0	24	4	0	0	100
random	1	1	5	38085	5	2	2	1	0	1269	1	4	0	16	5	0	0	100
random	1	1	6	40196	1	4	4	1	0	764	1	4	0	32	6	0	0	100
random	1	1	7	41412	6	1	1	1	0	1256	1	4	0	8	7	0	0	100
random	1	1	8	43385	2	3	3	1	0	1613	1	4	0	24	8	0	0	100
random	1	1	9	45915	4	2	2	1	0	890	1	4	0	16	9	0	0	100
random	1	1	10	47234	1	1	1	1	0	1074	1	4	0	8	10	0	0	100
random	1	1	11	49099	5	4	4	1	0	971	1	4	0	32	11	0	0	100
random	1	1	12	50510	3	3	3	1	0	952	1	4	0	24	12	0	0	100
random	1	1	13	52183	5	2	2	1	0	1056	1	4	0	16	13	0	0	100
random	1	1	14	54260	1	4	4	1	0	840	1	4	0	32	14	0	0	100
random	1	1	15	56014	3	1	1	1	0	702	1	4	0	8	15	0	0	100
random	1	1	16	57540	4	3	0	1	2	0	3	4	0	24	15	0	1	94
random	1	1	17	60848	6	4	4	1	0	809	1	4	0	32	16	0	1	94
random	1	1	18	62562	2	1	1	1	0	945	1	4	0	8	17	0	1	94
random	1	1	19	64217	5	3	3	1	0	1299	1	4	0	24	18	0	1	95
random	1	1	20	66344	2	2	2	1	0	577	1	4	0	16	19	0	1	95
random	1	1	21	67715	3	3	3	1	0	1247	1	4	0	24	20	0	1	95
random	1	1	22	69738	6	1	1	1	0	745	1	4	0	8	21	0	1	95
random	1	1	23	71278	4	2	2	1	0	824	1	4	0	16	22	0	1	96
random	1	1	24	72730	1	4	4	1	0	522	1	4	0	32	23	0	1	96
random	1	1	25	74506	4	3	3	1	0	1415	1	4	0	24	24	0	1	96
random	1	1	26	76340	2	1	1	1	0	913	1	4	0	8	25	0	1	96
random	1	1	27	78086	5	2	2	1	0	887	1	4	0	16	26	0	1	96
random	1	1	28	79684	6	4	4	1	0	667	1	4	0	32	27	0	1	96
random	1	1	29	80910	1	3	3	1	0	1152	1	4	0	24	28	0	1	97
random	1	1	30	82938	5	2	2	1	0	698	1	4	0	16	29	0	1	97
random	1	1	31	84172	2	1	1	1	0	670	1	4	0	8	30	0	1	97
random	1	1	32	85244	3	3	3	1	0	960	1	4	0	24	31	0	1	97
random	1	1	33	87084	6	4	4	1	0	682	1	4	0	32	32	0	1	97
random	1	1	34	88555	4	2	2	1	0	819	1	4	0	16	33	0	1	97
random	1	1	35	90066	3	4	4	1	0	868	1	4	0	32	34	0	1	97
random	1	1	36	91876	1	1	1	1	0	927	1	4	0	8	35	0	1	97
random	1	1	37	93586	3	4	4	1	0	846	1	4	0	32	36	0	1	97
random	1	1	38	95005	5	3	3	1	0	1122	1	4	0	24	37	0	1	97
random	1	1	39	97025	6	1	1	1	0	677	1	4	0	8	38	0	1	97
random	1	1	40	98513	1	2	2	1	0	758	1	4	0	16	39	0	1	98
random	1	1	41	99609	2	3	3	1	0	816	1	4	0	24	40	0	1	98
random	1	1	42	101153	4	4	4	1	0	790	1	4	0	32	41	0	1	98
random	1	1	43	102855	1	2	2	1	0	758	1	4	0	16	42	0	1	98
random	1	1	44	104305	6	3	3	1	0	785	1	4	0	24	43	0	1	98
random	1	1	45	106129	3	1	1	1	0	756	1	4	0	8	44	0	1	98
random	1	1	46	107487	4	4	4	1	0	458	1	4	0	32	45	0	1	98
random	1	1	47	108439	2	2	2	1	0	1049	1	4	0	16	46	0	1	98
random	1	1	48	109786	5	1	1	1	0	825	1	4	0	8	47	0	1	98
random	1	1	49	111547	2	3	3	1	0	966	1	4	0	24	48	0	1	98
random	1	1	50	113272	3	1	1	1	0	981	1	4	0	8	49	0	1	98
random	1	1	51	114784	1	4	4	1	0	741	1	4	0	32	50	0	1	98
random	1	1	52	116407	5	3	3	1	0	1032	1	4	0	24	51	0	1	98
random	1	1	53	117964	3	2	2	1	0	558	1	4	0	16	52	0	1	98
random	1	1	54	119233	6	4	4	1	0	872	1	4	0	32	53	0	1	98
random	1	1	55	120677	4	2	2	1	0	931	1	4	0	16	54	0	1	98
random	1	1	56	122237	1	1	1	1	0	849	1	4	0	8	55	0	1	98
random	1	1	57	124053	5	4	4	1	0	780	1	4	0	32	56	0	1	98
random	1	1	58	125724	2	1	1	1	0	646	1	4	0	8	57	0	1	98
random	1	1	59	127156	6	2	2	1	0	777	1	4	0	16	58	0	1	98
random	1	1	60	128801	4	3	3	1	0	715	1	4	0	24	59	0	1	98
random	1	1	61	130360	1	2	2	1	0	1033	1	4	0	16	60	0	1	98
random	1	1	62	132237	6	4	4	1	0	738	1	4	0	32	61	0	1	98
random	1	1	63	133788	4	1	1	1	0	1112	1	4	0	8	62	0	1	98
random	1	1	64	135433	2	2	2	1	0	794	1	4	0	16	63	0	1	98
random	1	1	65	136601	4	3	3	1	0	793	1	4	0	24	64	0	1	98
random	1	1	66	137854	3	1	1	1	0	708	1	4	0	8	65	0	1	98
random	1	1	67	139029	1	3	3	1	0	746	1	4	0	24	66	0	1	99
random	1	1	68	140622	5	4	4	1	0	678	1	4	0	32	67	0	1	99
random	1	1	69	142052	2	2	2	1	0	610	1	4	0	16	68	0	1	99
random	1	1	70	143551	3	1	1	1	0	859	1	4	0	8	69	0	1	99
random	1	1	71	145108	5	4	4	1	0	657	1	4	0	32	70	0	1	99
random	1	1	72	146516	6	3	3	1	0	1445	1	4	0	24	71	0	1	99
random	1	1	73	148889	2	1	1	1	0	904	1	4	0	8	72	0	1	99
random	1	1	74	150276	5	3	3	1	0	1053	1	4	0	24	73	0	1	99
random	1	1	75	151776	1	4	4	1	0	742	1	4	0	32	74	0	1	99
random	1	1	76	152930	6	2	2	1	0	813	1	4	0	16	75	0	1	99
random	1	1	77	154643	2	1	1	1	0	1141	1	4	0	8	76	0	1	99
random	1	1	78	156383	4	4	4	1	0	659	1	4	0	32	77	0	1	99
random	1	1	79	157382	3	2	2	1	0	641	1	4	0	16	78	0	1	99
random	1	1	80	158827	4	3	3	1	0	595	1	4	0	24	79	0	1	99
random	1	1	81	160260	1	4	4	1	0	583	1	4	0	32	80	0	1	99
random	1	1	82	161194	5	1	1	1	0	543	1	4	0	8	81	0	1	99
random	1	1	83	162615	3	2	2	1	0	795	1	4	0	16	82	0	1	99
random	1	1	84	164194	6	3	3	1	0	384	1	4	0	24	83	0	1	99
random	1	1	85	165630	3	2	2	1	0	795	1	4	0	16	84	0	1	99
random	1	1	86	166762	1	3	3	1	0	596	1	4	0	24	85	0	1	99
random	1	1	87	168263	4	4	4	1	0	764	1	4	0	32	86	0	1	99
random	1	1	88	169637	2	1	1	1	0	537	1	4	0	8	87	0	1	99
random	1	1	89	170637	6	4	4	1	0	887	1	4	0	32	88	0	1	99
random	1	1	90	172506	3	3	3	1	0	920	1	4	0	24	89	0	1	99
random	1	1	91	173783	5	4	4	1	0	1050	1	4	0	32	90	0	1	99
random	1	1	92	175277	1	2	2	1	0	715	1	4	0	16	91	0	1	99
random	1	1	93	176491	5	1	1	1	0	695	1	4	0	8	92	0	1	99
random	1	1	94	177920	4	3	3	1	0	979	1	4	0	24	93	0	1	99
random	1	1	95	179563	6	1	1	2	0	1525	2	4	0	8	94	0	1	99
random	1	1	96	181550	2	2	2	1	0	913	1	4	0	16	95	0	1	99
random	1	1	97	183758	4	3	3	1	0	1187	1	4	0	24	96	0	1	99
random	1	1	98	185935	3	2	2	1	0	935	1	4	0	16	97	0	1	99
random	1	1	99	187520	6	3	3	1	0	956	1	4	0	24	98	0	1	99
random	1	1	100	189409	1	4	4	1	0	780	1	4	0	32	99	0	1	99
random	1	1	101	190898	4	1	1	1	0	517	1	4	0	8	100	0	1	99
random	1	1	102	192127	5	2	2	1	0	769	1	4	0	16	101	0	1	99
random	1	1	103	193243	2	4	4	1	0	914	1	4	0	32	102	0	1	99
random	1	1	104	194438	3	1	1	1	0	879	1	4	0	8	103	0	1	99
random	1	1	105	196269	1	3	3	1	0	705	1	4	0	24	104	0	1	99
random	1	1	106	197551	2	2	2	1	0	684	1	4	0	16	105	0	1	99
random	1	1	107	198591	5	4	4	1	0	775	1	4	0	32	106	0	1	99
random	1	1	108	199888	6	1	1	1	0	792	1	4	0	8	107	0	1	99
random	1	1	109	201752	5	4	4	1	0	777	1	4	0	32	108	0	1	99
random	1	1	110	203417	6	3	3	1	0	963	1	4	0	24	109	0	1	99
random	1	1	111	204891	2	2	2	1	0	524	1	4	0	16	110	0	1	99
random	1	1	112	205960	3	1	1	1	0	823	1	4	0	8	111	0	1	99
random	1	1	113	207161	1	2	2	1	0	909	1	4	0	16	112	0	1	99
random	1	1	114	208507	2	3	3	1	0	579	1	4	0	24	113	0	1	99
random	1	1	115	210054	3	1	1	1	0	889	1	4	0	8	114	0	1	99
random	1	1	116	211515	4	4	4	1	0	524	1	4	0	32	115	0	1	99
random	1	1	117	212763	6	1	1	1	0	1015	1	4	0	8	116	0	1	99
random	1	1	118	214642	5	3	3	1	0	847	1	4	0	24	117	0	1	99
random	1	1	119	216128	1	4	4	1	0	729	1	4	0	32	118	0	1	99
random	1	1	120	217190	4	2	2	1	0	627	1	4	0	16	119	0	1	99
fixed	2	1	1	219058	4	1	1	1	0	1044	1	4	0	40	1	0	0	100
fixed	2	1	2	220425	1	2	2	1	0	787	1	4	0	48	2	0	0	100
fixed	2	1	3	221595	6	4	4	1	0	817	1	4	0	64	3	0	0	100
fixed	2	1	4	223353	2	1	1	1	0	702	1	4	0	40	4	0	0	100
fixed	2	1	5	225075	5	3	3	1	0	877	1	4	0	56	5	0	0	100
fixed	2	1	6	226666	6	4	4	1	0	738	1	4	0	64	6	0	0	100
fixed	2	1	7	227999	3	1	1	1	0	697	1	4	0	40	7	0	0	100
fixed	2	1	8	229045	2	3	3	1	0	869	1	4	0	56	8	0	0	100
fixed	2	1	9	230654	3	2	2	1	0	697	1	4	0	48	9	0	0	100
fixed	2	1	10	232219	1	4	4	1	0	759	1	4	0	64	10	0	0	100
fixed	2	1	11	233481	5	2	2	1	0	897	1	4	0	48	11	0	0	100
fixed	2	1	12	235284	4	3	3	1	0	741	1	4	0	56	12	0	0	100
fixed	2	2	1	236721	4	1	1	1	0	1128	1	4	0	40	13	0	0	100
fixed	2	2	2	238405	1	2	2	1	0	785	1	4	0	48	14	0	0	100
fixed	2	2	3	240021	6	4	4	1	0	709	1	4	0	64	15	0	0	100
fixed	2	2	4	241231	2	1	1	1	0	1129	1	4	0	40	16	0	0	100
fixed	2	2	5	242656	5	3	3	1	0	973	1	4	0	56	17	0	0	100
fixed	2	2	6	244225	6	4	4	1	0	762	1	4	0	64	18	0	0	100
fixed	2	2	7	245550	3	1	1	1	0	666	1	4	0	40	19	0	0	100
fixed	2	2	8	246594	2	3	3	1	0	1046	1	4	0	56	20	0	0	100
fixed	2	2	9	248161	3	2	2	1	0	836	1	4	0	48	21	0	0	100
fixed	2	2	10	249978	1	4	4	1	0	719	1	4	0	64	22	0	0	100
fixed	2	2	11	251212	5	2	2	1	0	770	1	4	0	48	23	0	0	100
fixed	2	2	12	252915	4	3	3	1	0	1138	1	4	0	56	24	0	0	100
fixed	2	3	1	254715	4	1	1	1	0	958	1	4	0	40	25	0	0	100
fixed	2	3	2	256143	1	2	2	1	0	858	1	4	0	48	26	0	0	100
fixed	2	3	3	257732	6	4	4	1	0	798	1	4	0	64	27	0	0	100
fixed	2	3	4	259134	2	1	1	1	0	691	1	4	0	40	28	0	0	100
fixed	2	3	5	260679	5	3	3	1	0	569	1	4	0	56	29	0	0	100
fixed	2	3	6	262180	6	4	4	1	0	729	1	4	0	64	30	0	0	100
fixed	2	3	7	263916	3	1	1	1	0	713	1	4	0	40	31	0	0	100
fixed	2	3	8	265203	2	3	3	1	0	850	1	4	0	56	32	0	0	100
fixed	2	3	9	266347	3	2	2	1	0	809	1	4	0	48	33	0	0	100
fixed	2	3	10	267511	1	4	4	1	0	816	1	4	0	64	34	0	0	100
fixed	2	3	11	269250	5	2	2	1	0	918	1	4	0	48	35	0	0	100
fixed	2	3	12	271138	4	3	3	1	0	758	1	4	0	56	36	0	0	100
fixed	2	4	1	272575	4	1	1	1	0	777	1	4	0	40	37	0	0	100
fixed	2	4	2	273942	1	2	2	1	0	848	1	4	0	48	38	0	0	100
fixed	2	4	3	275276	6	4	4	1	0	695	1	4	0	64	39	0	0	100
fixed	2	4	4	276506	2	1	1	1	0	739	1	4	0	40	40	0	0	100
fixed	2	4	5	278241	5	3	3	1	0	553	1	4	0	56	41	0	0	100
fixed	2	4	6	279223	6	4	4	1	0	1384	1	4	0	64	42	0	0	100
fixed	2	4	7	281192	3	1	1	1	0	709	1	4	0	40	43	0	0	100
fixed	2	4	8	282532	2	3	3	1	0	924	1	4	0	56	44	0	0	100
fixed	2	4	9	284116	3	2	2	1	0	769	1	4	0	48	45	0	0	100
fixed	2	4	10	285728	1	4	4	1	0	876	1	4	0	64	46	0	0	100
fixed	2	4	11	287082	5	2	2	1	0	779	1	4	0	48	47	0	0	100
fixed	2	4	12	288698	4	3	3	1	0	1046	1	4	0	56	48	0	0	100
fixed	2	5	1	290753	4	1	1	1	0	775	1	4	0	40	49	0	0	100
fixed	2	5	2	292189	1	2	2	1	0	843	1	4	0	48	50	0	0	100
fixed	2	5	3	293479	6	4	4	1	0	652	1	4	0	64	51	0	0	100
fixed	2	5	4	294580	2	1	1	1	0	1029	1	4	0	40	52	0	0	100
fixed	2	5	5	296179	5	3	3	1	0	962	1	4	0	56	53	0	0	100
fixed	2	5	6	297915	6	4	4	1	0	817	1	4	0	64	54	0	0	100
fixed	2	5	7	299012	3	1	1	1	0	714	1	4	0	40	55	0	0	100
fixed	2	5	8	300175	2	3	3	2	0	952	2	4	0	56	56	0	0	100
fixed	2	5	9	301450	3	2	2	1	0	955	1	4	0	48	57	0	0	100
fixed	2	5	10	302792	1	4	4	1	0	762	1	4	0	64	58	0	0	100
fixed	2	5	11	304360	5	2	2	1	0	695	1	4	0	48	59	0	0	100
fixed	2	5	12	305900	4	3	3	1	0	1094	1	4	0	56	60	0	0	100
fixed	2	6	1	307578	4	1	1	1	0	1039	1	4	0	40	61	0	0	100
fixed	2	6	2	309585	1	2	2	1	0	826	1	4	0	48	62	0	0	100
fixed	2	6	3	310887	6	4	4	1	0	627	1	4	0	64	63	0	0	100
fixed	2	6	4	311930	2	1	1	1	0	1015	1	4	0	40	64	0	0	100
fixed	2	6	5	313892	5	3	3	1	0	811	1	4	0	56	65	0	0	100
fixed	2	6	6	315116	6	4	4	1	0	728	1	4	0	64	66	0	0	100
fixed	2	6	7	316355	3	1	1	1	0	931	1	4	0	40	67	0	0	100
fixed	2	6	8	318088	2	3	3	1	0	866	1	4	0	56	68	0	0	100
fixed	2	6	9	319809	3	2	2	1	0	761	1	4	0	48	69	0	0	100
fixed	2	6	10	320985	1	4	4	1	0	639	1	4	0	64	70	0	0	100
fixed	2	6	11	322232	5	2	2	1	0	842	1	4	0	48	71	0	0	100
fixed	2	6	12	323690	4	3	3	1	0	653	1	4	0	56	72	0	0	100
fixed	2	7	1	324904	4	1	1	1	0	801	1	4	0	40	73	0	0	100
fixed	2	7	2	326728	1	2	2	1	0	700	1	4	0	48	74	0	0	100
fixed	2	7	3	327768	6	4	4	1	0	680	1	4	0	64	75	0	0	100
fixed	2	7	4	328898	2	1	1	1	0	800	1	4	0	40	76	0	0	100
fixed	2	7	5	330695	5	3	3	1	0	740	1	4	0	56	77	0	0	100
fixed	2	7	6	332425	6	4	4	1	0	579	1	4	0	64	78	0	0	100
fixed	2	7	7	333338	3	1	1	1	0	692	1	4	0	40	79	0	0	100
fixed	2	7	8	334454	2	3	3	1	0	813	1	4	0	56	80	0	0	100
fixed	2	7	9	336034	3	2	2	1	0	554	1	4	0	48	81	0	0	100
fixed	2	7	10	336941	1	4	4	1	0	659	1	4	0	64	82	0	0	100
fixed	2	7	11	337987	5	2	2	1	0	799	1	4	0	48	83	0	0	100
fixed	2	7	12	339753	4	3	3	2	0	1373	2	4	0	56	84	0	0	100
fixed	2	8	1	341896	4	1	1	1	0	1209	1	4	0	40	85	0	0	100
fixed	2	8	2	343445	1	2	2	1	0	992	1	4	0	48	86	0	0	100
fixed	2	8	3	345179	6	4	4	1	0	791	1	4	0	64	87	0	0	100
fixed	2	8	4	346772	2	1	1	1	0	827	1	4	0	40	88	0	0	100
fixed	2	8	5	348178	5	3	3	1	0	823	1	4	0	56	89	0	0	100
fixed	2	8	6	349701	6	4	4	1	0	655	1	4	0	64	90	0	0	100
fixed	2	8	7	351158	3	1	1	1	0	593	1	4	0	40	91	0	0	100
fixed	2	8	8	352460	2	3	3	1	0	602	1	4	0	56	92	0	0	100
fixed	2	8	9	353364	3	2	2	1	0	572	1	4	0	48	93	0	0	100
fixed	2	8	10	354235	1	4	4	1	0	639	1	4	0	64	94	0	0	100
fixed	2	8	11	355668	5	2	2	1	0	658	1	4	0	48	95	0	0	100
fixed	2	8	12	356686	4	3	3	1	0	647	1	4	0	56	96	0	0	100
fixed	2	9	1	358052	4	1	1	1	0	829	1	4	0	40	97	0	0	100
fixed	2	9	2	359551	1	2	2	1	0	702	1	4	0	48	98	0	0	100
fixed	2	9	3	361159	6	4	4	1	0	697	1	4	0	64	99	0	0	100
fixed	2	9	4	362437	2	1	1	1	0	836	1	4	0	40	100	0	0	100
fixed	2	9	5	363916	5	3	3	1	0	701	1	4	0	56	101	0	0	100
fixed	2	9	6	365225	6	4	4	1	0	621	1	4	0	64	102	0	0	100
fixed	2	9	7	366784	3	1	1	1	0	740	1	4	0	40	103	0	0	100
fixed	2	9	8	368243	2	3	3	1	0	773	1	4	0	56	104	0	0	100
fixed	2	9	9	370016	3	2	2	1	0	594	1	4	0	48	105	0	0	100
fixed	2	9	10	371438	1	4	4	1	0	518	1	4	0	64	106	0	0	100
fixed	2	9	11	372269	5	2	2	1	0	659	1	4	0	48	107	0	0	100
fixed	2	9	12	373436	4	3	3	2	0	1202	2	4	0	56	108	0	0	100
fixed	2	10	1	375528	4	1	1	1	0	929	1	4	0	40	109	0	0	100
fixed	2	10	2	377245	1	2	2	1	0	769	1	4	0	48	110	0	0	100
fixed	2	10	3	378987	6	4	4	1	0	694	1	4	0	64	111	0	0	100
fixed	2	10	4	380586	2	1	1	1	0	851	1	4	0	40	112	0	0	100
fixed	2	10	5	381816	5	3	3	1	0	935	1	4	0	56	113	0	0	100
fixed	2	10	6	383681	6	4	4	1	0	623	1	4	0	64	114	0	0	100
fixed	2	10	7	384877	3	1	1	1	0	581	1	4	0	40	115	0	0	100
fixed	2	10	8	385927	2	3	3	1	0	825	1	4	0	56	116	0	0	100
fixed	2	10	9	387790	3	2	2	1	0	713	1	4	0	48	117	0	0	100
fixed	2	10	10	389069	1	4	4	1	0	660	1	4	0	64	118	0	0	100
fixed	2	10	11	390706	5	2	2	1	0	654	1	4	0	48	119	0	0	100
fixed	2	10	12	391832	4	3	3	1	0	734	1	4	0	56	120	0	0	100
fixed	3	1	1	393988	4	1	1	1	0	491	1	4	0	72	1	0	0	100
fixed	3	1	2	395211	1	2	2	1	0	719	1	4	0	80	2	0	0	100
fixed	3	1	3	396886	6	4	4	1	0	544	1	4	0	96	3	0	0	100
fixed	3	1	4	397947	2	1	1	1	0	763	1	4	0	72	4	0	0	100
fixed	3	1	5	399081	5	3	3	1	0	524	1	4	0	88	5	0	0	100
fixed	3	1	6	400421	6	4	4	1	0	698	1	4	0	96	6	0	0	100
fixed	3	1	7	401807	3	1	1	1	0	992	1	4	0	72	7	0	0	100
fixed	3	1	8	403781	2	3	3	2	0	1356	2	4	0	88	8	0	0	100
fixed	3	1	9	405624	3	2	2	1	0	1006	1	4	0	80	9	0	0	100
fixed	3	1	10	407194	1	4	4	1	0	676	1	4	0	96	10	0	0	100
fixed	3	1	11	408866	5	2	2	1	0	845	1	4	0	80	11	0	0	100
fixed	3	1	12	410317	4	3	3	1	0	743	1	4	0	88	12	0	0	100
fixed	3	2	1	411834	4	1	1	1	0	855	1	4	0	72	13	0	0	100
fixed	3	2	2	413251	1	2	2	1	0	828	1	4	0	80	14	0	0	100
fixed	3	2	3	414786	6	4	4	1	0	674	1	4	0	96	15	0	0	100
fixed	3	2	4	416084	2	1	1	1	0	1043	1	4	0	72	16	0	0	100
fixed	3	2	5	417578	5	3	3	1	0	900	1	4	0	88	17	0	0	100
fixed	3	2	6	419138	6	4	4	1	0	698	1	4	0	96	18	0	0	100
fixed	3	2	7	420394	3	1	1	1	0	693	1	4	0	72	19	0	0	100
fixed	3	2	8	421564	2	3	3	1	0	1139	1	4	0	88	20	0	0	100
fixed	3	2	9	423046	3	2	2	1	0	668	1	4	0	80	21	0	0	100
fixed	3	2	10	424058	1	4	4	1	0	722	1	4	0	96	22	0	0	100
fixed	3	2	11	425334	5	2	2	1	0	875	1	4	0	80	23	0	0	100
fixed	3	2	12	426719	4	3	3	1	0	737	1	4	0	88	24	0	0	100
fixed	3	3	1	428675	4	1	1	1	0	814	1	4	0	72	25	0	0	100
fixed	3	3	2	430236	1	2	2	1	0	788	1	4	0	80	26	0	0	100
fixed	3	3	3	431520	6	4	4	1	0	685	1	4	0	96	27	0	0	100
fixed	3	3	4	432841	2	1	1	1	0	1101	1	4	0	72	28	0	0	100
fixed	3	3	5	434392	5	3	3	1	0	804	1	4	0	88	29	0	0	100
fixed	3	3	6	435633	6	4	4	1	0	687	1	4	0	96	30	0	0	100
fixed	3	3	7	437074	3	1	1	1	0	762	1	4	0	72	31	0	0	100
fixed	3	3	8	438394	2	3	3	1	0	915	1	4	0	88	32	0	0	100
fixed	3	3	9	440144	3	2	2	1	0	704	1	4	0	80	33	0	0	100
fixed	3	3	10	441785	1	4	4	1	0	467	1	4	0	96	34	0	0	100
fixed	3	3	11	442635	5	2	2	1	0	815	1	4	0	80	35	0	0	100
fixed	3	3	12	444020	4	3	3	1	0	764	1	4	0	88	36	0	0	100
fixed	3	4	1	445834	4	1	1	1	0	767	1	4	0	72	37	0	0	100
fixed	3	4	2	447173	1	2	2	1	0	814	1	4	0	80	38	0	0	100
fixed	3	4	3	448327	6	4	4	1	0	1134	1	4	0	96	39	0	0	100
fixed	3	4	4	450088	2	1	1	1	0	635	1	4	0	72	40	0	0	100
fixed	3	4	5	451392	5	3	3	1	0	916	1	4	0	88	41	0	0	100
fixed	3	4	6	452694	6	4	4	1	0	821	1	4	0	96	42	0	0	100
fixed	3	4	7	454278	3	1	1	1	0	882	1	4	0	72	43	0	0	100
fixed	3	4	8	455980	2	3	3	1	0	1074	1	4	0	88	44	0	0	100
fixed	3	4	9	457688	3	2	2	1	0	713	1	4	0	80	45	0	0	100
fixed	3	4	10	459103	1	4	4	1	0	661	1	4	0	96	46	0	0	100
fixed	3	4	11	460457	5	2	2	1	0	812	1	4	0	80	47	0	0	100
fixed	3	4	12	462012	4	3	3	1	0	602	1	4	0	88	48	0	0	100
fixed	3	5	1	463912	4	1	1	1	0	737	1	4	0	72	49	0	0	100
fixed	3	5	2	465595	1	2	2	1	0	779	1	4	0	80	50	0	0	100
fixed	3	5	3	467353	6	4	4	1	0	664	1	4	0	96	51	0	0	100
fixed	3	5	4	468918	2	1	1	1	0	718	1	4	0	72	52	0	0	100
fixed	3	5	5	470248	5	3	3	1	0	1005	1	4	0	88	53	0	0	100
fixed	3	5	6	471996	6	4	4	1	0	659	1	4	0	96	54	0	0	100
fixed	3	5	7	473673	3	1	1	1	0	820	1	4	0	72	55	0	0	100
fixed	3	5	8	474993	2	3	3	1	0	860	1	4	0	88	56	0	0	100
fixed	3	5	9	476788	3	2	2	1	0	696	1	4	0	80	57	0	0	100
fixed	3	5	10	477772	1	4	4	1	0	823	1	4	0	96	58	0	0	100
fixed	3	5	11	479290	5	2	2	1	0	942	1	4	0	80	59	0	0	100
fixed	3	5	12	480906	4	3	3	1	0	690	1	4	0	88	60	0	0	100
fixed	3	6	1	482457	4	1	1	1	0	880	1	4	0	72	61	0	0	100
fixed	3	6	2	484363	1	2	2	1	0	719	1	4	0	80	62	0	0	100
fixed	3	6	3	485949	6	4	4	1	0	516	1	4	0	96	63	0	0	100
fixed	3	6	4	487316	2	1	1	1	0	706	1	4	0	72	64	0	0	100
fixed	3	6	5	488413	5	3	3	1	0	924	1	4	0	88	65	0	0	100
fixed	3	6	6	490191	6	4	4	1	0	656	1	4	0	96	66	0	0	100
fixed	3	6	7	491372	3	1	1	1	0	1079	1	4	0	72	67	0	0	100
fixed	3	6	8	492754	2	3	3	1	0	956	1	4	0	88	68	0	0	100
fixed	3	6	9	494369	3	2	2	1	0	711	1	4	0	80	69	0	0	100
fixed	3	6	10	496071	1	4	4	1	0	695	1	4	0	96	70	0	0	100
fixed	3	6	11	497352	5	2	2	1	0	841	1	4	0	80	71	0	0	100
fixed	3	6	12	498881	4	3	3	1	0	704	1	4	0	88	72	0	0	100
fixed	3	7	1	500234	4	1	1	1	0	935	1	4	0	72	73	0	0	100
fixed	3	7	2	501520	1	2	2	1	0	792	1	4	0	80	74	0	0	100
fixed	3	7	3	503120	6	4	4	1	0	581	1	4	0	96	75	0	0	100
fixed	3	7	4	504262	2	1	1	1	0	716	1	4	0	72	76	0	0	100
fixed	3	7	5	505453	5	3	3	1	0	586	1	4	0	88	77	0	0	100
fixed	3	7	6	506619	6	4	4	1	0	673	1	4	0	96	78	0	0	100
fixed	3	7	7	507995	3	1	1	1	0	814	1	4	0	72	79	0	0	100
fixed	3	7	8	509476	2	3	3	1	0	744	1	4	0	88	80	0	0	100
fixed	3	7	9	510743	3	2	2	1	0	618	1	4	0	80	81	0	0	100
fixed	3	7	10	512045	1	4	4	1	0	627	1	4	0	96	82	0	0	100
fixed	3	7	11	513354	5	2	2	1	0	539	1	4	0	80	83	0	0	100
fixed	3	7	12	514403	4	3	3	1	0	663	1	4	0	88	84	0	0	100
fixed	3	8	1	515973	4	1	1	1	0	836	1	4	0	72	85	0	0	100
fixed	3	8	2	517503	1	2	2	1	0	716	1	4	0	80	86	0	0	100
fixed	3	8	3	518821	6	4	4	1	0	684	1	4	0	96	87	0	0	100
fixed	3	8	4	520077	2	1	1	1	0	991	1	4	0	72	88	0	0	100
fixed	3	8	5	521871	5	3	3	1	0	859	1	4	0	88	89	0	0	100
fixed	3	8	6	523511	6	4	4	1	0	661	1	4	0	96	90	0	0	100
fixed	3	8	7	525103	3	1	1	1	0	754	1	4	0	72	91	0	0	100
fixed	3	8	8	526427	2	3	3	1	0	1002	1	4	0	88	92	0	0	100
fixed	3	8	9	527772	3	2	2	1	0	489	1	4	0	80	93	0	0	100
fixed	3	8	10	528660	1	4	4	1	0	611	1	4	0	96	94	0	0	100
fixed	3	8	11	529887	5	2	2	1	0	640	1	4	0	80	95	0	0	100
fixed	3	8	12	531257	4	3	3	1	0	917	1	4	0	88	96	0	0	100
fixed	3	9	1	532931	4	1	1	1	0	726	1	4	0	72	97	0	0	100
fixed	3	9	2	534435	1	2	2	1	0	806	1	4	0	80	98	0	0	100
fixed	3	9	3	536246	6	4	4	1	0	474	1	4	0	96	99	0	0	100
fixed	3	9	4	537255	2	1	1	1	0	943	1	4	0	72	100	0	0	100
fixed	3	9	5	538674	5	3	3	1	0	371	1	4	0	88	101	0	0	100
fixed	3	9	6	539393	6	4	4	1	0	749	1	4	0	96	102	0	0	100
fixed	3	9	7	540909	3	1	1	1	0	732	1	4	0	72	103	0	0	100
fixed	3	9	8	542157	2	3	3	1	0	855	1	4	0	88	104	0	0	100
fixed	3	9	9	543365	3	2	2	1	0	724	1	4	0	80	105	0	0	100
fixed	3	9	10	544663	1	4	4	1	0	333	1	4	0	96	106	0	0	100
fixed	3	9	11	545709	5	2	2	1	0	721	1	4	0	80	107	0	0	100
fixed	3	9	12	547360	4	3	3	1	0	971	1	4	0	88	108	0	0	100
fixed	3	10	1	549020	4	1	1	1	0	748	1	4	0	72	109	0	0	100
fixed	3	10	2	550546	1	2	2	2	0	1372	2	4	0	80	110	0	0	100
fixed	3	10	3	552325	6	4	4	1	0	1457	1	4	0	96	111	0	0	100
fixed	3	10	4	554618	2	1	1	1	0	799	1	4	0	72	112	0	0	100
fixed	3	10	5	555713	5	3	3	1	0	769	1	4	0	88	113	0	0	100
fixed	3	10	6	556878	6	4	4	1	0	1104	1	4	0	96	114	0	0	100
fixed	3	10	7	558635	3	1	1	1	0	798	1	4	0	72	115	0	0	100
fixed	3	10	8	560274	2	3	3	1	0	1024	1	4	0	88	116	0	0	100
fixed	3	10	9	562113	3	2	2	1	0	554	1	4	0	80	117	0	0	100
fixed	3	10	10	563231	1	4	4	1	0	451	1	4	0	96	118	0	0	100
fixed	3	10	11	564464	5	2	2	1	0	703	1	4	0	80	119	0	0	100
fixed	3	10	12	565475	4	3	3	1	0	803	1	4	0	88	120	0	0	100
fixed	4	1	1	690615	4	1	1	1	0	959	1	4	0	104	1	0	0	100
fixed	4	1	2	691965	1	2	2	1	0	903	1	4	0	112	2	0	0	100
fixed	4	1	3	693745	6	4	4	1	0	843	1	4	0	128	3	0	0	100
fixed	4	1	4	695198	2	1	1	1	0	989	1	4	0	104	4	0	0	100
fixed	4	1	5	696932	5	3	3	1	0	532	1	4	0	120	5	0	0	100
fixed	4	1	6	698239	6	4	4	1	0	661	1	4	0	128	6	0	0	100
fixed	4	1	7	699660	3	1	1	1	0	912	1	4	0	104	7	0	0	100
fixed	4	1	8	700997	2	3	3	1	0	824	1	4	0	120	8	0	0	100
fixed	4	1	9	702394	3	2	2	1	0	764	1	4	0	112	9	0	0	100
fixed	4	1	10	703655	1	4	4	1	0	543	1	4	0	128	10	0	0	100
fixed	4	1	11	704520	5	2	2	1	0	1066	1	4	0	112	11	0	0	100
fixed	4	1	12	705956	4	3	3	1	0	582	1	4	0	120	12	0	0	100
fixed	4	2	1	707776	4	1	1	1	0	880	1	4	0	104	13	0	0	100
fixed	4	2	2	708986	1	2	2	1	0	854	1	4	0	112	14	0	0	100
fixed	4	2	3	710400	6	4	4	1	0	649	1	4	0	128	15	0	0	100
fixed	4	2	4	711776	2	1	1	1	0	615	1	4	0	104	16	0	0	100
fixed	4	2	5	713385	5	3	3	1	0	595	1	4	0	120	17	0	0	100
fixed	4	2	6	714285	6	4	4	1	0	765	1	4	0	128	18	0	0	100
fixed	4	2	7	715402	3	1	1	1	0	846	1	4	0	104	19	0	0	100
fixed	4	2	8	716935	2	3	3	1	0	1085	1	4	0	120	20	0	0	100
fixed	4	2	9	718332	3	2	2	1	0	554	1	4	0	112	21	0	0	100
fixed	4	2	10	719764	1	4	4	1	0	637	1	4	0	128	22	0	0	100
fixed	4	2	11	721405	5	2	2	1	0	784	1	4	0	112	23	0	0	100
fixed	4	2	12	722596	4	3	3	1	0	693	1	4	0	120	24	0	0	100
fixed	4	3	1	724183	4	1	1	1	0	890	1	4	0	104	25	0	0	100
fixed	4	3	2	725929	1	2	2	1	0	752	1	4	0	112	26	0	0	100
fixed	4	3	3	727610	6	4	4	1	0	720	1	4	0	128	27	0	0	100
fixed	4	3	4	729163	2	1	1	1	0	695	1	4	0	104	28	0	0	100
fixed	4	3	5	730417	5	3	3	1	0	754	1	4	0	120	29	0	0	100
fixed	4	3	6	731662	6	4	4	1	0	869	1	4	0	128	30	0	0	100
fixed	4	3	7	733111	3	1	1	1	0	680	1	4	0	104	31	0	0	100
fixed	4	3	8	734597	2	3	3	1	0	921	1	4	0	120	32	0	0	100
fixed	4	3	9	736285	3	2	2	1	0	617	1	4	0	112	33	0	0	100
fixed	4	3	10	737518	1	4	4	1	0	757	1	4	0	128	34	0	0	100
fixed	4	3	11	739097	5	2	2	1	0	762	1	4	0	112	35	0	0	100
fixed	4	3	12	740680	4	3	3	1	0	711	1	4	0	120	36	0	0	100
fixed	4	4	1	741977	4	1	1	1	0	744	1	4	0	104	37	0	0	100
fixed	4	4	2	743325	1	2	2	1	0	647	1	4	0	112	38	0	0	100
fixed	4	4	3	744251	6	4	4	1	0	600	1	4	0	128	39	0	0	100
fixed	4	4	4	745734	2	1	1	1	0	857	1	4	0	104	40	0	0	100
fixed	4	4	5	746995	5	3	3	1	0	500	1	4	0	120	41	0	0	100
fixed	4	4	6	748030	6	4	4	1	0	680	1	4	0	128	42	0	0	100
fixed	4	4	7	749008	3	1	1	1	0	830	1	4	0	104	43	0	0	100
fixed	4	4	8	750376	2	3	3	1	0	829	1	4	0	120	44	0	0	100
fixed	4	4	9	752140	3	2	2	1	0	490	1	4	0	112	45	0	0	100
fixed	4	4	10	753415	1	4	4	1	0	844	1	4	0	128	46	0	0	100
fixed	4	4	11	754903	5	2	2	1	0	853	1	4	0	112	47	0	0	100
fixed	4	4	12	756287	4	3	3	1	0	882	1	4	0	120	48	0	0	100
fixed	4	5	1	758183	4	1	1	1	0	761	1	4	0	104	49	0	0	100
fixed	4	5	2	759342	1	2	2	1	0	833	1	4	0	112	50	0	0	100
fixed	4	5	3	760642	6	4	4	1	0	681	1	4	0	128	51	0	0	100
fixed	4	5	4	761862	2	1	1	1	0	742	1	4	0	104	52	0	0	100
fixed	4	5	5	763089	5	3	3	1	0	722	1	4	0	120	53	0	0	100
fixed	4	5	6	764333	6	4	4	1	0	925	1	4	0	128	54	0	0	100
fixed	4	5	7	765563	3	1	1	1	0	633	1	4	0	104	55	0	0	100
fixed	4	5	8	766584	2	3	3	1	0	886	1	4	0	120	56	0	0	100
fixed	4	5	9	768318	3	2	2	1	0	725	1	4	0	112	57	0	0	100
fixed	4	5	10	769383	1	4	4	1	0	623	1	4	0	128	58	0	0	100
fixed	4	5	11	770544	5	2	2	1	0	758	1	4	0	112	59	0	0	100
fixed	4	5	12	771703	4	3	3	1	0	637	1	4	0	120	60	0	0	100
fixed	4	6	1	772970	4	1	1	1	0	831	1	4	0	104	61	0	0	100
fixed	4	6	2	774382	1	2	2	1	0	596	1	4	0	112	62	0	0	100
fixed	4	6	3	776002	6	4	4	1	0	391	1	4	0	128	63	0	0	100
fixed	4	6	4	777381	2	1	1	1	0	740	1	4	0	104	64	0	0	100
fixed	4	6	5	778440	5	3	3	1	0	552	1	4	0	120	65	0	0	100
fixed	4	6	6	780025	6	4	4	1	0	789	1	4	0	128	66	0	0	100
fixed	4	6	7	781461	3	1	1	1	0	720	1	4	0	104	67	0	0	100
fixed	4	6	8	783086	2	3	3	1	0	827	1	4	0	120	68	0	0	100
fixed	4	6	9	784520	3	2	2	1	0	502	1	4	0	112	69	0	0	100
fixed	4	6	10	785548	1	4	4	1	0	778	1	4	0	128	70	0	0	100
fixed	4	6	11	786768	5	2	2	1	0	631	1	4	0	112	71	0	0	100
fixed	4	6	12	788392	4	3	3	1	0	1322	1	4	0	120	72	0	0	100
fixed	4	7	1	790713	4	1	1	1	0	736	1	4	0	104	73	0	0	100
fixed	4	7	2	792293	1	2	2	1	0	701	1	4	0	112	74	0	0	100
fixed	4	7	3	793375	6	4	4	1	0	871	1	4	0	128	75	0	0	100
fixed	4	7	4	794808	2	1	1	1	0	738	1	4	0	104	76	0	0	100
fixed	4	7	5	796342	5	3	3	1	0	377	1	4	0	120	77	0	0	100
fixed	4	7	6	797213	6	4	4	1	0	836	1	4	0	128	78	0	0	100
fixed	4	7	7	798985	3	1	1	1	0	673	1	4	0	104	79	0	0	100
fixed	4	7	8	800594	2	3	3	1	0	725	1	4	0	120	80	0	0	100
fixed	4	7	9	801732	3	2	2	1	0	517	1	4	0	112	81	0	0	100
fixed	4	7	10	803099	1	4	4	1	0	603	1	4	0	128	82	0	0	100
fixed	4	7	11	804260	5	2	2	1	0	786	1	4	0	112	83	0	0	100
fixed	4	7	12	805851	4	3	3	1	0	1103	1	4	0	120	84	0	0	100
fixed	4	8	1	808223	4	1	1	1	0	762	1	4	0	104	85	0	0	100
fixed	4	8	2	809604	1	2	2	1	0	672	1	4	0	112	86	0	0	100
fixed	4	8	3	811079	6	4	4	1	0	713	1	4	0	128	87	0	0	100
fixed	4	8	4	812754	2	1	1	1	0	698	1	4	0	104	88	0	0	100
fixed	4	8	5	814263	5	3	3	1	0	963	1	4	0	120	89	0	0	100
fixed	4	8	6	815998	6	4	4	1	0	673	1	4	0	128	90	0	0	100
fixed	4	8	7	817014	3	1	1	1	0	654	1	4	0	104	91	0	0	100
fixed	4	8	8	818134	2	3	3	1	0	846	1	4	0	120	92	0	0	100
fixed	4	8	9	819329	3	2	2	1	0	596	1	4	0	112	93	0	0	100
fixed	4	8	10	820510	1	4	4	1	0	650	1	4	0	128	94	0	0	100
fixed	4	8	11	822048	5	2	2	1	0	753	1	4	0	112	95	0	0	100
fixed	4	8	12	823350	4	3	3	1	0	626	1	4	0	120	96	0	0	100
fixed	4	9	1	825248	4	1	1	1	0	745	1	4	0	104	97	0	0	100
fixed	4	9	2	826966	1	2	2	1	0	752	1	4	0	112	98	0	0	100
fixed	4	9	3	828401	6	4	4	1	0	804	1	4	0	128	99	0	0	100
fixed	4	9	4	830122	2	1	1	1	0	691	1	4	0	104	100	0	0	100
fixed	4	9	5	831205	5	3	3	1	0	613	1	4	0	120	101	0	0	100
fixed	4	9	6	832369	6	4	4	1	0	651	1	4	0	128	102	0	0	100
fixed	4	9	7	833711	3	1	1	1	0	563	1	4	0	104	103	0	0	100
fixed	4	9	8	834640	2	3	3	1	0	779	1	4	0	120	104	0	0	100
fixed	4	9	9	836362	3	2	2	1	0	418	1	4	0	112	105	0	0	100
fixed	4	9	10	837506	1	4	4	1	0	890	1	4	0	128	106	0	0	100
fixed	4	9	11	839397	5	2	2	1	0	738	1	4	0	112	107	0	0	100
fixed	4	9	12	841091	4	3	3	1	0	706	1	4	0	120	108	0	0	100
fixed	4	10	1	842424	4	1	1	1	0	953	1	4	0	104	109	0	0	100
fixed	4	10	2	843781	1	2	2	1	0	792	1	4	0	112	110	0	0	100
fixed	4	10	3	844963	6	4	4	1	0	502	1	4	0	128	111	0	0	100
fixed	4	10	4	845949	2	1	1	1	0	716	1	4	0	104	112	0	0	100
fixed	4	10	5	847502	5	3	3	1	0	490	1	4	0	120	113	0	0	100
fixed	4	10	6	849013	6	4	4	1	0	643	1	4	0	128	114	0	0	100
fixed	4	10	7	850634	3	1	1	1	0	774	1	4	0	104	115	0	0	100
fixed	4	10	8	852287	2	3	3	1	0	856	1	4	0	120	116	0	0	100
fixed	4	10	9	853809	3	2	2	1	0	528	1	4	0	112	117	0	0	100
fixed	4	10	10	854989	1	4	4	1	0	589	1	4	0	128	118	0	0	100
fixed	4	10	11	856077	5	2	2	1	0	831	1	4	0	112	119	0	0	100
fixed	4	10	12	857593	4	3	3	1	0	495	1	4	0	120	120	0	0	100
fixed	5	1	1	859596	4	1	1	1	0	418	1	4	0	136	1	0	0	100
fixed	5	1	2	860978	1	2	2	1	0	776	1	4	0	144	2	0	0	100
fixed	5	1	3	862543	6	4	4	1	0	669	1	4	0	160	3	0	0	100
fixed	5	1	4	863616	2	1	1	1	0	1000	1	4	0	136	4	0	0	100
fixed	5	1	5	864987	5	3	3	1	0	894	1	4	0	152	5	0	0	100
fixed	5	1	6	866853	6	4	4	1	0	1183	1	4	0	160	6	0	0	100
fixed	5	1	7	868438	3	1	1	1	0	860	1	4	0	136	7	0	0	100
fixed	5	1	8	869848	2	3	3	1	0	832	1	4	0	152	8	0	0	100
fixed	5	1	9	871053	3	2	2	1	0	381	1	4	0	144	9	0	0	100
fixed	5	1	10	871888	1	4	4	1	0	578	1	4	0	160	10	0	0	100
fixed	5	1	11	873111	5	2	2	1	0	686	1	4	0	144	11	0	0	100
fixed	5	1	12	874326	4	3	3	1	0	747	1	4	0	152	12	0	0	100
fixed	5	2	1	876290	4	1	1	1	0	735	1	4	0	136	13	0	0	100
fixed	5	2	2	877914	1	2	2	1	0	746	1	4	0	144	14	0	0	100
fixed	5	2	3	879245	6	4	4	1	0	666	1	4	0	160	15	0	0	100
fixed	5	2	4	880582	2	1	1	1	0	737	1	4	0	136	16	0	0	100
fixed	5	2	5	882208	5	3	3	1	0	349	1	4	0	152	17	0	0	100
fixed	5	2	6	883039	6	4	4	1	0	673	1	4	0	160	18	0	0	100
fixed	5	2	7	884635	3	1	1	1	0	798	1	4	0	136	19	0	0	100
fixed	5	2	8	886015	2	3	3	1	0	867	1	4	0	152	20	0	0	100
fixed	5	2	9	887811	3	2	2	1	0	735	1	4	0	144	21	0	0	100
fixed	5	2	10	889156	1	4	4	1	0	606	1	4	0	160	22	0	0	100
fixed	5	2	11	890343	5	2	2	1	0	604	1	4	0	144	23	0	0	100
fixed	5	2	12	891593	4	3	3	1	0	703	1	4	0	152	24	0	0	100
fixed	5	3	1	893332	4	1	1	1	0	709	1	4	0	136	25	0	0	100
fixed	5	3	2	894744	1	2	2	1	0	658	1	4	0	144	26	0	0	100
fixed	5	3	3	895719	6	4	4	1	0	624	1	4	0	160	27	0	0	100
fixed	5	3	4	896684	2	1	1	1	0	776	1	4	0	136	28	0	0	100
fixed	5	3	5	897981	5	3	3	1	0	521	1	4	0	152	29	0	0	100
fixed	5	3	6	899095	6	4	4	1	0	737	1	4	0	160	30	0	0	100
fixed	5	3	7	900786	3	1	1	1	0	658	1	4	0	136	31	0	0	100
fixed	5	3	8	902105	2	3	3	1	0	882	1	4	0	152	32	0	0	100
fixed	5	3	9	903647	3	2	2	1	0	745	1	4	0	144	33	0	0	100
fixed	5	3	10	905154	1	4	4	1	0	465	1	4	0	160	34	0	0	100
fixed	5	3	11	906104	5	2	2	1	0	793	1	4	0	144	35	0	0	100
fixed	5	3	12	907269	4	3	3	1	0	759	1	4	0	152	36	0	0	100
fixed	5	4	1	909171	4	1	1	1	0	702	1	4	0	136	37	0	0	100
fixed	5	4	2	910189	1	2	2	1	0	723	1	4	0	144	38	0	0	100
fixed	5	4	3	911637	6	4	4	2	0	1726	2	4	0	160	39	0	0	100
fixed	5	4	4	913858	2	1	1	2	0	1448	2	4	0	136	40	0	0	100
fixed	5	4	5	915869	5	3	3	1	0	995	1	4	0	152	41	0	0	100
fixed	5	4	6	917344	6	4	4	1	0	708	1	4	0	160	42	0	0	100
fixed	5	4	7	918592	3	1	1	1	0	807	1	4	0	136	43	0	0	100
fixed	5	4	8	920236	2	3	3	1	0	906	1	4	0	152	44	0	0	100
fixed	5	4	9	921925	3	2	2	1	0	698	1	4	0	144	45	0	0	100
fixed	5	4	10	923533	1	4	4	1	0	695	1	4	0	160	46	0	0	100
fixed	5	4	11	925136	5	2	2	1	0	747	1	4	0	144	47	0	0	100
fixed	5	4	12	926445	4	3	3	1	0	571	1	4	0	152	48	0	0	100
fixed	5	5	1	927649	4	1	1	1	0	720	1	4	0	136	49	0	0	100
fixed	5	5	2	928785	1	2	2	1	0	704	1	4	0	144	50	0	0	100
fixed	5	5	3	930272	6	4	4	1	0	537	1	4	0	160	51	0	0	100
fixed	5	5	4	931855	2	1	1	1	0	758	1	4	0	136	52	0	0	100
fixed	5	5	5	933402	5	3	3	1	0	388	1	4	0	152	53	0	0	100
fixed	5	5	6	934384	6	4	4	1	0	651	1	4	0	160	54	0	0	100
fixed	5	5	7	935747	3	1	1	1	0	753	1	4	0	136	55	0	0	100
fixed	5	5	8	937012	2	3	3	1	0	883	1	4	0	152	56	0	0	100
fixed	5	5	9	938299	3	2	2	1	0	1037	1	4	0	144	57	0	0	100
fixed	5	5	10	940378	1	4	4	1	0	741	1	4	0	160	58	0	0	100
fixed	5	5	11	941954	5	2	2	1	0	762	1	4	0	144	59	0	0	100
fixed	5	5	12	943136	4	3	3	1	0	824	1	4	0	152	60	0	0	100
fixed	5	6	1	944657	4	1	1	1	0	679	1	4	0	136	61	0	0	100
fixed	5	6	2	945713	1	2	2	1	0	1011	1	4	0	144	62	0	0	100
fixed	5	6	3	947699	6	4	4	1	0	671	1	4	0	160	63	0	0	100
fixed	5	6	4	948902	2	1	1	1	0	1092	1	4	0	136	64	0	0	100
fixed	5	6	5	950989	5	3	3	1	0	691	1	4	0	152	65	0	0	100
fixed	5	6	6	952134	6	4	4	1	0	643	1	4	0	160	66	0	0	100
fixed	5	6	7	953660	3	1	1	1	0	826	1	4	0	136	67	0	0	100
fixed	5	6	8	955192	2	3	3	1	0	1002	1	4	0	152	68	0	0	100
fixed	5	6	9	956985	3	2	2	1	0	1005	1	4	0	144	69	0	0	100
fixed	5	6	10	958755	1	4	4	1	0	747	1	4	0	160	70	0	0	100
fixed	5	6	11	959943	5	2	2	1	0	752	1	4	0	144	71	0	0	100
fixed	5	6	12	961023	4	3	3	1	0	691	1	4	0	152	72	0	0	100
fixed	5	7	1	962869	4	1	1	1	0	764	1	4	0	136	73	0	0	100
fixed	5	7	2	964332	1	2	2	1	0	734	1	4	0	144	74	0	0	100
fixed	5	7	3	965835	6	4	4	1	0	783	1	4	0	160	75	0	0	100
fixed	5	7	4	966902	2	1	1	1	0	921	1	4	0	136	76	0	0	100
fixed	5	7	5	968349	5	3	3	1	0	716	1	4	0	152	77	0	0	100
fixed	5	7	6	969451	6	4	4	1	0	693	1	4	0	160	78	0	0	100
fixed	5	7	7	970822	3	1	1	1	0	803	1	4	0	136	79	0	0	100
fixed	5	7	8	972548	2	3	3	1	0	834	1	4	0	152	80	0	0	100
fixed	5	7	9	974221	3	2	2	1	0	660	1	4	0	144	81	0	0	100
fixed	5	7	10	975469	1	4	4	1	0	542	1	4	0	160	82	0	0	100
fixed	5	7	11	977013	5	2	2	1	0	781	1	4	0	144	83	0	0	100
fixed	5	7	12	978414	4	3	3	1	0	706	1	4	0	152	84	0	0	100
fixed	5	8	1	979911	4	1	1	1	0	706	1	4	0	136	85	0	0	100
fixed	5	8	2	981072	1	2	2	1	0	897	1	4	0	144	86	0	0	100
fixed	5	8	3	982903	6	4	4	1	0	652	1	4	0	160	87	0	0	100
fixed	5	8	4	984440	2	1	1	1	0	746	1	4	0	136	88	0	0	100
fixed	5	8	5	985893	5	3	3	1	0	693	1	4	0	152	89	0	0	100
fixed	5	8	6	987123	6	4	4	1	0	705	1	4	0	160	90	0	0	100
fixed	5	8	7	988305	3	1	1	1	0	719	1	4	0	136	91	0	0	100
fixed	5	8	8	989816	2	3	3	1	0	1031	1	4	0	152	92	0	0	100
fixed	5	8	9	991572	3	2	2	1	0	564	1	4	0	144	93	0	0	100
fixed	5	8	10	992426	1	4	4	1	0	632	1	4	0	160	94	0	0	100
fixed	5	8	11	993486	5	2	2	1	0	748	1	4	0	144	95	0	0	100
fixed	5	8	12	994520	4	3	3	1	0	1056	1	4	0	152	96	0	0	100
fixed	5	9	1	996869	4	1	1	1	0	884	1	4	0	136	97	0	0	100
fixed	5	9	2	998072	1	2	2	1	0	897	1	4	0	144	98	0	0	100
fixed	5	9	3	999635	6	4	4	1	0	671	1	4	0	160	99	0	0	100
fixed	5	9	4	1001062	2	1	1	1	0	786	1	4	0	136	100	0	0	100
fixed	5	9	5	1002271	5	3	3	1	0	711	1	4	0	152	101	0	0	100
fixed	5	9	6	1003777	6	4	4	1	0	760	1	4	0	160	102	0	0	100
fixed	5	9	7	1005085	3	1	1	1	0	1296	1	4	0	136	103	0	0	100
fixed	5	9	8	1006912	2	3	3	1	0	835	1	4	0	152	104	0	0	100
fixed	5	9	9	1008603	3	2	2	1	0	787	1	4	0	144	105	0	0	100
fixed	5	9	10	1009813	1	4	4	1	0	936	1	4	0	160	106	0	0	100
fixed	5	9	11	1011426	5	2	2	1	0	748	1	4	0	144	107	0	0	100
fixed	5	9	12	1012906	4	3	3	1	0	629	1	4	0	152	108	0	0	100
fixed	5	10	1	1014295	4	1	1	1	0	786	1	4	0	136	109	0	0	100
fixed	5	10	2	1015570	1	2	2	1	0	740	1	4	0	144	110	0	0	100
fixed	5	10	3	1017266	6	4	4	1	0	685	1	4	0	160	111	0	0	100
fixed	5	10	4	1018570	2	1	1	1	0	781	1	4	0	136	112	0	0	100
fixed	5	10	5	1019858	5	3	3	1	0	638	1	4	0	152	113	0	0	100
fixed	5	10	6	1020926	6	4	4	1	0	657	1	4	0	160	114	0	0	100
fixed	5	10	7	1022573	3	1	1	1	0	676	1	4	0	136	115	0	0	100
fixed	5	10	8	1023965	2	3	3	1	0	929	1	4	0	152	116	0	0	100
fixed	5	10	9	1025270	3	2	2	1	0	537	1	4	0	144	117	0	0	100
fixed	5	10	10	1026635	1	4	4	1	0	704	1	4	0	160	118	0	0	100
fixed	5	10	11	1028295	5	2	2	1	0	785	1	4	0	144	119	0	0	100
fixed	5	10	12	1029729	4	3	3	1	0	877	1	4	0	152	120	0	0	100
random	6	1	1	1135941	6	1	1	1	0	1177	1	4	0	168	1	0	0	100
random	6	1	2	1137780	4	4	4	1	0	812	1	4	0	192	2	0	0	100
random	6	1	3	1138947	2	2	2	1	0	739	1	4	0	176	3	0	0	100
random	6	1	4	1140050	3	3	3	1	0	492	1	4	0	184	4	0	0	100
random	6	1	5	1141557	5	2	2	1	0	828	1	4	0	176	5	0	0	100
random	6	1	6	1143072	1	4	4	1	0	740	1	4	0	192	6	0	0	100
random	6	1	7	1144587	6	1	1	1	0	764	1	4	0	168	7	0	0	100
random	6	1	8	1145718	2	3	3	1	0	747	1	4	0	184	8	0	0	100
random	6	1	9	1147357	4	2	2	1	0	862	1	4	0	176	9	0	0	100
random	6	1	10	1148596	1	1	1	2	0	1218	2	4	0	168	10	0	0	100
random	6	1	11	1150187	5	4	4	1	0	815	1	4	0	192	11	0	0	100
random	6	1	12	1151596	3	3	3	1	0	930	1	4	0	184	12	0	0	100
random	6	1	13	1153620	5	2	2	1	0	837	1	4	0	176	13	0	0	100
random	6	1	14	1155301	1	4	4	1	0	670	1	4	0	192	14	0	0	100
random	6	1	15	1156449	3	1	1	1	0	645	1	4	0	168	15	0	0	100
random	6	1	16	1157531	4	3	3	1	0	831	1	4	0	184	16	0	0	100
random	6	1	17	1159258	6	4	4	1	0	686	1	4	0	192	17	0	0	100
random	6	1	18	1160607	2	1	1	1	0	829	1	4	0	168	18	0	0	100
random	6	1	19	1162062	5	3	3	1	0	791	1	4	0	184	19	0	0	100
random	6	1	20	1163260	2	2	2	1	0	476	1	4	0	176	20	0	0	100
random	6	1	21	1164727	3	3	3	1	0	903	1	4	0	184	21	0	0	100
random	6	1	22	1166315	6	1	1	1	0	883	1	4	0	168	22	0	0	100
random	6	1	23	1168165	4	2	2	1	0	637	1	4	0	176	23	0	0	100
random	6	1	24	1169741	1	4	4	1	0	610	1	4	0	192	24	0	0	100
random	6	1	25	1171230	4	3	3	2	0	1427	2	4	0	184	25	0	0	100
random	6	1	26	1173581	2	1	1	1	0	952	1	4	0	168	26	0	0	100
random	6	1	27	1175309	5	2	2	1	0	814	1	4	0	176	27	0	0	100
random	6	1	28	1176525	6	4	4	1	0	891	1	4	0	192	28	0	0	100
random	6	1	29	1178433	1	3	3	1	0	1026	1	4	0	184	29	0	0	100
random	6	1	30	1180404	5	2	2	1	0	710	1	4	0	176	30	0	0	100
random	6	1	31	1182101	2	1	1	1	0	839	1	4	0	168	31	0	0	100
random	6	1	32	1183933	3	3	3	1	0	977	1	4	0	184	32	0	0	100
random	6	1	33	1185650	6	4	4	1	0	696	1	4	0	192	33	0	0	100
random	6	1	34	1186865	4	2	2	1	0	781	1	4	0	176	34	0	0	100
random	6	1	35	1188105	3	4	4	1	0	848	1	4	0	192	35	0	0	100
random	6	1	36	1189730	1	1	1	1	0	715	1	4	0	168	36	0	0	100
random	6	1	37	1191028	3	4	4	1	0	996	1	4	0	192	37	0	0	100
random	6	1	38	1192539	5	3	3	1	0	925	1	4	0	184	38	0	0	100
random	6	1	39	1194334	6	1	1	1	0	1040	1	4	0	168	39	0	0	100
random	6	1	40	1196421	1	2	2	1	0	776	1	4	0	176	40	0	0	100
random	6	1	41	1197549	2	3	3	1	0	632	1	4	0	184	41	0	0	100
random	6	1	42	1199017	4	4	4	1	0	714	1	4	0	192	42	0	0	100
random	6	1	43	1200586	1	2	2	1	0	760	1	4	0	176	43	0	0	100
random	6	1	44	1201747	6	3	3	1	0	767	1	4	0	184	44	0	0	100
random	6	1	45	1203270	3	1	1	1	0	910	1	4	0	168	45	0	0	100
random	6	1	46	1204628	4	4	4	1	0	556	1	4	0	192	46	0	0	100
random	6	1	47	1205750	2	2	2	1	0	773	1	4	0	176	47	0	0	100
random	6	1	48	1207142	5	1	1	2	0	1202	2	4	0	168	48	0	0	100
random	6	1	49	1209223	2	3	3	1	0	1322	1	4	0	184	49	0	0	100
random	6	1	50	1210983	3	1	1	1	0	943	1	4	0	168	50	0	0	100
random	6	1	51	1212676	1	4	4	1	0	656	1	4	0	192	51	0	0	100
random	6	1	52	1213931	5	3	3	1	0	787	1	4	0	184	52	0	0	100
random	6	1	53	1215169	3	2	2	1	0	534	1	4	0	176	53	0	0	100
random	6	1	54	1216250	6	4	4	1	0	680	1	4	0	192	54	0	0	100
random	6	1	55	1217847	4	2	2	1	0	693	1	4	0	176	55	0	0	100
random	6	1	56	1218951	1	1	1	1	0	846	1	4	0	168	56	0	0	100
random	6	1	57	1220453	5	4	4	1	0	758	1	4	0	192	57	0	0	100
random	6	1	58	1221865	2	1	1	1	0	747	1	4	0	168	58	0	0	100
random	6	1	59	1223434	6	2	2	1	0	856	1	4	0	176	59	0	0	100
random	6	1	60	1224937	4	3	3	1	0	672	1	4	0	184	60	0	0	100
random	6	1	61	1226315	1	2	2	1	0	766	1	4	0	176	61	0	0	100
random	6	1	62	1228074	6	4	4	1	0	691	1	4	0	192	62	0	0	100
random	6	1	63	1229729	4	1	1	1	0	773	1	4	0	168	63	0	0	100
random	6	1	64	1231220	2	2	2	1	0	734	1	4	0	176	64	0	0	100
random	6	1	65	1232664	4	3	3	2	0	1177	2	4	0	184	65	0	0	100
random	6	1	66	1234715	3	1	1	1	0	898	1	4	0	168	66	0	0	100
random	6	1	67	1235903	1	3	3	1	0	752	1	4	0	184	67	0	0	100
random	6	1	68	1236978	5	4	4	1	0	754	1	4	0	192	68	0	0	100
random	6	1	69	1238364	2	2	2	1	0	784	1	4	0	176	69	0	0	100
random	6	1	70	1240161	3	1	1	1	0	876	1	4	0	168	70	0	0	100
random	6	1	71	1241382	5	4	4	1	0	840	1	4	0	192	71	0	0	100
random	6	1	72	1242780	6	3	3	1	0	773	1	4	0	184	72	0	0	100
random	6	1	73	1244844	2	1	1	1	0	765	1	4	0	168	73	0	0	100
random	6	1	74	1246293	5	3	3	1	0	792	1	4	0	184	74	0	0	100
random	6	1	75	1247408	1	4	4	1	0	721	1	4	0	192	75	0	0	100
random	6	1	76	1249086	6	2	2	1	0	681	1	4	0	176	76	0	0	100
random	6	1	77	1250627	2	1	1	1	0	864	1	4	0	168	77	0	0	100
random	6	1	78	1252216	4	4	4	1	0	597	1	4	0	192	78	0	0	100
random	6	1	79	1253155	3	2	2	1	0	853	1	4	0	176	79	0	0	100
random	6	1	80	1254593	4	3	3	1	0	600	1	4	0	184	80	0	0	100
random	6	1	81	1256183	1	4	4	1	0	845	1	4	0	192	81	0	0	100
random	6	1	82	1257374	5	1	1	1	0	586	1	4	0	168	82	0	0	100
random	6	1	83	1259007	3	2	2	1	0	686	1	4	0	176	83	0	0	100
random	6	1	84	1260235	6	3	3	1	0	521	1	4	0	184	84	0	0	100
random	6	1	85	1261919	3	2	2	1	0	930	1	4	0	176	85	0	0	100
random	6	1	86	1263367	1	3	3	1	0	989	1	4	0	184	86	0	0	100
random	6	1	87	1265156	4	4	4	1	0	729	1	4	0	192	87	0	0	100
random	6	1	88	1266575	2	1	1	1	0	637	1	4	0	168	88	0	0	100
random	6	1	89	1267928	6	4	4	1	0	764	1	4	0	192	89	0	0	100
random	6	1	90	1269632	3	3	3	1	0	900	1	4	0	184	90	0	0	100
random	6	1	91	1271524	5	4	4	1	0	835	1	4	0	192	91	0	0	100
random	6	1	92	1273125	1	2	2	1	0	712	1	4	0	176	92	0	0	100
random	6	1	93	1274490	5	1	1	1	0	758	1	4	0	168	93	0	0	100
random	6	1	94	1275619	4	3	3	1	0	1086	1	4	0	184	94	0	0	100
random	6	1	95	1277440	6	1	1	1	0	920	1	4	0	168	95	0	0	100
random	6	1	96	1278752	2	2	2	1	0	777	1	4	0	176	96	0	0	100
random	6	1	97	1280598	4	3	3	1	0	755	1	4	0	184	97	0	0	100
random	6	1	98	1282138	3	2	2	1	0	697	1	4	0	176	98	0	0	100
random	6	1	99	1283814	6	3	3	1	0	699	1	4	0	184	99	0	0	100
random	6	1	100	1284989	1	4	4	1	0	689	1	4	0	192	100	0	0	100
random	6	1	101	1286701	4	1	1	1	0	664	1	4	0	168	101	0	0	100
random	6	1	102	1288218	5	2	2	1	0	904	1	4	0	176	102	0	0	100
random	6	1	103	1290017	2	4	4	1	0	692	1	4	0	192	103	0	0	100
random	6	1	104	1291088	3	1	1	1	0	967	1	4	0	168	104	0	0	100
random	6	1	105	1292811	1	3	3	1	0	773	1	4	0	184	105	0	0	100
random	6	1	106	1294306	2	2	2	1	0	862	1	4	0	176	106	0	0	100
random	6	1	107	1296160	5	4	4	1	0	752	1	4	0	192	107	0	0	100
random	6	1	108	1297533	6	1	1	1	0	766	1	4	0	168	108	0	0	100
random	6	1	109	1299361	5	4	4	1	0	728	1	4	0	192	109	0	0	100
random	6	1	110	1300512	6	3	3	1	0	767	1	4	0	184	110	0	0	100
random	6	1	111	1301953	2	2	2	1	0	490	1	4	0	176	111	0	0	100
random	6	1	112	1303167	3	1	1	1	0	719	1	4	0	168	112	0	0	100
random	6	1	113	1304240	1	2	2	1	0	737	1	4	0	176	113	0	0	100
random	6	1	114	1305851	2	3	3	1	0	829	1	4	0	184	114	0	0	100
random	6	1	115	1307176	3	1	1	1	0	798	1	4	0	168	115	0	0	100
random	6	1	116	1308659	4	4	4	1	0	591	1	4	0	192	116	0	0	100
random	6	1	117	1309829	6	1	1	1	0	765	1	4	0	168	117	0	0	100
random	6	1	118	1311389	5	3	3	1	0	1034	1	4	0	184	118	0	0	100
random	6	1	119	1312862	1	4	4	1	0	828	1	4	0	192	119	0	0	100
random	6	1	120	1314495	4	2	2	1	0	687	1	4	0	176	120	0	0	100
fixed	7	1	1	1316751	4	1	1	1	0	719	1	4	0	200	1	0	0	100
fixed	7	1	2	1318229	1	2	2	2	0	1393	2	4	0	208	2	0	0	100
fixed	7	1	3	1319957	6	4	4	1	0	720	1	4	0	224	3	0	0	100
fixed	7	1	4	1321270	2	1	1	1	0	1192	1	4	0	200	4	0	0	100
fixed	7	1	5	1323290	5	3	3	1	0	747	1	4	0	216	5	0	0	100
fixed	7	1	6	1325028	6	4	4	1	0	665	1	4	0	224	6	0	0	100
fixed	7	1	7	1326566	3	1	1	1	0	736	1	4	0	200	7	0	0	100
fixed	7	1	8	1327886	2	3	3	2	0	1112	2	4	0	216	8	0	0	100
fixed	7	1	9	1329506	3	2	2	1	0	707	1	4	0	208	9	0	0	100
fixed	7	1	10	1330922	1	4	4	1	0	735	1	4	0	224	10	0	0	100
fixed	7	1	11	1332007	5	2	2	1	0	665	1	4	0	208	11	0	0	100
fixed	7	1	12	1333513	4	3	3	1	0	850	1	4	0	216	12	0	0	100
fixed	7	2	1	1335483	4	1	1	1	0	1062	1	4	0	200	1	0	0	8
fixed	7	2	2	1337276	1	2	2	1	0	754	1	4	0	208	2	0	0	14
fixed	7	2	3	1338759	6	4	4	1	0	699	1	4	0	224	3	0	0	20
fixed	7	2	4	1339977	2	1	1	1	0	1048	1	4	0	200	4	0	0	25
fixed	7	2	5	1341791	5	3	3	1	0	763	1	4	0	216	5	0	0	29
fixed	7	2	6	1343306	6	4	4	1	0	699	1	4	0	224	6	0	0	33
fixed	7	2	7	1344573	3	1	1	1	0	901	1	4	0	200	7	0	0	37
fixed	7	2	8	1346003	2	3	3	1	0	953	1	4	0	216	8	0	0	40
fixed	7	2	9	1347580	3	2	2	1	0	478	1	4	0	208	9	0	0	43
fixed	7	2	10	1348721	1	4	4	1	0	709	1	4	0	224	10	0	0	45
fixed	7	2	11	1350074	5	2	2	1	0	644	1	4	0	208	11	0	0	48
fixed	7	2	12	1351693	4	3	3	1	0	744	1	4	0	216	12	0	0	50
fixed	7	3	1	1353093	4	1	1	1	0	836	1	4	0	200	1	0	0	4
fixed	7	3	2	1354310	1	2	2	1	0	825	1	4	0	208	2	0	0	8
fixed	7	3	3	1355834	6	4	4	1	0	656	1	4	0	224	3	0	0	11
fixed	7	3	4	1357232	2	1	1	1	0	717	1	4	0	200	4	0	0	14
fixed	7	3	5	1358795	5	3	3	1	0	587	1	4	0	216	5	0	0	17
fixed	7	3	6	1360028	6	4	4	1	0	726	1	4	0	224	6	0	0	20
fixed	7	3	7	1361116	3	1	1	1	0	784	1	4	0	200	7	0	0	23
fixed	7	3	8	1362648	2	3	3	1	0	831	1	4	0	216	8	0	0	25
fixed	7	3	9	1364432	3	2	2	1	0	700	1	4	0	208	9	0	0	27
fixed	7	3	10	1365749	1	4	4	1	0	604	1	4	0	224	10	0	0	29
fixed	7	3	11	1367060	5	2	2	1	0	933	1	4	0	208	11	0	0	31
fixed	7	3	12	1368662	4	3	3	1	0	681	1	4	0	216	12	0	0	33
fixed	7	4	1	1369917	4	1	1	1	0	740	1	4	0	200	1	0	0	3
fixed	7	4	2	1371167	1	2	2	1	0	823	1	4	0	208	2	0	0	5
fixed	7	4	3	1372370	6	4	4	1	0	676	1	4	0	224	3	0	0	8
fixed	7	4	4	1373937	2	1	1	1	0	746	1	4	0	200	4	0	0	10
fixed	7	4	5	1375539	5	3	3	1	0	662	1	4	0	216	5	0	0	12
fixed	7	4	6	1376564	6	4	4	1	0	690	1	4	0	224	6	0	0	14
fixed	7	4	7	1378004	3	1	1	1	0	789	1	4	0	200	7	0	0	16
fixed	7	4	8	1379523	2	3	3	1	0	797	1	4	0	216	8	0	0	18
fixed	7	4	9	1381271	3	2	2	1	0	779	1	4	0	208	9	0	0	20
fixed	7	4	10	1383054	1	4	4	1	0	647	1	4	0	224	10	0	0	22
fixed	7	4	11	1384432	5	2	2	1	0	653	1	4	0	208	11	0	0	23
fixed	7	4	12	1386093	4	3	3	1	0	863	1	4	0	216	12	0	0	25
fixed	7	5	1	1387828	4	1	1	1	0	773	1	4	0	200	1	0	0	2
fixed	7	5	2	1389133	1	2	2	1	0	734	1	4	0	208	2	0	0	4
fixed	7	5	3	1390632	6	4	4	1	0	718	1	4	0	224	3	0	0	6
fixed	7	5	4	1392364	2	1	1	1	0	757	1	4	0	200	4	0	0	8
fixed	7	5	5	1393845	5	3	3	1	0	678	1	4	0	216	5	0	0	9
fixed	7	5	6	1395398	6	4	4	1	0	652	1	4	0	224	6	0	0	11
fixed	7	5	7	1396493	3	1	1	1	0	742	1	4	0	200	7	0	0	13
fixed	7	5	8	1397848	2	3	3	1	0	797	1	4	0	216	8	0	0	14
fixed	7	5	9	1399537	3	2	2	1	0	526	1	4	0	208	9	0	0	16
fixed	7	5	10	1400839	1	4	4	1	0	782	1	4	0	224	10	0	0	17
fixed	7	5	11	1402114	5	2	2	1	0	768	1	4	0	208	11	0	0	19
fixed	7	5	12	1403214	4	3	3	1	0	865	1	4	0	216	12	0	0	20
fixed	7	6	1	1404887	4	1	1	1	0	746	1	4	0	200	1	0	0	2
fixed	7	6	2	1405979	1	2	2	1	0	1060	1	4	0	208	2	0	0	3
fixed	7	6	3	1407765	6	4	4	1	0	633	1	4	0	224	3	0	0	5
fixed	7	6	4	1409031	2	1	1	1	0	747	1	4	0	200	4	0	0	6
fixed	7	6	5	1410274	5	3	3	1	0	559	1	4	0	216	5	0	0	8
fixed	7	6	6	1411232	6	4	4	1	0	694	1	4	0	224	6	0	0	9
fixed	7	6	7	1412802	3	1	1	1	0	708	1	4	0	200	7	0	0	10
fixed	7	6	8	1413860	2	3	3	1	0	942	1	4	0	216	8	0	0	12
fixed	7	6	9	1415658	3	2	2	1	0	499	1	4	0	208	9	0	0	13
fixed	7	6	10	1416901	1	4	4	1	0	566	1	4	0	224	10	0	0	14
fixed	7	6	11	1417759	5	2	2	1	0	754	1	4	0	208	11	0	0	15
fixed	7	6	12	1418850	4	3	3	1	0	708	1	4	0	216	12	0	0	17
fixed	7	7	1	1420625	4	1	1	1	0	976	1	4	0	200	1	0	0	1
fixed	7	7	2	1422034	1	2	2	1	0	812	1	4	0	208	2	0	0	3
fixed	7	7	3	1423410	6	4	4	1	0	802	1	4	0	224	3	0	0	4
fixed	7	7	4	1425159	2	1	1	1	0	672	1	4	0	200	4	0	0	5
fixed	7	7	5	1426500	5	3	3	1	0	655	1	4	0	216	5	0	0	6
fixed	7	7	6	1428121	6	4	4	2	0	1787	2	4	0	224	6	0	0	8
fixed	7	7	7	1430596	3	1	1	1	0	754	1	4	0	200	7	0	0	9
fixed	7	7	8	1432099	2	3	3	1	0	786	1	4	0	216	8	0	0	10
fixed	7	7	9	1433233	3	2	2	1	0	514	1	4	0	208	9	0	0	11
fixed	7	7	10	1434568	1	4	4	1	0	738	1	4	0	224	10	0	0	12
fixed	7	7	11	1436342	5	2	2	1	0	783	1	4	0	208	11	0	0	13
fixed	7	7	12	1437954	4	3	3	1	0	722	1	4	0	216	12	0	0	14
fixed	7	8	1	1439588	4	1	1	1	0	773	1	4	0	200	1	0	0	1
fixed	7	8	2	1440947	1	2	2	1	0	707	1	4	0	208	2	0	0	2
fixed	7	8	3	1442041	6	4	4	1	0	653	1	4	0	224	3	0	0	3
fixed	7	8	4	1443670	2	1	1	1	0	808	1	4	0	200	4	0	0	5
fixed	7	8	5	1444795	5	3	3	2	0	1193	2	4	0	216	5	0	0	6
fixed	7	8	6	1446568	6	4	4	1	0	734	1	4	0	224	6	0	0	7
fixed	7	8	7	1447754	3	1	1	1	0	1003	1	4	0	200	7	0	0	8
fixed	7	8	8	1449772	2	3	3	1	0	918	1	4	0	216	8	0	0	9
fixed	7	8	9	1451528	3	2	2	1	0	539	1	4	0	208	9	0	0	10
fixed	7	8	10	1453095	1	4	4	1	0	657	1	4	0	224	10	0	0	11
fixed	7	8	11	1454108	5	2	2	1	0	734	1	4	0	208	11	0	0	12
fixed	7	8	12	1455159	4	3	3	1	0	681	1	4	0	216	12	0	0	13
fixed	7	9	1	1456547	4	1	1	1	0	742	1	4	0	200	1	0	0	1
fixed	7	9	2	1458013	1	2	2	1	0	777	1	4	0	208	2	0	0	2
fixed	7	9	3	1459788	6	4	4	1	0	685	1	4	0	224	3	0	0	3
fixed	7	9	4	1461247	2	1	1	1	0	824	1	4	0	200	4	0	0	4
fixed	7	9	5	1462871	5	3	3	1	0	707	1	4	0	216	5	0	0	5
fixed	7	9	6	1464325	6	4	4	1	0	685	1	4	0	224	6	0	0	6
fixed	7	9	7	1465709	3	1	1	1	0	819	1	4	0	200	7	0	0	7
fixed	7	9	8	1467130	2	3	3	1	0	830	1	4	0	216	8	0	0	8
fixed	7	9	9	1468383	3	2	2	1	0	441	1	4	0	208	9	0	0	9
fixed	7	9	10	1469487	1	4	4	1	0	723	1	4	0	224	10	0	0	9
fixed	7	9	11	1471008	5	2	2	1	0	738	1	4	0	208	11	0	0	10
fixed	7	9	12	1472155	4	3	3	1	0	657	1	4	0	216	12	0	0	11
fixed	7	10	1	1473588	4	1	1	1	0	725	1	4	0	200	1	0	0	1
fixed	7	10	2	1474931	1	2	2	1	0	716	1	4	0	208	2	0	0	2
fixed	7	10	3	1476509	6	4	4	1	0	649	1	4	0	224	3	0	0	3
fixed	7	10	4	1477784	2	1	1	1	0	795	1	4	0	200	4	0	0	4
fixed	7	10	5	1479596	5	3	3	1	0	623	1	4	0	216	5	0	0	4
fixed	7	10	6	1481068	6	4	4	1	0	648	1	4	0	224	6	0	0	5
fixed	7	10	7	1482396	3	1	1	1	0	616	1	4	0	200	7	0	0	6
fixed	7	10	8	1483441	2	3	3	1	0	972	1	4	0	216	8	0	0	7
fixed	7	10	9	1485153	3	2	2	1	0	523	1	4	0	208	9	0	0	8
fixed	7	10	10	1486628	1	4	4	1	0	645	1	4	0	224	10	0	0	8
fixed	7	10	11	1488049	5	2	2	1	0	776	1	4	0	208	11	0	0	9
fixed	7	10	12	1489321	4	3	3	1	0	771	1	4	0	216	12	0	0	10
