type	block	sequ.	trial	time	Pos.	Color	Button	NumRsp	Resp_1	RT_1	R_Code	Resp_2	RT_2	Trigg.	n_hit	n_inc	n_miss	score_%

random	1	1	1	2061	6	1	1	1	0	994	1	4	0	8	1	0	0	100
random	1	1	2	3470	4	4	4	1	0	742	1	4	0	32	2	0	0	100
random	1	1	3	5113	2	2	2	1	0	753	1	4	0	16	3	0	0	100
random	1	1	4	6248	3	3	3	1	0	513	1	4	0	24	4	0	0	100
random	1	1	5	7785	5	2	2	1	0	856	1	4	0	16	5	0	0	100
random	1	1	6	9539	1	4	4	1	0	557	1	4	0	32	6	0	0	100
random	1	1	7	10457	6	1	1	1	0	758	1	4	0	8	7	0	0	100
random	1	1	8	11516	2	3	3	1	0	610	1	4	0	24	8	0	0	100
random	1	1	9	12780	4	2	2	1	0	788	1	4	0	16	9	0	0	100
random	1	1	10	14524	1	1	1	1	0	730	1	4	0	8	10	0	0	100
random	1	1	11	16137	5	4	4	1	0	726	1	4	0	32	11	0	0	100
random	1	1	12	17749	3	3	3	1	0	761	1	4	0	24	12	0	0	100
random	1	1	13	19204	5	2	2	1	0	844	1	4	0	16	13	0	0	100
random	1	1	14	20549	1	4	4	1	0	667	1	4	0	32	14	0	0	100
random	1	1	15	21553	3	1	1	1	0	729	1	4	0	8	15	0	0	100
random	1	1	16	22740	4	3	3	1	0	646	1	4	0	24	16	0	0	100
random	1	1	17	23999	6	4	4	1	0	697	1	4	0	32	17	0	0	100
random	1	1	18	25188	2	1	1	1	0	686	1	4	0	8	18	0	0	100
random	1	1	19	26641	5	3	3	1	0	689	1	4	0	24	19	0	0	100
random	1	1	20	28102	2	2	2	1	0	475	1	4	0	16	20	0	0	100
random	1	1	21	29112	3	3	3	1	0	856	1	4	0	24	21	0	0	100
random	1	1	22	30490	6	1	1	1	0	766	1	4	0	8	22	0	0	100
random	1	1	23	31570	4	2	2	1	0	808	1	4	0	16	23	0	0	100
random	1	1	24	32921	1	4	4	1	0	527	1	4	0	32	24	0	0	100
random	1	1	25	34041	4	3	3	2	0	1583	2	4	0	24	25	0	0	100
random	1	1	26	36659	2	1	1	1	0	761	1	4	0	8	26	0	0	100
random	1	1	27	38353	5	2	2	1	0	873	1	4	0	16	27	0	0	100
random	1	1	28	39767	6	4	4	1	0	845	1	4	0	32	28	0	0	100
random	1	1	29	41354	1	3	3	1	0	674	1	4	0	24	29	0	0	100
random	1	1	30	42497	5	2	2	1	0	601	1	4	0	16	30	0	0	100
random	1	1	31	43524	2	1	1	1	0	662	1	4	0	8	31	0	0	100
random	1	1	32	44652	3	3	3	1	0	782	1	4	0	24	32	0	0	100
random	1	1	33	45949	6	4	4	1	0	672	1	4	0	32	33	0	0	100
random	1	1	34	47238	4	2	2	1	0	800	1	4	0	16	34	0	0	100
random	1	1	35	48703	3	4	4	1	0	803	1	4	0	32	35	0	0	100
random	1	1	36	50114	1	1	1	1	0	743	1	4	0	8	36	0	0	100
random	1	1	37	51986	3	4	4	1	0	1183	1	4	0	32	37	0	0	100
random	1	1	38	53845	5	3	3	1	0	945	1	4	0	24	38	0	0	100
random	1	1	39	55810	6	1	1	1	0	813	1	4	0	8	39	0	0	100
random	1	1	40	56942	1	2	2	1	0	574	1	4	0	16	40	0	0	100
random	1	1	41	58253	2	3	3	1	0	598	1	4	0	24	41	0	0	100
random	1	1	42	59666	4	4	4	1	0	771	1	4	0	32	42	0	0	100
random	1	1	43	61453	1	2	2	1	0	767	1	4	0	16	43	0	0	100
random	1	1	44	62877	6	3	3	1	0	570	1	4	0	24	44	0	0	100
random	1	1	45	64259	3	1	1	1	0	848	1	4	0	8	45	0	0	100
random	1	1	46	65576	4	4	4	1	0	728	1	4	0	32	46	0	0	100
random	1	1	47	67055	2	2	2	1	0	761	1	4	0	16	47	0	0	100
random	1	1	48	68220	5	1	1	1	0	792	1	4	0	8	48	0	0	100
random	1	1	49	69746	2	3	3	1	0	1143	1	4	0	24	49	0	0	100
random	1	1	50	71228	3	1	1	1	0	929	1	4	0	8	50	0	0	100
random	1	1	51	72734	1	4	4	1	0	648	1	4	0	32	51	0	0	100
random	1	1	52	73686	5	3	3	1	0	784	1	4	0	24	52	0	0	100
random	1	1	53	74958	3	2	2	1	0	434	1	4	0	16	53	0	0	100
random	1	1	54	76258	6	4	4	1	0	732	1	4	0	32	54	0	0	100
random	1	1	55	77785	4	2	2	1	0	787	1	4	0	16	55	0	0	100
random	1	1	56	78976	1	1	1	1	0	848	1	4	0	8	56	0	0	100
random	1	1	57	80290	5	4	4	1	0	569	1	4	0	32	57	0	0	100
random	1	1	58	81826	2	1	1	1	0	799	1	4	0	8	58	0	0	100
random	1	1	59	82989	6	2	2	1	0	767	1	4	0	16	59	0	0	100
random	1	1	60	84616	4	3	3	1	0	681	1	4	0	24	60	0	0	100
random	1	1	61	86487	1	2	2	1	0	850	1	4	0	16	61	0	0	100
random	1	1	62	87836	6	4	4	1	0	617	1	4	0	32	62	0	0	100
random	1	1	63	89320	4	1	1	1	0	578	1	4	0	8	63	0	0	100
random	1	1	64	90257	2	2	2	1	0	755	1	4	0	16	64	0	0	100
random	1	1	65	91547	4	3	3	1	0	444	1	4	0	24	65	0	0	100
random	1	1	66	92476	3	1	1	1	0	669	1	4	0	8	66	0	0	100
random	1	1	67	93914	1	3	3	1	0	1048	1	4	0	24	67	0	0	100
random	1	1	68	95589	5	4	4	1	0	769	1	4	0	32	68	0	0	100
random	1	1	69	96952	2	2	2	1	0	1039	1	4	0	16	69	0	0	100
random	1	1	70	98920	3	1	1	1	0	723	1	4	0	8	70	0	0	100
random	1	1	71	100510	5	4	4	1	0	656	1	4	0	32	71	0	0	100
random	1	1	72	102077	6	3	3	1	0	734	1	4	0	24	72	0	0	100
random	1	1	73	103562	2	1	1	1	0	775	1	4	0	8	73	0	0	100
random	1	1	74	104932	5	3	3	1	0	829	1	4	0	24	74	0	0	100
random	1	1	75	106559	1	4	4	1	0	936	1	4	0	32	75	0	0	100
random	1	1	76	108115	6	2	2	1	0	686	1	4	0	16	76	0	0	100
random	1	1	77	109628	2	1	1	1	0	870	1	4	0	8	77	0	0	100
random	1	1	78	111340	4	4	4	1	0	686	1	4	0	32	78	0	0	100
random	1	1	79	112368	3	2	2	1	0	786	1	4	0	16	79	0	0	100
random	1	1	80	113752	4	3	3	1	0	623	1	4	0	24	80	0	0	100
random	1	1	81	115111	1	4	4	1	0	750	1	4	0	32	81	0	0	100
random	1	1	82	116427	5	1	1	1	0	869	1	4	0	8	82	0	0	100
random	1	1	83	117826	3	2	2	1	0	795	1	4	0	16	83	0	0	100
random	1	1	84	119512	6	3	3	1	0	620	1	4	0	24	84	0	0	100
random	1	1	85	120804	3	2	2	1	0	964	1	4	0	16	85	0	0	100
random	1	1	86	122296	1	3	3	1	0	645	1	4	0	24	86	0	0	100
random	1	1	87	123770	4	4	4	1	0	559	1	4	0	32	87	0	0	100
random	1	1	88	124628	2	1	1	1	0	682	1	4	0	8	88	0	0	100
random	1	1	89	126302	6	4	4	1	0	740	1	4	0	32	89	0	0	100
random	1	1	90	127536	3	3	3	1	0	711	1	4	0	24	90	0	0	100
random	1	1	91	129277	5	4	4	1	0	766	1	4	0	32	91	0	0	100
random	1	1	92	130796	1	2	2	1	0	765	1	4	0	16	92	0	0	100
random	1	1	93	132133	5	1	1	1	0	741	1	4	0	8	93	0	0	100
random	1	1	94	133860	4	3	3	1	0	676	1	4	0	24	94	0	0	100
random	1	1	95	135042	6	1	1	1	0	986	1	4	0	8	95	0	0	100
random	1	1	96	137028	2	2	2	1	0	765	1	4	0	16	96	0	0	100
random	1	1	97	138481	4	3	3	1	0	808	1	4	0	24	97	0	0	100
random	1	1	98	140261	3	2	2	1	0	741	1	4	0	16	98	0	0	100
random	1	1	99	141901	6	3	3	1	0	735	1	4	0	24	99	0	0	100
random	1	1	100	143094	1	4	4	1	0	692	1	4	0	32	100	0	0	100
random	1	1	101	144152	4	1	1	1	0	760	1	4	0	8	101	0	0	100
random	1	1	102	145469	5	2	2	1	0	664	1	4	0	16	102	0	0	100
random	1	1	103	147164	2	4	4	1	0	704	1	4	0	32	103	0	0	100
random	1	1	104	148562	3	1	1	1	0	885	1	4	0	8	104	0	0	100
random	1	1	105	150224	1	3	3	1	0	838	1	4	0	24	105	0	0	100
random	1	1	106	151738	2	2	2	1	0	855	1	4	0	16	106	0	0	100
random	1	1	107	153492	5	4	4	1	0	772	1	4	0	32	107	0	0	100
random	1	1	108	154820	6	1	1	1	0	828	1	4	0	8	108	0	0	100
random	1	1	109	156592	5	4	4	1	0	825	1	4	0	32	109	0	0	100
random	1	1	110	158092	6	3	3	1	0	834	1	4	0	24	110	0	0	100
random	1	1	111	159506	2	2	2	1	0	702	1	4	0	16	111	0	0	100
random	1	1	112	160824	3	1	1	1	0	814	1	4	0	8	112	0	0	100
random	1	1	113	161981	1	2	2	1	0	709	1	4	0	16	113	0	0	100
random	1	1	114	163291	2	3	3	1	0	597	1	4	0	24	114	0	0	100
random	1	1	115	164575	3	1	1	1	0	574	1	4	0	8	115	0	0	100
random	1	1	116	166038	4	4	4	1	0	505	1	4	0	32	116	0	0	100
random	1	1	117	167189	6	1	1	1	0	736	1	4	0	8	117	0	0	100
random	1	1	118	168588	5	3	3	1	0	1013	1	4	0	24	118	0	0	100
random	1	1	119	169949	1	4	4	1	0	995	1	4	0	32	119	0	0	100
random	1	1	120	171861	4	2	2	1	0	842	1	4	0	16	120	0	0	100
fixed	2	1	1	173598	4	1	1	1	0	752	1	4	0	40	1	0	0	100
fixed	2	1	2	175186	1	2	2	1	0	765	1	4	0	48	2	0	0	100
fixed	2	1	3	176475	6	4	4	1	0	687	1	4	0	64	3	0	0	100
fixed	2	1	4	178057	2	1	1	1	0	716	1	4	0	40	4	0	0	100
fixed	2	1	5	179292	5	3	3	1	0	888	1	4	0	56	5	0	0	100
fixed	2	1	6	180934	6	4	4	1	0	770	1	4	0	64	6	0	0	100
fixed	2	1	7	182395	3	1	1	1	0	796	1	4	0	40	7	0	0	100
fixed	2	1	8	183732	2	3	3	1	0	875	1	4	0	56	8	0	0	100
fixed	2	1	9	185620	3	2	2	1	0	923	1	4	0	48	9	0	0	100
fixed	2	1	10	186854	1	4	4	1	0	959	1	4	0	64	10	0	0	100
fixed	2	1	11	188569	5	2	2	1	0	726	1	4	0	48	11	0	0	100
fixed	2	1	12	189821	4	3	3	1	0	793	1	4	0	56	12	0	0	100
fixed	2	2	1	191762	4	1	1	1	0	743	1	4	0	40	13	0	0	100
fixed	2	2	2	193207	1	2	2	1	0	730	1	4	0	48	14	0	0	100
fixed	2	2	3	194262	6	4	4	1	0	678	1	4	0	64	15	0	0	100
fixed	2	2	4	195918	2	1	1	1	0	752	1	4	0	40	16	0	0	100
fixed	2	2	5	197358	5	3	3	1	0	674	1	4	0	56	17	0	0	100
fixed	2	2	6	198529	6	4	4	1	0	656	1	4	0	64	18	0	0	100
fixed	2	2	7	200178	3	1	1	1	0	635	1	4	0	40	19	0	0	100
fixed	2	2	8	201663	2	3	3	2	0	1252	2	4	0	56	20	0	0	100
fixed	2	2	9	203695	3	2	2	1	0	710	1	4	0	48	21	0	0	100
fixed	2	2	10	205018	1	4	4	1	0	686	1	4	0	64	22	0	0	100
fixed	2	2	11	206078	5	2	2	1	0	753	1	4	0	48	23	0	0	100
fixed	2	2	12	207361	4	3	3	1	0	771	1	4	0	56	24	0	0	100
fixed	2	3	1	208770	4	1	1	1	0	759	1	4	0	40	25	0	0	100
fixed	2	3	2	210178	1	2	2	1	0	731	1	4	0	48	26	0	0	100
fixed	2	3	3	211710	6	4	4	1	0	650	1	4	0	64	27	0	0	100
fixed	2	3	4	212660	2	1	1	1	0	722	1	4	0	40	28	0	0	100
fixed	2	3	5	214034	5	3	3	1	0	784	1	4	0	56	29	0	0	100
fixed	2	3	6	215632	6	4	4	1	0	613	1	4	0	64	30	0	0	100
fixed	2	3	7	217053	3	1	1	1	0	800	1	4	0	40	31	0	0	100
fixed	2	3	8	218138	2	3	3	1	0	714	1	4	0	56	32	0	0	100
fixed	2	3	9	219208	3	2	2	1	0	525	1	4	0	48	33	0	0	100
fixed	2	3	10	220761	1	4	4	1	0	619	1	4	0	64	34	0	0	100
fixed	2	3	11	221826	5	2	2	1	0	646	1	4	0	48	35	0	0	100
fixed	2	3	12	223109	4	3	3	1	0	943	1	4	0	56	36	0	0	100
fixed	2	4	1	224776	4	1	1	1	0	825	1	4	0	40	37	0	0	100
fixed	2	4	2	226171	1	2	2	1	0	750	1	4	0	48	38	0	0	100
fixed	2	4	3	227447	6	4	4	1	0	655	1	4	0	64	39	0	0	100
fixed	2	4	4	228668	2	1	1	1	0	1148	1	4	0	40	40	0	0	100
fixed	2	4	5	230474	5	3	3	1	0	775	1	4	0	56	41	0	0	100
fixed	2	4	6	231930	6	4	4	1	0	658	1	4	0	64	42	0	0	100
fixed	2	4	7	233381	3	1	1	1	0	668	1	4	0	40	43	0	0	100
fixed	2	4	8	234832	2	3	3	1	0	791	1	4	0	56	44	0	0	100
fixed	2	4	9	236475	3	2	2	1	0	465	1	4	0	48	45	0	0	100
fixed	2	4	10	237915	1	4	4	1	0	628	1	4	0	64	46	0	0	100
fixed	2	4	11	239276	5	2	2	1	0	738	1	4	0	48	47	0	0	100
fixed	2	4	12	240773	4	3	3	1	0	531	1	4	0	56	48	0	0	100
fixed	2	5	1	242169	4	1	1	1	0	744	1	4	0	40	49	0	0	100
fixed	2	5	2	243672	1	2	2	1	0	800	1	4	0	48	50	0	0	100
fixed	2	5	3	245122	6	4	4	1	0	635	1	4	0	64	51	0	0	100
fixed	2	5	4	246305	2	1	1	1	0	745	1	4	0	40	52	0	0	100
fixed	2	5	5	247434	5	3	3	1	0	609	1	4	0	56	53	0	0	100
fixed	2	5	6	248396	6	4	4	1	0	649	1	4	0	64	54	0	0	100
fixed	2	5	7	249744	3	1	1	1	0	503	1	4	0	40	55	0	0	100
fixed	2	5	8	250556	2	3	3	1	0	637	1	4	0	56	56	0	0	100
fixed	2	5	9	251555	3	2	2	1	0	515	1	4	0	48	57	0	0	100
fixed	2	5	10	253069	1	4	4	1	0	627	1	4	0	64	58	0	0	100
fixed	2	5	11	254023	5	2	2	1	0	794	1	4	0	48	59	0	0	100
fixed	2	5	12	255422	4	3	3	1	0	551	1	4	0	56	60	0	0	100
fixed	2	6	1	256588	4	1	1	1	0	1045	1	4	0	40	61	0	0	100
fixed	2	6	2	258319	1	2	2	1	0	700	1	4	0	48	62	0	0	100
fixed	2	6	3	260044	6	4	4	1	0	723	1	4	0	64	63	0	0	100
fixed	2	6	4	261247	2	1	1	1	0	656	1	4	0	40	64	0	0	100
fixed	2	6	5	262365	5	3	3	1	0	873	1	4	0	56	65	0	0	100
fixed	2	6	6	263561	6	4	4	1	0	790	1	4	0	64	66	0	0	100
fixed	2	6	7	265022	3	1	1	1	0	769	1	4	0	40	67	0	0	100
fixed	2	6	8	266205	2	3	3	1	0	838	1	4	0	56	68	0	0	100
fixed	2	6	9	267666	3	2	2	1	0	536	1	4	0	48	69	0	0	100
fixed	2	6	10	269142	1	4	4	1	0	594	1	4	0	64	70	0	0	100
fixed	2	6	11	270484	5	2	2	1	0	697	1	4	0	48	71	0	0	100
fixed	2	6	12	272071	4	3	3	1	0	718	1	4	0	56	72	0	0	100
fixed	2	7	1	273412	4	1	1	1	0	837	1	4	0	40	73	0	0	100
fixed	2	7	2	275117	1	2	2	1	0	709	1	4	0	48	74	0	0	100
fixed	2	7	3	276535	6	4	4	1	0	632	1	4	0	64	75	0	0	100
fixed	2	7	4	277624	2	1	1	1	0	730	1	4	0	40	76	0	0	100
fixed	2	7	5	279073	5	3	3	1	0	758	1	4	0	56	77	0	0	100
fixed	2	7	6	280163	6	4	4	2	0	983	2	4	0	64	78	0	0	100
fixed	2	7	7	282140	3	1	1	1	0	731	1	4	0	40	79	0	0	100
fixed	2	7	8	283901	2	3	3	1	0	705	1	4	0	56	80	0	0	100
fixed	2	7	9	285263	3	2	2	1	0	679	1	4	0	48	81	0	0	100
fixed	2	7	10	286355	1	4	4	1	0	713	1	4	0	64	82	0	0	100
fixed	2	7	11	287419	5	2	2	1	0	724	1	4	0	48	83	0	0	100
fixed	2	7	12	289180	4	3	3	1	0	625	1	4	0	56	84	0	0	100
fixed	2	8	1	290370	4	1	1	1	0	1302	1	4	0	40	85	0	0	100
fixed	2	8	2	292121	1	2	2	1	0	901	1	4	0	48	86	0	0	100
fixed	2	8	3	294005	6	4	4	1	0	693	1	4	0	64	87	0	0	100
fixed	2	8	4	295267	2	1	1	1	0	543	1	4	0	40	88	0	0	100
fixed	2	8	5	296371	5	3	3	1	0	504	1	4	0	56	89	0	0	100
fixed	2	8	6	297243	6	4	4	1	0	740	1	4	0	64	90	0	0	100
fixed	2	8	7	298423	3	1	1	1	0	577	1	4	0	40	91	0	0	100
fixed	2	8	8	299914	2	3	3	1	0	962	1	4	0	56	92	0	0	100
fixed	2	8	9	301248	3	2	2	1	0	634	1	4	0	48	93	0	0	100
fixed	2	8	10	302770	1	4	4	1	0	625	1	4	0	64	94	0	0	100
fixed	2	8	11	304164	5	2	2	1	0	679	1	4	0	48	95	0	0	100
fixed	2	8	12	305319	4	3	3	1	0	630	1	4	0	56	96	0	0	100
fixed	2	9	1	307195	4	1	1	1	0	670	1	4	0	40	97	0	0	100
fixed	2	9	2	308868	1	2	2	1	0	671	1	4	0	48	98	0	0	100
fixed	2	9	3	310467	6	4	4	1	0	603	1	4	0	64	99	0	0	100
fixed	2	9	4	311796	2	1	1	1	0	715	1	4	0	40	100	0	0	100
fixed	2	9	5	313135	5	3	3	1	0	659	1	4	0	56	101	0	0	100
fixed	2	9	6	314498	6	4	4	1	0	633	1	4	0	64	102	0	0	100
fixed	2	9	7	315515	3	1	1	1	0	1357	1	4	0	40	103	0	0	100
fixed	2	9	8	317857	2	3	3	1	0	826	1	4	0	56	104	0	0	100
fixed	2	9	9	319201	3	2	2	1	0	842	1	4	0	48	105	0	0	100
fixed	2	9	10	320631	1	4	4	1	0	709	1	4	0	64	106	0	0	100
fixed	2	9	11	321841	5	2	2	1	0	858	1	4	0	48	107	0	0	100
fixed	2	9	12	323360	4	3	3	1	0	610	1	4	0	56	108	0	0	100
fixed	2	10	1	324838	4	1	1	1	0	683	1	4	0	40	109	0	0	100
fixed	2	10	2	325855	1	2	2	1	0	735	1	4	0	48	110	0	0	100
fixed	2	10	3	327246	6	4	4	1	0	477	1	4	0	64	111	0	0	100
fixed	2	10	4	328432	2	1	1	1	0	706	1	4	0	40	112	0	0	100
fixed	2	10	5	329608	5	3	3	1	0	521	1	4	0	56	113	0	0	100
fixed	2	10	6	331001	6	4	4	2	0	685	2	4	0	64	114	0	0	100
fixed	2	10	7	332505	3	1	1	1	0	894	1	4	0	40	115	0	0	100
fixed	2	10	8	334212	2	3	3	1	0	862	1	4	0	56	116	0	0	100
fixed	2	10	9	335786	3	2	2	1	0	515	1	4	0	48	117	0	0	100
fixed	2	10	10	336838	1	4	4	1	0	534	1	4	0	64	118	0	0	100
fixed	2	10	11	337801	5	2	2	1	0	661	1	4	0	48	119	0	0	100
fixed	2	10	12	339462	4	3	3	2	0	959	2	4	0	56	120	0	0	100
fixed	3	1	1	341627	4	1	1	1	0	835	1	4	0	72	1	0	0	100
fixed	3	1	2	343488	1	2	2	1	0	701	1	4	0	80	2	0	0	100
fixed	3	1	3	344480	6	4	4	1	0	691	1	4	0	96	3	0	0	100
fixed	3	1	4	345817	2	1	1	1	0	770	1	4	0	72	4	0	0	100
fixed	3	1	5	347348	5	3	3	1	0	761	1	4	0	88	5	0	0	100
fixed	3	1	6	348434	6	4	4	1	0	835	1	4	0	96	6	0	0	100
fixed	3	1	7	349602	3	1	1	1	0	834	1	4	0	72	7	0	0	100
fixed	3	1	8	351467	2	3	3	1	0	891	1	4	0	88	8	0	0	100
fixed	3	1	9	353376	3	2	2	1	0	866	1	4	0	80	9	0	0	100
fixed	3	1	10	354891	1	4	4	1	0	578	1	4	0	96	10	0	0	100
fixed	3	1	11	356287	5	2	2	1	0	719	1	4	0	80	11	0	0	100
fixed	3	1	12	357516	4	3	3	1	0	818	1	4	0	88	12	0	0	100
fixed	3	2	1	359624	4	1	1	1	0	801	1	4	0	72	13	0	0	100
fixed	3	2	2	360893	1	2	2	1	0	723	1	4	0	80	14	0	0	100
fixed	3	2	3	362126	6	4	4	1	0	696	1	4	0	96	15	0	0	100
fixed	3	2	4	363168	2	1	1	1	0	771	1	4	0	72	16	0	0	100
fixed	3	2	5	364403	5	3	3	1	0	567	1	4	0	88	17	0	0	100
fixed	3	2	6	365529	6	4	4	1	0	655	1	4	0	96	18	0	0	100
fixed	3	2	7	366862	3	1	1	1	0	871	1	4	0	72	19	0	0	100
fixed	3	2	8	368076	2	3	3	1	0	875	1	4	0	88	20	0	0	100
fixed	3	2	9	369317	3	2	2	1	0	559	1	4	0	80	21	0	0	100
fixed	3	2	10	370227	1	4	4	1	0	729	1	4	0	96	22	0	0	100
fixed	3	2	11	371579	5	2	2	1	0	695	1	4	0	80	23	0	0	100
fixed	3	2	12	372644	4	3	3	1	0	658	1	4	0	88	24	0	0	100
fixed	3	3	1	374042	4	1	1	1	0	759	1	4	0	72	25	0	0	100
fixed	3	3	2	375301	1	2	2	1	0	849	1	4	0	80	26	0	0	100
fixed	3	3	3	376658	6	4	4	1	0	640	1	4	0	96	27	0	0	100
fixed	3	3	4	378218	2	1	1	1	0	702	1	4	0	72	28	0	0	100
fixed	3	3	5	379896	5	3	3	1	0	663	1	4	0	88	29	0	0	100
fixed	3	3	6	381038	6	4	4	1	0	679	1	4	0	96	30	0	0	100
fixed	3	3	7	382595	3	1	1	1	0	812	1	4	0	72	31	0	0	100
fixed	3	3	8	383709	2	3	3	1	0	709	1	4	0	88	32	0	0	100
fixed	3	3	9	384714	3	2	2	1	0	475	1	4	0	80	33	0	0	100
fixed	3	3	10	386003	1	4	4	1	0	564	1	4	0	96	34	0	0	100
fixed	3	3	11	386904	5	2	2	1	0	726	1	4	0	80	35	0	0	100
fixed	3	3	12	388598	4	3	3	1	0	1046	1	4	0	88	36	0	0	100
fixed	3	4	1	390550	4	1	1	1	0	819	1	4	0	72	37	0	0	100
fixed	3	4	2	392124	1	2	2	1	0	713	1	4	0	80	38	0	0	100
fixed	3	4	3	393501	6	4	4	1	0	583	1	4	0	96	39	0	0	100
fixed	3	4	4	394993	2	1	1	1	0	775	1	4	0	72	40	0	0	100
fixed	3	4	5	396629	5	3	3	1	0	786	1	4	0	88	41	0	0	100
fixed	3	4	6	398185	6	4	4	1	0	632	1	4	0	96	42	0	0	100
fixed	3	4	7	399152	3	1	1	1	0	823	1	4	0	72	43	0	0	100
fixed	3	4	8	401000	2	3	3	1	0	713	1	4	0	88	44	0	0	100
fixed	3	4	9	402398	3	2	2	1	0	502	1	4	0	80	45	0	0	100
fixed	3	4	10	403527	1	4	4	1	0	542	1	4	0	96	46	0	0	100
fixed	3	4	11	404951	5	2	2	1	0	1041	1	4	0	80	47	0	0	100
fixed	3	4	12	406461	4	3	3	1	0	738	1	4	0	88	48	0	0	100
fixed	3	5	1	408210	4	1	1	1	0	767	1	4	0	72	49	0	0	100
fixed	3	5	2	409749	1	2	2	1	0	742	1	4	0	80	50	0	0	100
fixed	3	5	3	411075	6	4	4	1	0	710	1	4	0	96	51	0	0	100
fixed	3	5	4	412541	2	1	1	1	0	680	1	4	0	72	52	0	0	100
fixed	3	5	5	413808	5	3	3	1	0	642	1	4	0	88	53	0	0	100
fixed	3	5	6	415289	6	4	4	1	0	684	1	4	0	96	54	0	0	100
fixed	3	5	7	416973	3	1	1	1	0	757	1	4	0	72	55	0	0	100
fixed	3	5	8	418181	2	3	3	1	0	801	1	4	0	88	56	0	0	100
fixed	3	5	9	419506	3	2	2	1	0	569	1	4	0	80	57	0	0	100
fixed	3	5	10	420439	1	4	4	1	0	633	1	4	0	96	58	0	0	100
fixed	3	5	11	422005	5	2	2	1	0	688	1	4	0	80	59	0	0	100
fixed	3	5	12	423113	4	3	3	1	0	632	1	4	0	88	60	0	0	100
fixed	3	6	1	424349	4	1	1	1	0	676	1	4	0	72	61	0	0	100
fixed	3	6	2	425920	1	2	2	1	0	825	1	4	0	80	62	0	0	100
fixed	3	6	3	427530	6	4	4	1	0	661	1	4	0	96	63	0	0	100
fixed	3	6	4	429078	2	1	1	1	0	611	1	4	0	72	64	0	0	100
fixed	3	6	5	430046	5	3	3	1	0	482	1	4	0	88	65	0	0	100
fixed	3	6	6	431150	6	4	4	1	0	764	1	4	0	96	66	0	0	100
fixed	3	6	7	432923	3	1	1	1	0	777	1	4	0	72	67	0	0	100
fixed	3	6	8	434570	2	3	3	1	0	923	1	4	0	88	68	0	0	100
fixed	3	6	9	435888	3	2	2	1	0	891	1	4	0	80	69	0	0	100
fixed	3	6	10	437096	1	4	4	1	0	688	1	4	0	96	70	0	0	100
fixed	3	6	11	438719	5	2	2	1	0	715	1	4	0	80	71	0	0	100
fixed	3	6	12	440252	4	3	3	1	0	714	1	4	0	88	72	0	0	100
fixed	3	7	1	442210	4	1	1	1	0	839	1	4	0	72	73	0	0	100
fixed	3	7	2	443574	1	2	2	1	0	838	1	4	0	80	74	0	0	100
fixed	3	7	3	445184	6	4	4	1	0	689	1	4	0	96	75	0	0	100
fixed	3	7	4	446603	2	1	1	1	0	1389	1	4	0	72	76	0	0	100
fixed	3	7	5	448802	5	3	3	1	0	864	1	4	0	88	77	0	0	100
fixed	3	7	6	450232	6	4	4	1	0	636	1	4	0	96	78	0	0	100
fixed	3	7	7	451299	3	1	1	1	0	934	1	4	0	72	79	0	0	100
fixed	3	7	8	452908	2	3	3	1	0	954	1	4	0	88	80	0	0	100
fixed	3	7	9	454843	3	2	2	1	0	440	1	4	0	80	81	0	0	100
fixed	3	7	10	456229	1	4	4	1	0	742	1	4	0	96	82	0	0	100
fixed	3	7	11	457984	5	2	2	1	0	747	1	4	0	80	83	0	0	100
fixed	3	7	12	459418	4	3	3	1	0	750	1	4	0	88	84	0	0	100
fixed	3	8	1	461039	4	1	1	1	0	690	1	4	0	72	85	0	0	100
fixed	3	8	2	462174	1	2	2	1	0	714	1	4	0	80	86	0	0	100
fixed	3	8	3	463524	6	4	4	1	0	689	1	4	0	96	87	0	0	100
fixed	3	8	4	465214	2	1	1	1	0	713	1	4	0	72	88	0	0	100
fixed	3	8	5	466879	5	3	3	1	0	483	1	4	0	88	89	0	0	100
fixed	3	8	6	467836	6	4	4	1	0	666	1	4	0	96	90	0	0	100
fixed	3	8	7	469408	3	1	1	1	0	735	1	4	0	72	91	0	0	100
fixed	3	8	8	471025	2	3	3	1	0	795	1	4	0	88	92	0	0	100
fixed	3	8	9	472826	3	2	2	1	0	655	1	4	0	80	93	0	0	100
fixed	3	8	10	474291	1	4	4	1	0	841	1	4	0	96	94	0	0	100
fixed	3	8	11	475996	5	2	2	1	0	800	1	4	0	80	95	0	0	100
fixed	3	8	12	477578	4	3	3	1	0	661	1	4	0	88	96	0	0	100
fixed	3	9	1	479518	4	1	1	1	0	707	1	4	0	72	97	0	0	100
fixed	3	9	2	481097	1	2	2	1	0	553	1	4	0	80	98	0	0	100
fixed	3	9	3	482621	6	4	4	1	0	656	1	4	0	96	99	0	0	100
fixed	3	9	4	484094	2	1	1	1	0	873	1	4	0	72	100	0	0	100
fixed	3	9	5	485622	5	3	3	1	0	729	1	4	0	88	101	0	0	100
fixed	3	9	6	487145	6	4	4	1	0	608	1	4	0	96	102	0	0	100
fixed	3	9	7	488733	3	1	1	1	0	693	1	4	0	72	103	0	0	100
fixed	3	9	8	489976	2	3	3	1	0	656	1	4	0	88	104	0	0	100
fixed	3	9	9	490957	3	2	2	1	0	471	1	4	0	80	105	0	0	100
fixed	3	9	10	491823	1	4	4	1	0	522	1	4	0	96	106	0	0	100
fixed	3	9	11	493069	5	2	2	1	0	597	1	4	0	80	107	0	0	100
fixed	3	9	12	494196	4	3	3	1	0	726	1	4	0	88	108	0	0	100
fixed	3	10	1	496092	4	1	1	1	0	685	1	4	0	72	109	0	0	100
fixed	3	10	2	497817	1	2	2	1	0	820	1	4	0	80	110	0	0	100
fixed	3	10	3	499363	6	4	4	1	0	675	1	4	0	96	111	0	0	100
fixed	3	10	4	500566	2	1	1	1	0	744	1	4	0	72	112	0	0	100
fixed	3	10	5	502183	5	3	3	1	0	611	1	4	0	88	113	0	0	100
fixed	3	10	6	503321	6	4	4	1	0	619	1	4	0	96	114	0	0	100
fixed	3	10	7	504259	3	1	1	1	0	827	1	4	0	72	115	0	0	100
fixed	3	10	8	505947	2	3	3	1	0	892	1	4	0	88	116	0	0	100
fixed	3	10	9	507575	3	2	2	1	0	487	1	4	0	80	117	0	0	100
fixed	3	10	10	508892	1	4	4	1	0	319	1	4	0	96	118	0	0	100
fixed	3	10	11	509845	5	2	2	1	0	663	1	4	0	80	119	0	0	100
fixed	3	10	12	511543	4	3	3	1	0	823	1	4	0	88	120	0	0	100
fixed	4	1	1	618473	4	1	1	1	0	662	1	4	0	104	1	0	0	100
fixed	4	1	2	620093	1	2	2	1	0	762	1	4	0	112	2	0	0	100
fixed	4	1	3	621286	6	4	4	1	0	519	1	4	0	128	3	0	0	100
fixed	4	1	4	622768	2	1	1	1	0	736	1	4	0	104	4	0	0	100
fixed	4	1	5	624443	5	3	3	1	0	585	1	4	0	120	5	0	0	100
fixed	4	1	6	626072	6	4	4	1	0	596	1	4	0	128	6	0	0	100
fixed	4	1	7	627521	3	1	1	1	0	727	1	4	0	104	7	0	0	100
fixed	4	1	8	628584	2	3	3	1	0	809	1	4	0	120	8	0	0	100
fixed	4	1	9	630349	3	2	2	1	0	519	1	4	0	112	9	0	0	100
fixed	4	1	10	631505	1	4	4	1	0	606	1	4	0	128	10	0	0	100
fixed	4	1	11	632851	5	2	2	1	0	781	1	4	0	112	11	0	0	100
fixed	4	1	12	633936	4	3	3	1	0	639	1	4	0	120	12	0	0	100
fixed	4	2	1	635400	4	1	1	1	0	793	1	4	0	104	13	0	0	100
fixed	4	2	2	637152	1	2	2	1	0	718	1	4	0	112	14	0	0	100
fixed	4	2	3	638728	6	4	4	1	0	700	1	4	0	128	15	0	0	100
fixed	4	2	4	639830	2	1	1	1	0	837	1	4	0	104	16	0	0	100
fixed	4	2	5	641244	5	3	3	1	0	762	1	4	0	120	17	0	0	100
fixed	4	2	6	642627	6	4	4	1	0	655	1	4	0	128	18	0	0	100
fixed	4	2	7	644097	3	1	1	1	0	801	1	4	0	104	19	0	0	100
fixed	4	2	8	645631	2	3	3	1	0	848	1	4	0	120	20	0	0	100
fixed	4	2	9	647244	3	2	2	1	0	459	1	4	0	112	21	0	0	100
fixed	4	2	10	648650	1	4	4	1	0	591	1	4	0	128	22	0	0	100
fixed	4	2	11	649965	5	2	2	1	0	760	1	4	0	112	23	0	0	100
fixed	4	2	12	651060	4	3	3	1	0	602	1	4	0	120	24	0	0	100
fixed	4	3	1	652559	4	1	1	1	0	850	1	4	0	104	25	0	0	100
fixed	4	3	2	653900	1	2	2	1	0	697	1	4	0	112	26	0	0	100
fixed	4	3	3	655347	6	4	4	1	0	572	1	4	0	128	27	0	0	100
fixed	4	3	4	656266	2	1	1	1	0	1021	1	4	0	104	28	0	0	100
fixed	4	3	5	658112	5	3	3	1	0	679	1	4	0	120	29	0	0	100
fixed	4	3	6	659227	6	4	4	1	0	696	1	4	0	128	30	0	0	100
fixed	4	3	7	660596	3	1	1	1	0	974	1	4	0	104	31	0	0	100
fixed	4	3	8	662585	2	3	3	1	0	881	1	4	0	120	32	0	0	100
fixed	4	3	9	664470	3	2	2	1	0	697	1	4	0	112	33	0	0	100
fixed	4	3	10	666030	1	4	4	1	0	504	1	4	0	128	34	0	0	100
fixed	4	3	11	667377	5	2	2	1	0	726	1	4	0	112	35	0	0	100
fixed	4	3	12	668608	4	3	3	1	0	475	1	4	0	120	36	0	0	100
fixed	4	4	1	669835	4	1	1	1	0	750	1	4	0	104	37	0	0	100
fixed	4	4	2	671410	1	2	2	1	0	700	1	4	0	112	38	0	0	100
fixed	4	4	3	672952	6	4	4	1	0	475	1	4	0	128	39	0	0	100
fixed	4	4	4	673793	2	1	1	1	0	774	1	4	0	104	40	0	0	100
fixed	4	4	5	675451	5	3	3	1	0	616	1	4	0	120	41	0	0	100
fixed	4	4	6	677004	6	4	4	1	0	663	1	4	0	128	42	0	0	100
fixed	4	4	7	678421	3	1	1	1	0	778	1	4	0	104	43	0	0	100
fixed	4	4	8	679583	2	3	3	1	0	770	1	4	0	120	44	0	0	100
fixed	4	4	9	681028	3	2	2	1	0	604	1	4	0	112	45	0	0	100
fixed	4	4	10	682119	1	4	4	1	0	558	1	4	0	128	46	0	0	100
fixed	4	4	11	683002	5	2	2	1	0	673	1	4	0	112	47	0	0	100
fixed	4	4	12	684274	4	3	3	1	0	627	1	4	0	120	48	0	0	100
fixed	4	5	1	685790	4	1	1	1	0	666	1	4	0	104	49	0	0	100
fixed	4	5	2	687224	1	2	2	1	0	638	1	4	0	112	50	0	0	100
fixed	4	5	3	688555	6	4	4	1	0	694	1	4	0	128	51	0	0	100
fixed	4	5	4	690280	2	1	1	1	0	725	1	4	0	104	52	0	0	100
fixed	4	5	5	691667	5	3	3	1	0	402	1	4	0	120	53	0	0	100
fixed	4	5	6	692419	6	4	4	1	0	674	1	4	0	128	54	0	0	100
fixed	4	5	7	693588	3	1	1	1	0	737	1	4	0	104	55	0	0	100
fixed	4	5	8	694664	2	3	3	1	0	771	1	4	0	120	56	0	0	100
fixed	4	5	9	696352	3	2	2	1	0	635	1	4	0	112	57	0	0	100
fixed	4	5	10	697752	1	4	4	1	0	600	1	4	0	128	58	0	0	100
fixed	4	5	11	699122	5	2	2	1	0	718	1	4	0	112	59	0	0	100
fixed	4	5	12	700708	4	3	3	1	0	627	1	4	0	120	60	0	0	100
fixed	4	6	1	702331	4	1	1	1	0	574	1	4	0	104	61	0	0	100
fixed	4	6	2	703266	1	2	2	1	0	806	1	4	0	112	62	0	0	100
fixed	4	6	3	705113	6	4	4	1	0	648	1	4	0	128	63	0	0	100
fixed	4	6	4	706651	2	1	1	1	0	663	1	4	0	104	64	0	0	100
fixed	4	6	5	707634	5	3	3	1	0	541	1	4	0	120	65	0	0	100
fixed	4	6	6	708919	6	4	4	1	0	655	1	4	0	128	66	0	0	100
fixed	4	6	7	709912	3	1	1	1	0	717	1	4	0	104	67	0	0	100
fixed	4	6	8	711227	2	3	3	1	0	797	1	4	0	120	68	0	0	100
fixed	4	6	9	712942	3	2	2	1	0	564	1	4	0	112	69	0	0	100
fixed	4	6	10	714237	1	4	4	1	0	526	1	4	0	128	70	0	0	100
fixed	4	6	11	715090	5	2	2	1	0	706	1	4	0	112	71	0	0	100
fixed	4	6	12	716164	4	3	3	1	0	516	1	4	0	120	72	0	0	100
fixed	4	7	1	717351	4	1	1	1	0	762	1	4	0	104	73	0	0	100
fixed	4	7	2	718477	1	2	2	1	0	890	1	4	0	112	74	0	0	100
fixed	4	7	3	720011	6	4	4	1	0	561	1	4	0	128	75	0	0	100
fixed	4	7	4	720934	2	1	1	1	0	938	1	4	0	104	76	0	0	100
fixed	4	7	5	722401	5	3	3	1	0	740	1	4	0	120	77	0	0	100
fixed	4	7	6	723721	6	4	4	1	0	692	1	4	0	128	78	0	0	100
fixed	4	7	7	725176	3	1	1	1	0	766	1	4	0	104	79	0	0	100
fixed	4	7	8	726711	2	3	3	1	0	677	1	4	0	120	80	0	0	100
fixed	4	7	9	728231	3	2	2	1	0	437	1	4	0	112	81	0	0	100
fixed	4	7	10	729593	1	4	4	1	0	612	1	4	0	128	82	0	0	100
fixed	4	7	11	730623	5	2	2	1	0	600	1	4	0	112	83	0	0	100
fixed	4	7	12	731777	4	3	3	1	0	703	1	4	0	120	84	0	0	100
fixed	4	8	1	733257	4	1	1	1	0	640	1	4	0	104	85	0	0	100
fixed	4	8	2	734638	1	2	2	1	0	702	1	4	0	112	86	0	0	100
fixed	4	8	3	736326	6	4	4	1	0	734	1	4	0	128	87	0	0	100
fixed	4	8	4	737651	2	1	1	2	0	1294	2	4	0	104	88	0	0	100
fixed	4	8	5	739484	5	3	3	1	0	705	1	4	0	120	89	0	0	100
fixed	4	8	6	741163	6	4	4	1	0	665	1	4	0	128	90	0	0	100
fixed	4	8	7	742828	3	1	1	1	0	674	1	4	0	104	91	0	0	100
fixed	4	8	8	743950	2	3	3	1	0	819	1	4	0	120	92	0	0	100
fixed	4	8	9	745552	3	2	2	1	0	607	1	4	0	112	93	0	0	100
fixed	4	8	10	746717	1	4	4	1	0	646	1	4	0	128	94	0	0	100
fixed	4	8	11	747724	5	2	2	1	0	619	1	4	0	112	95	0	0	100
fixed	4	8	12	749341	4	3	3	1	0	751	1	4	0	120	96	0	0	100
fixed	4	9	1	751101	4	1	1	1	0	820	1	4	0	104	97	0	0	100
fixed	4	9	2	752460	1	2	2	1	0	643	1	4	0	112	98	0	0	100
fixed	4	9	3	753870	6	4	4	1	0	655	1	4	0	128	99	0	0	100
fixed	4	9	4	755157	2	1	1	1	0	737	1	4	0	104	100	0	0	100
fixed	4	9	5	756645	5	3	3	1	0	713	1	4	0	120	101	0	0	100
fixed	4	9	6	757861	6	4	4	1	0	670	1	4	0	128	102	0	0	100
fixed	4	9	7	759510	3	1	1	1	0	624	1	4	0	104	103	0	0	100
fixed	4	9	8	760931	2	3	3	1	0	804	1	4	0	120	104	0	0	100
fixed	4	9	9	762414	3	2	2	1	0	405	1	4	0	112	105	0	0	100
fixed	4	9	10	763517	1	4	4	1	0	494	1	4	0	128	106	0	0	100
fixed	4	9	11	764633	5	2	2	1	0	695	1	4	0	112	107	0	0	100
fixed	4	9	12	766176	4	3	3	1	0	630	1	4	0	120	108	0	0	100
fixed	4	10	1	767675	4	1	1	1	0	606	1	4	0	104	109	0	0	100
fixed	4	10	2	769101	1	2	2	1	0	738	1	4	0	112	110	0	0	100
fixed	4	10	3	770637	6	4	4	1	0	657	1	4	0	128	111	0	0	100
fixed	4	10	4	772105	2	1	1	1	0	915	1	4	0	104	112	0	0	100
fixed	4	10	5	773469	5	3	3	1	0	713	1	4	0	120	113	0	0	100
fixed	4	10	6	774955	6	4	4	1	0	698	1	4	0	128	114	0	0	100
fixed	4	10	7	776386	3	1	1	1	0	534	1	4	0	104	115	0	0	100
fixed	4	10	8	777453	2	3	3	1	0	776	1	4	0	120	116	0	0	100
fixed	4	10	9	778555	3	2	2	1	0	450	1	4	0	112	117	0	0	100
fixed	4	10	10	779839	1	4	4	1	0	667	1	4	0	128	118	0	0	100
fixed	4	10	11	781366	5	2	2	1	0	779	1	4	0	112	119	0	0	100
fixed	4	10	12	782768	4	3	3	1	0	703	1	4	0	120	120	0	0	100
fixed	5	1	1	784831	4	1	1	1	0	424	1	4	0	136	1	0	0	100
fixed	5	1	2	786216	1	2	2	1	0	733	1	4	0	144	2	0	0	100
fixed	5	1	3	787467	6	4	4	1	0	616	1	4	0	160	3	0	0	100
fixed	5	1	4	788887	2	1	1	1	0	724	1	4	0	136	4	0	0	100
fixed	5	1	5	790049	5	3	3	1	0	651	1	4	0	152	5	0	0	100
fixed	5	1	6	791361	6	4	4	1	0	579	1	4	0	160	6	0	0	100
fixed	5	1	7	792741	3	1	1	1	0	673	1	4	0	136	7	0	0	100
fixed	5	1	8	793725	2	3	3	1	0	815	1	4	0	152	8	0	0	100
fixed	5	1	9	794853	3	2	2	1	0	504	1	4	0	144	9	0	0	100
fixed	5	1	10	795930	1	4	4	1	0	626	1	4	0	160	10	0	0	100
fixed	5	1	11	796925	5	2	2	1	0	712	1	4	0	144	11	0	0	100
fixed	5	1	12	798534	4	3	3	1	0	715	1	4	0	152	12	0	0	100
fixed	5	2	1	800321	4	1	1	1	0	640	1	4	0	136	13	0	0	100
fixed	5	2	2	801309	1	2	2	1	0	662	1	4	0	144	14	0	0	100
fixed	5	2	3	802738	6	4	4	1	0	666	1	4	0	160	15	0	0	100
fixed	5	2	4	803913	2	1	1	1	0	687	1	4	0	136	16	0	0	100
fixed	5	2	5	805536	5	3	3	1	0	699	1	4	0	152	17	0	0	100
fixed	5	2	6	807025	6	4	4	1	0	612	1	4	0	160	18	0	0	100
fixed	5	2	7	808673	3	1	1	1	0	726	1	4	0	136	19	0	0	100
fixed	5	2	8	810172	2	3	3	2	0	1143	2	4	0	152	20	0	0	100
fixed	5	2	9	812281	3	2	2	1	0	733	1	4	0	144	21	0	0	100
fixed	5	2	10	813851	1	4	4	1	0	667	1	4	0	160	22	0	0	100
fixed	5	2	11	815311	5	2	2	1	0	813	1	4	0	144	23	0	0	100
fixed	5	2	12	816958	4	3	3	1	0	751	1	4	0	152	24	0	0	100
fixed	5	3	1	818733	4	1	1	1	0	692	1	4	0	136	25	0	0	100
fixed	5	3	2	820020	1	2	2	1	0	613	1	4	0	144	26	0	0	100
fixed	5	3	3	821482	6	4	4	1	0	568	1	4	0	160	27	0	0	100
fixed	5	3	4	822871	2	1	1	1	0	501	1	4	0	136	28	0	0	100
fixed	5	3	5	823893	5	3	3	1	0	633	1	4	0	152	29	0	0	100
fixed	5	3	6	825382	6	4	4	1	0	706	1	4	0	160	30	0	0	100
fixed	5	3	7	826565	3	1	1	1	0	896	1	4	0	136	31	0	0	100
fixed	5	3	8	828129	2	3	3	1	0	798	1	4	0	152	32	0	0	100
fixed	5	3	9	829472	3	2	2	1	0	493	1	4	0	144	33	0	0	100
fixed	5	3	10	830775	1	4	4	1	0	662	1	4	0	160	34	0	0	100
fixed	5	3	11	832238	5	2	2	1	0	728	1	4	0	144	35	0	0	100
fixed	5	3	12	833633	4	3	3	1	0	813	1	4	0	152	36	0	0	100
fixed	5	4	1	835641	4	1	1	1	0	735	1	4	0	136	37	0	0	100
fixed	5	4	2	837220	1	2	2	1	0	685	1	4	0	144	38	0	0	100
fixed	5	4	3	838643	6	4	4	1	0	673	1	4	0	160	39	0	0	100
fixed	5	4	4	839839	2	1	1	1	0	750	1	4	0	136	40	0	0	100
fixed	5	4	5	841124	5	3	3	1	0	679	1	4	0	152	41	0	0	100
fixed	5	4	6	842220	6	4	4	1	0	769	1	4	0	160	42	0	0	100
fixed	5	4	7	843877	3	1	1	1	0	731	1	4	0	136	43	0	0	100
fixed	5	4	8	844978	2	3	3	1	0	772	1	4	0	152	44	0	0	100
fixed	5	4	9	846061	3	2	2	1	0	463	1	4	0	144	45	0	0	100
fixed	5	4	10	846887	1	4	4	1	0	659	1	4	0	160	46	0	0	100
fixed	5	4	11	848068	5	2	2	1	0	746	1	4	0	144	47	0	0	100
fixed	5	4	12	849678	4	3	3	1	0	677	1	4	0	152	48	0	0	100
fixed	5	5	1	851631	4	1	1	1	0	754	1	4	0	136	49	0	0	100
fixed	5	5	2	853425	1	2	2	1	0	799	1	4	0	144	50	0	0	100
fixed	5	5	3	854784	6	4	4	1	0	773	1	4	0	160	51	0	0	100
fixed	5	5	4	856474	2	1	1	1	0	1077	1	4	0	136	52	0	0	100
fixed	5	5	5	858332	5	3	3	1	0	615	1	4	0	152	53	0	0	100
fixed	5	5	6	859788	6	4	4	1	0	681	1	4	0	160	54	0	0	100
fixed	5	5	7	860846	3	1	1	1	0	868	1	4	0	136	55	0	0	100
fixed	5	5	8	862603	2	3	3	1	0	690	1	4	0	152	56	0	0	100
fixed	5	5	9	863769	3	2	2	1	0	720	1	4	0	144	57	0	0	100
fixed	5	5	10	864845	1	4	4	1	0	619	1	4	0	160	58	0	0	100
fixed	5	5	11	866078	5	2	2	1	0	655	1	4	0	144	59	0	0	100
fixed	5	5	12	867088	4	3	3	1	0	716	1	4	0	152	60	0	0	100
fixed	5	6	1	868639	4	1	1	1	0	730	1	4	0	136	61	0	0	100
fixed	5	6	2	870371	1	2	2	1	0	697	1	4	0	144	62	0	0	100
fixed	5	6	3	871983	6	4	4	1	0	644	1	4	0	160	63	0	0	100
fixed	5	6	4	873356	2	1	1	1	0	698	1	4	0	136	64	0	0	100
fixed	5	6	5	875086	5	3	3	2	0	1057	2	4	0	152	65	0	0	100
fixed	5	6	6	876458	6	4	4	1	0	783	1	4	0	160	66	0	0	100
fixed	5	6	7	877794	3	1	1	1	0	814	1	4	0	136	67	0	0	100
fixed	5	6	8	879527	2	3	3	1	0	621	1	4	0	152	68	0	0	100
fixed	5	6	9	880540	3	2	2	1	0	690	1	4	0	144	69	0	0	100
fixed	5	6	10	881713	1	4	4	1	0	793	1	4	0	160	70	0	0	100
fixed	5	6	11	882882	5	2	2	1	0	719	1	4	0	144	71	0	0	100
fixed	5	6	12	884411	4	3	3	1	0	678	1	4	0	152	72	0	0	100
fixed	5	7	1	885664	4	1	1	1	0	769	1	4	0	136	73	0	0	100
fixed	5	7	2	886854	1	2	2	1	0	694	1	4	0	144	74	0	0	100
fixed	5	7	3	888537	6	4	4	1	0	599	1	4	0	160	75	0	0	100
fixed	5	7	4	889837	2	1	1	1	0	889	1	4	0	136	76	0	0	100
fixed	5	7	5	891133	5	3	3	1	0	593	1	4	0	152	77	0	0	100
fixed	5	7	6	892448	6	4	4	1	0	705	1	4	0	160	78	0	0	100
fixed	5	7	7	894015	3	1	1	1	0	711	1	4	0	136	79	0	0	100
fixed	5	7	8	895482	2	3	3	1	0	849	1	4	0	152	80	0	0	100
fixed	5	7	9	896837	3	2	2	1	0	664	1	4	0	144	81	0	0	100
fixed	5	7	10	897901	1	4	4	1	0	715	1	4	0	160	82	0	0	100
fixed	5	7	11	899534	5	2	2	1	0	669	1	4	0	144	83	0	0	100
fixed	5	7	12	900974	4	3	3	1	0	729	1	4	0	152	84	0	0	100
fixed	5	8	1	902673	4	1	1	1	0	640	1	4	0	136	85	0	0	100
fixed	5	8	2	904258	1	2	2	1	0	453	1	4	0	144	86	0	0	100
fixed	5	8	3	905313	6	4	4	1	0	633	1	4	0	160	87	0	0	100
fixed	5	8	4	906364	2	1	1	1	0	692	1	4	0	136	88	0	0	100
fixed	5	8	5	907761	5	3	3	1	0	521	1	4	0	152	89	0	0	100
fixed	5	8	6	908636	6	4	4	1	0	732	1	4	0	160	90	0	0	100
fixed	5	8	7	909957	3	1	1	1	0	588	1	4	0	136	91	0	0	100
fixed	5	8	8	911413	2	3	3	1	0	798	1	4	0	152	92	0	0	100
fixed	5	8	9	913034	3	2	2	1	0	658	1	4	0	144	93	0	0	100
fixed	5	8	10	914195	1	4	4	1	0	665	1	4	0	160	94	0	0	100
fixed	5	8	11	915430	5	2	2	1	0	684	1	4	0	144	95	0	0	100
fixed	5	8	12	916546	4	3	3	1	0	965	1	4	0	152	96	0	0	100
fixed	5	9	1	918077	4	1	1	1	0	676	1	4	0	136	97	0	0	100
fixed	5	9	2	919362	1	2	2	1	0	709	1	4	0	144	98	0	0	100
fixed	5	9	3	920678	6	4	4	1	0	630	1	4	0	160	99	0	0	100
fixed	5	9	4	921645	2	1	1	1	0	805	1	4	0	136	100	0	0	100
fixed	5	9	5	923407	5	3	3	1	0	682	1	4	0	152	101	0	0	100
fixed	5	9	6	924629	6	4	4	1	0	695	1	4	0	160	102	0	0	100
fixed	5	9	7	926110	3	1	1	1	0	728	1	4	0	136	103	0	0	100
fixed	5	9	8	927487	2	3	3	1	0	782	1	4	0	152	104	0	0	100
fixed	5	9	9	928719	3	2	2	1	0	425	1	4	0	144	105	0	0	100
fixed	5	9	10	929647	1	4	4	1	0	410	1	4	0	160	106	0	0	100
fixed	5	9	11	930746	5	2	2	1	0	604	1	4	0	144	107	0	0	100
fixed	5	9	12	931957	4	3	3	1	0	673	1	4	0	152	108	0	0	100
fixed	5	10	1	933816	4	1	1	1	0	737	1	4	0	136	109	0	0	100
fixed	5	10	2	934895	1	2	2	1	0	676	1	4	0	144	110	0	0	100
fixed	5	10	3	936529	6	4	4	1	0	535	1	4	0	160	111	0	0	100
fixed	5	10	4	938037	2	1	1	1	0	775	1	4	0	136	112	0	0	100
fixed	5	10	5	939372	5	3	3	1	0	406	1	4	0	152	113	0	0	100
fixed	5	10	6	940590	6	4	4	2	0	1051	2	4	0	160	114	0	0	100
fixed	5	10	7	942585	3	1	1	1	0	798	1	4	0	136	115	0	0	100
fixed	5	10	8	944311	2	3	3	1	0	1229	1	4	0	152	116	0	0	100
fixed	5	10	9	945910	3	2	2	1	0	713	1	4	0	144	117	0	0	100
fixed	5	10	10	947644	1	4	4	1	0	720	1	4	0	160	118	0	0	100
fixed	5	10	11	949061	5	2	2	1	0	652	1	4	0	144	119	0	0	100
fixed	5	10	12	950028	4	3	3	1	0	731	1	4	0	152	120	0	0	100
random	6	1	1	1041076	6	1	1	1	0	898	1	4	0	168	1	0	0	100
random	6	1	2	1042814	4	4	4	1	0	697	1	4	0	192	2	0	0	100
random	6	1	3	1044288	2	2	2	1	0	778	1	4	0	176	3	0	0	100
random	6	1	4	1045665	3	3	3	1	0	632	1	4	0	184	4	0	0	100
random	6	1	5	1047046	5	2	2	1	0	790	1	4	0	176	5	0	0	100
random	6	1	6	1048161	1	4	4	1	0	574	1	4	0	192	6	0	0	100
random	6	1	7	1049625	6	1	1	1	0	641	1	4	0	168	7	0	0	100
random	6	1	8	1051280	2	3	3	1	0	1067	1	4	0	184	8	0	0	100
random	6	1	9	1053226	4	2	2	1	0	584	1	4	0	176	9	0	0	100
random	6	1	10	1054714	1	1	1	1	0	649	1	4	0	168	10	0	0	100
random	6	1	11	1056142	5	4	4	1	0	541	1	4	0	192	11	0	0	100
random	6	1	12	1057577	3	3	3	1	0	696	1	4	0	184	12	0	0	100
random	6	1	13	1058973	5	2	2	1	0	916	1	4	0	176	13	0	0	100
random	6	1	14	1060276	1	4	4	1	0	621	1	4	0	192	14	0	0	100
random	6	1	15	1061267	3	1	1	1	0	843	1	4	0	168	15	0	0	100
random	6	1	16	1062864	4	3	3	1	0	927	1	4	0	184	16	0	0	100
random	6	1	17	1064526	6	4	4	1	0	769	1	4	0	192	17	0	0	100
random	6	1	18	1065934	2	1	1	1	0	774	1	4	0	168	18	0	0	100
random	6	1	19	1067250	5	3	3	1	0	750	1	4	0	184	19	0	0	100
random	6	1	20	1068522	2	2	2	1	0	448	1	4	0	176	20	0	0	100
random	6	1	21	1069288	3	3	3	1	0	776	1	4	0	184	21	0	0	100
random	6	1	22	1070420	6	1	1	1	0	880	1	4	0	168	22	0	0	100
random	6	1	23	1071677	4	2	2	1	0	699	1	4	0	176	23	0	0	100
random	6	1	24	1073268	1	4	4	1	0	503	1	4	0	192	24	0	0	100
random	6	1	25	1074895	4	3	3	1	0	1170	1	4	0	184	25	0	0	100
random	6	1	26	1076939	2	1	1	1	0	836	1	4	0	168	26	0	0	100
random	6	1	27	1078090	5	2	2	1	0	603	1	4	0	176	27	0	0	100
random	6	1	28	1079406	6	4	4	1	0	499	1	4	0	192	28	0	0	100
random	6	1	29	1080874	1	3	3	1	0	733	1	4	0	184	29	0	0	100
random	6	1	30	1082394	5	2	2	1	0	717	1	4	0	176	30	0	0	100
random	6	1	31	1083688	2	1	1	1	0	966	1	4	0	168	31	0	0	100
random	6	1	32	1085512	3	3	3	1	0	745	1	4	0	184	32	0	0	100
random	6	1	33	1087282	6	4	4	1	0	662	1	4	0	192	33	0	0	100
random	6	1	34	1088770	4	2	2	1	0	703	1	4	0	176	34	0	0	100
random	6	1	35	1089827	3	4	4	1	0	842	1	4	0	192	35	0	0	100
random	6	1	36	1091513	1	1	1	1	0	403	1	4	0	168	36	0	0	100
random	6	1	37	1092705	3	4	4	2	0	1664	2	4	0	192	37	0	0	100
random	6	1	38	1095362	5	3	3	1	0	1319	1	4	0	184	38	0	0	100
random	6	1	39	1097687	6	1	1	1	0	917	1	4	0	168	39	0	0	100
random	6	1	40	1098912	1	2	2	1	0	721	1	4	0	176	40	0	0	100
random	6	1	41	1100611	2	3	3	1	0	753	1	4	0	184	41	0	0	100
random	6	1	42	1102220	4	4	4	1	0	701	1	4	0	192	42	0	0	100
random	6	1	43	1103388	1	2	2	1	0	707	1	4	0	176	43	0	0	100
random	6	1	44	1104760	6	3	3	1	0	793	1	4	0	184	44	0	0	100
random	6	1	45	1106090	3	1	1	1	0	801	1	4	0	168	45	0	0	100
random	6	1	46	1107671	4	4	4	2	0	1230	2	4	0	192	46	0	0	100
random	6	1	47	1109681	2	2	2	1	0	817	1	4	0	176	47	0	0	100
random	6	1	48	1110810	5	1	1	1	0	1033	1	4	0	168	48	0	0	100
random	6	1	49	1112905	2	3	3	1	0	880	1	4	0	184	49	0	0	100
random	6	1	50	1114436	3	1	1	1	0	936	1	4	0	168	50	0	0	100
random	6	1	51	1116090	1	4	4	1	0	706	1	4	0	192	51	0	0	100
random	6	1	52	1117139	5	3	3	1	0	781	1	4	0	184	52	0	0	100
random	6	1	53	1118268	3	2	2	1	0	501	1	4	0	176	53	0	0	100
random	6	1	54	1119345	6	4	4	1	0	632	1	4	0	192	54	0	0	100
random	6	1	55	1120912	4	2	2	1	0	789	1	4	0	176	55	0	0	100
random	6	1	56	1122167	1	1	1	1	0	856	1	4	0	168	56	0	0	100
random	6	1	57	1123751	5	4	4	1	0	709	1	4	0	192	57	0	0	100
random	6	1	58	1125052	2	1	1	1	0	838	1	4	0	168	58	0	0	100
random	6	1	59	1126609	6	2	2	1	0	788	1	4	0	176	59	0	0	100
random	6	1	60	1127886	4	3	3	1	0	494	1	4	0	184	60	0	0	100
random	6	1	61	1129295	1	2	2	1	0	1050	1	4	0	176	61	0	0	100
random	6	1	62	1131005	6	4	4	1	0	698	1	4	0	192	62	0	0	100
random	6	1	63	1132263	4	1	1	1	0	773	1	4	0	168	63	0	0	100
random	6	1	64	1133930	2	2	2	1	0	766	1	4	0	176	64	0	0	100
random	6	1	65	1135341	4	3	3	1	0	706	1	4	0	184	65	0	0	100
random	6	1	66	1136506	3	1	1	1	0	745	1	4	0	168	66	0	0	100
random	6	1	67	1138011	1	3	3	1	0	865	1	4	0	184	67	0	0	100
random	6	1	68	1139177	5	4	4	1	0	688	1	4	0	192	68	0	0	100
random	6	1	69	1140281	2	2	2	1	0	737	1	4	0	176	69	0	0	100
random	6	1	70	1141419	3	1	1	1	0	473	1	4	0	168	70	0	0	100
random	6	1	71	1142864	5	4	4	1	0	667	1	4	0	192	71	0	0	100
random	6	1	72	1144257	6	3	3	1	0	776	1	4	0	184	72	0	0	100
random	6	1	73	1146187	2	1	1	1	0	758	1	4	0	168	73	0	0	100
random	6	1	74	1147876	5	3	3	1	0	695	1	4	0	184	74	0	0	100
random	6	1	75	1149519	1	4	4	1	0	730	1	4	0	192	75	0	0	100
random	6	1	76	1151029	6	2	2	1	0	770	1	4	0	176	76	0	0	100
random	6	1	77	1152590	2	1	1	2	0	1479	2	4	0	168	77	0	0	100
random	6	1	78	1154618	4	4	4	1	0	698	1	4	0	192	78	0	0	100
random	6	1	79	1156318	3	2	2	1	0	786	1	4	0	176	79	0	0	100
random	6	1	80	1158025	4	3	3	1	0	673	1	4	0	184	80	0	0	100
random	6	1	81	1159415	1	4	4	1	0	711	1	4	0	192	81	0	0	100
random	6	1	82	1160428	5	1	1	1	0	739	1	4	0	168	82	0	0	100
random	6	1	83	1162094	3	2	2	1	0	757	1	4	0	176	83	0	0	100
random	6	1	84	1163771	6	3	3	1	0	806	1	4	0	184	84	0	0	100
random	6	1	85	1165801	3	2	2	1	0	784	1	4	0	176	85	0	0	100
random	6	1	86	1167538	1	3	3	1	0	654	1	4	0	184	86	0	0	100
random	6	1	87	1169095	4	4	4	1	0	628	1	4	0	192	87	0	0	100
random	6	1	88	1170446	2	1	1	1	0	563	1	4	0	168	88	0	0	100
random	6	1	89	1171487	6	4	4	1	0	831	1	4	0	192	89	0	0	100
random	6	1	90	1172663	3	3	3	1	0	893	1	4	0	184	90	0	0	100
random	6	1	91	1174161	5	4	4	1	0	814	1	4	0	192	91	0	0	100
random	6	1	92	1175498	1	2	2	1	0	605	1	4	0	176	92	0	0	100
random	6	1	93	1177065	5	1	1	1	0	963	1	4	0	168	93	0	0	100
random	6	1	94	1178585	4	3	3	1	0	938	1	4	0	184	94	0	0	100
random	6	1	95	1180414	6	1	1	1	0	982	1	4	0	168	95	0	0	100
random	6	1	96	1182135	2	2	2	1	0	748	1	4	0	176	96	0	0	100
random	6	1	97	1183963	4	3	3	1	0	830	1	4	0	184	97	0	0	100
random	6	1	98	1185553	3	2	2	1	0	731	1	4	0	176	98	0	0	100
random	6	1	99	1186891	6	3	3	1	0	739	1	4	0	184	99	0	0	100
random	6	1	100	1188220	1	4	4	1	0	1010	1	4	0	192	100	0	0	100
random	6	1	101	1190147	4	1	1	1	0	481	1	4	0	168	101	0	0	100
random	6	1	102	1191000	5	2	2	1	0	980	1	4	0	176	102	0	0	100
random	6	1	103	1192664	2	4	4	1	0	694	1	4	0	192	103	0	0	100
random	6	1	104	1194188	3	1	1	2	0	1045	2	4	0	168	104	0	0	100
random	6	1	105	1195882	1	3	3	1	0	862	1	4	0	184	105	0	0	100
random	6	1	106	1197179	2	2	2	1	0	823	1	4	0	176	106	0	0	100
random	6	1	107	1198477	5	4	4	1	0	840	1	4	0	192	107	0	0	100
random	6	1	108	1200031	6	1	1	1	0	926	1	4	0	168	108	0	0	100
random	6	1	109	1201522	5	4	4	1	0	831	1	4	0	192	109	0	0	100
random	6	1	110	1202873	6	3	3	2	0	1069	2	4	0	184	110	0	0	100
random	6	1	111	1204641	2	2	2	1	0	739	1	4	0	176	111	0	0	100
random	6	1	112	1205679	3	1	1	1	0	751	1	4	0	168	112	0	0	100
random	6	1	113	1207229	1	2	2	1	0	789	1	4	0	176	113	0	0	100
random	6	1	114	1208380	2	3	3	1	0	716	1	4	0	184	114	0	0	100
random	6	1	115	1209790	3	1	1	1	0	784	1	4	0	168	115	0	0	100
random	6	1	116	1210878	4	4	4	1	0	658	1	4	0	192	116	0	0	100
random	6	1	117	1212447	6	1	1	1	0	872	1	4	0	168	117	0	0	100
random	6	1	118	1213790	5	3	3	1	0	799	1	4	0	184	118	0	0	100
random	6	1	119	1215091	1	4	4	1	0	736	1	4	0	192	119	0	0	100
random	6	1	120	1216153	4	2	2	1	0	603	1	4	0	176	120	0	0	100
fixed	7	1	1	1217793	4	1	1	1	0	653	1	4	0	200	1	0	0	100
fixed	7	1	2	1219348	1	2	2	1	0	644	1	4	0	208	2	0	0	100
fixed	7	1	3	1220577	6	4	4	1	0	664	1	4	0	224	3	0	0	100
fixed	7	1	4	1222242	2	1	1	1	0	753	1	4	0	200	4	0	0	100
fixed	7	1	5	1223463	5	3	3	1	0	565	1	4	0	216	5	0	0	100
fixed	7	1	6	1224691	6	4	4	1	0	666	1	4	0	224	6	0	0	100
fixed	7	1	7	1225880	3	1	1	1	0	711	1	4	0	200	7	0	0	100
fixed	7	1	8	1227100	2	3	3	1	0	923	1	4	0	216	8	0	0	100
fixed	7	1	9	1228453	3	2	2	1	0	466	1	4	0	208	9	0	0	100
fixed	7	1	10	1229382	1	4	4	1	0	651	1	4	0	224	10	0	0	100
fixed	7	1	11	1230514	5	2	2	1	0	827	1	4	0	208	11	0	0	100
fixed	7	1	12	1231874	4	3	3	1	0	610	1	4	0	216	12	0	0	100
fixed	7	2	1	1233217	4	1	1	1	0	704	1	4	0	200	1	0	0	8
fixed	7	2	2	1234613	1	2	2	1	0	717	1	4	0	208	2	0	0	14
fixed	7	2	3	1235881	6	4	4	1	0	632	1	4	0	224	3	0	0	20
fixed	7	2	4	1237244	2	1	1	1	0	718	1	4	0	200	4	0	0	25
fixed	7	2	5	1238822	5	3	3	1	0	867	1	4	0	216	5	0	0	29
fixed	7	2	6	1240237	6	4	4	1	0	663	1	4	0	224	6	0	0	33
fixed	7	2	7	1241723	3	1	1	1	0	728	1	4	0	200	7	0	0	37
fixed	7	2	8	1242751	2	3	3	1	0	845	1	4	0	216	8	0	0	40
fixed	7	2	9	1244311	3	2	2	1	0	474	1	4	0	208	9	0	0	43
fixed	7	2	10	1245760	1	4	4	1	0	709	1	4	0	224	10	0	0	45
fixed	7	2	11	1247189	5	2	2	1	0	729	1	4	0	208	11	0	0	48
fixed	7	2	12	1248258	4	3	3	1	0	715	1	4	0	216	12	0	0	50
fixed	7	3	1	1249657	4	1	1	1	0	816	1	4	0	200	1	0	0	4
fixed	7	3	2	1251371	1	2	2	1	0	752	1	4	0	208	2	0	0	8
fixed	7	3	3	1252480	6	4	4	1	0	600	1	4	0	224	3	0	0	11
fixed	7	3	4	1253780	2	1	1	1	0	602	1	4	0	200	4	0	0	14
fixed	7	3	5	1254778	5	3	3	1	0	719	1	4	0	216	5	0	0	17
fixed	7	3	6	1256106	6	4	4	1	0	727	1	4	0	224	6	0	0	20
fixed	7	3	7	1257651	3	1	1	1	0	686	1	4	0	200	7	0	0	23
fixed	7	3	8	1259016	2	3	3	1	0	876	1	4	0	216	8	0	0	25
fixed	7	3	9	1260628	3	2	2	1	0	448	1	4	0	208	9	0	0	27
fixed	7	3	10	1261953	1	4	4	1	0	623	1	4	0	224	10	0	0	29
fixed	7	3	11	1263253	5	2	2	1	0	729	1	4	0	208	11	0	0	31
fixed	7	3	12	1264772	4	3	3	1	0	744	1	4	0	216	12	0	0	33
fixed	7	4	1	1266515	4	1	1	1	0	798	1	4	0	200	1	0	0	3
fixed	7	4	2	1267670	1	2	2	1	0	661	1	4	0	208	2	0	0	5
fixed	7	4	3	1269367	6	4	4	1	0	622	1	4	0	224	3	0	0	8
fixed	7	4	4	1270421	2	1	1	1	0	665	1	4	0	200	4	0	0	10
fixed	7	4	5	1271585	5	3	3	1	0	495	1	4	0	216	5	0	0	12
fixed	7	4	6	1272727	6	4	4	1	0	735	1	4	0	224	6	0	0	14
fixed	7	4	7	1274117	3	1	1	1	0	644	1	4	0	200	7	0	0	16
fixed	7	4	8	1275521	2	3	3	1	0	840	1	4	0	216	8	0	0	18
fixed	7	4	9	1277030	3	2	2	1	0	473	1	4	0	208	9	0	0	20
fixed	7	4	10	1278055	1	4	4	1	0	598	1	4	0	224	10	0	0	22
fixed	7	4	11	1279286	5	2	2	1	0	777	1	4	0	208	11	0	0	23
fixed	7	4	12	1281035	4	3	3	1	0	711	1	4	0	216	12	0	0	25
fixed	7	5	1	1282371	4	1	1	1	0	694	1	4	0	200	1	0	0	2
fixed	7	5	2	1283773	1	2	2	1	0	659	1	4	0	208	2	0	0	4
fixed	7	5	3	1285361	6	4	4	1	0	1000	1	4	0	224	3	0	0	6
fixed	7	5	4	1287143	2	1	1	1	0	885	1	4	0	200	4	0	0	8
fixed	7	5	5	1288364	5	3	3	1	0	729	1	4	0	216	5	0	0	9
fixed	7	5	6	1289972	6	4	4	1	0	612	1	4	0	224	6	0	0	11
fixed	7	5	7	1290985	3	1	1	1	0	570	1	4	0	200	7	0	0	13
fixed	7	5	8	1292418	2	3	3	1	0	781	1	4	0	216	8	0	0	14
fixed	7	5	9	1293637	3	2	2	1	0	569	1	4	0	208	9	0	0	16
fixed	7	5	10	1294793	1	4	4	1	0	480	1	4	0	224	10	0	0	17
fixed	7	5	11	1296236	5	2	2	1	0	691	1	4	0	208	11	0	0	19
fixed	7	5	12	1297487	4	3	3	1	0	687	1	4	0	216	12	0	0	20
fixed	7	6	1	1298828	4	1	1	1	0	693	1	4	0	200	1	0	0	2
fixed	7	6	2	1300232	1	2	2	1	0	738	1	4	0	208	2	0	0	3
fixed	7	6	3	1301711	6	4	4	1	0	516	1	4	0	224	3	0	0	5
fixed	7	6	4	1303030	2	1	1	1	0	540	1	4	0	200	4	0	0	6
fixed	7	6	5	1304394	5	3	3	1	0	362	1	4	0	216	5	0	0	8
fixed	7	6	6	1305744	6	4	4	1	0	632	1	4	0	224	6	0	0	9
fixed	7	6	7	1306856	3	1	1	1	0	914	1	4	0	200	7	0	0	10
fixed	7	6	8	1308653	2	3	3	1	0	901	1	4	0	216	8	0	0	12
fixed	7	6	9	1310467	3	2	2	1	0	457	1	4	0	208	9	0	0	13
fixed	7	6	10	1311900	1	4	4	1	0	700	1	4	0	224	10	0	0	14
fixed	7	6	11	1313404	5	2	2	1	0	644	1	4	0	208	11	0	0	15
fixed	7	6	12	1314839	4	3	3	1	0	647	1	4	0	216	12	0	0	17
fixed	7	7	1	1316271	4	1	1	1	0	770	1	4	0	200	1	0	0	1
fixed	7	7	2	1318042	1	2	2	1	0	695	1	4	0	208	2	0	0	3
fixed	7	7	3	1319621	6	4	4	1	0	549	1	4	0	224	3	0	0	4
fixed	7	7	4	1320742	2	1	1	1	0	446	1	4	0	200	4	0	0	5
fixed	7	7	5	1322114	5	3	0	0	2	0	3	4	0	216	4	0	1	5
fixed	7	7	6	1325392	6	4	4	1	0	960	1	4	0	224	5	0	1	6
fixed	7	7	7	1327016	3	1	1	1	0	915	1	4	0	200	6	0	1	8
fixed	7	7	8	1328899	2	3	3	1	0	811	1	4	0	216	7	0	1	9
fixed	7	7	9	1330260	3	2	2	1	0	514	1	4	0	208	8	0	1	10
fixed	7	7	10	1331726	1	4	4	1	0	628	1	4	0	224	9	0	1	11
fixed	7	7	11	1332842	5	2	2	1	0	692	1	4	0	208	10	0	1	12
fixed	7	7	12	1333856	4	3	3	1	0	650	1	4	0	216	11	0	1	13
fixed	7	8	1	1335250	4	1	1	1	0	759	1	4	0	200	1	0	0	1
fixed	7	8	2	1336856	1	2	2	1	0	675	1	4	0	208	2	0	0	2
fixed	7	8	3	1337839	6	4	4	1	0	857	1	4	0	224	3	0	0	3
fixed	7	8	4	1339186	2	1	1	1	0	776	1	4	0	200	4	0	0	5
fixed	7	8	5	1340563	5	3	3	1	0	718	1	4	0	216	5	0	0	6
fixed	7	8	6	1341615	6	4	4	1	0	761	1	4	0	224	6	0	0	7
fixed	7	8	7	1342823	3	1	1	1	0	566	1	4	0	200	7	0	0	8
fixed	7	8	8	1344130	2	3	3	1	0	759	1	4	0	216	8	0	0	9
fixed	7	8	9	1345801	3	2	2	1	0	632	1	4	0	208	9	0	0	10
fixed	7	8	10	1347385	1	4	4	1	0	725	1	4	0	224	10	0	0	11
fixed	7	8	11	1349033	5	2	2	1	0	679	1	4	0	208	11	0	0	12
fixed	7	8	12	1350104	4	3	3	1	0	545	1	4	0	216	12	0	0	13
fixed	7	9	1	1351390	4	1	1	1	0	739	1	4	0	200	1	0	0	1
fixed	7	9	2	1352779	1	2	2	1	0	776	1	4	0	208	2	0	0	2
fixed	7	9	3	1353988	6	4	4	1	0	485	1	4	0	224	3	0	0	3
fixed	7	9	4	1355486	2	1	1	1	0	558	1	4	0	200	4	0	0	4
fixed	7	9	5	1356404	5	3	3	1	0	591	1	4	0	216	5	0	0	5
fixed	7	9	6	1357847	6	4	4	1	0	618	1	4	0	224	6	0	0	6
fixed	7	9	7	1359196	3	1	1	1	0	768	1	4	0	200	7	0	0	7
fixed	7	9	8	1360312	2	3	3	1	0	929	1	4	0	216	8	0	0	8
fixed	7	9	9	1362046	3	2	2	1	0	592	1	4	0	208	9	0	0	9
fixed	7	9	10	1363168	1	4	4	2	0	1088	2	4	0	224	10	0	0	9
fixed	7	9	11	1365174	5	2	2	1	0	771	1	4	0	208	11	0	0	10
fixed	7	9	12	1366269	4	3	3	1	0	685	1	4	0	216	12	0	0	11
fixed	7	10	1	1367563	4	1	1	1	0	942	1	4	0	200	1	0	0	1
fixed	7	10	2	1369242	1	2	2	1	0	807	1	4	0	208	2	0	0	2
fixed	7	10	3	1370466	6	4	4	1	0	788	1	4	0	224	3	0	0	3
fixed	7	10	4	1372101	2	1	1	1	0	598	1	4	0	200	4	0	0	4
fixed	7	10	5	1373137	5	3	3	2	0	1442	2	4	0	216	5	0	0	4
fixed	7	10	6	1374891	6	4	4	1	0	936	1	4	0	224	6	0	0	5
fixed	7	10	7	1376125	3	1	1	1	0	716	1	4	0	200	7	0	0	6
fixed	7	10	8	1377488	2	3	3	1	0	858	1	4	0	216	8	0	0	7
fixed	7	10	9	1378981	3	2	2	1	0	635	1	4	0	208	9	0	0	8
fixed	7	10	10	1380327	1	4	4	1	0	649	1	4	0	224	10	0	0	8
fixed	7	10	11	1381641	5	2	2	1	0	682	1	4	0	208	11	0	0	9
fixed	7	10	12	1382807	4	3	3	1	0	561	1	4	0	216	12	0	0	10
