type	block	sequ.	trial	time	Pos.	Color	Button	NumRsp	Resp_1	RT_1	R_Code	Resp_2	RT_2	Trigg.	n_hit	n_inc	n_miss	score_%

random	1	1	1	3562	6	1	1	1	0	668	1	4	0	8	1	0	0	100
random	1	1	2	5027	4	4	4	1	0	830	1	4	0	32	2	0	0	100
random	1	1	3	6324	2	2	2	1	0	831	1	4	0	16	3	0	0	100
random	1	1	4	7737	3	3	3	1	0	476	1	4	0	24	4	0	0	100
random	1	1	5	9083	5	2	2	1	0	698	1	4	0	16	5	0	0	100
random	1	1	6	10793	1	4	4	1	0	442	1	4	0	32	6	0	0	100
random	1	1	7	11884	6	1	1	1	0	547	1	4	0	8	7	0	0	100
random	1	1	8	13161	2	3	3	1	0	942	1	4	0	24	8	0	0	100
random	1	1	9	15016	4	2	2	1	0	399	1	4	0	16	9	0	0	100
random	1	1	10	16181	1	1	1	1	0	686	1	4	0	8	10	0	0	100
random	1	1	11	17872	5	4	4	1	0	598	1	4	0	32	11	0	0	100
random	1	1	12	19424	3	3	3	1	0	628	1	4	0	24	12	0	0	100
random	1	1	13	21307	5	2	2	1	0	732	1	4	0	16	13	0	0	100
random	1	1	14	22476	1	4	4	1	0	587	1	4	0	32	14	0	0	100
random	1	1	15	23985	3	1	1	1	0	531	1	4	0	8	15	0	0	100
random	1	1	16	24802	4	3	3	1	0	640	1	4	0	24	16	0	0	100
random	1	1	17	26205	6	4	4	1	0	637	1	4	0	32	17	0	0	100
random	1	1	18	27838	2	1	1	1	0	568	1	4	0	8	18	0	0	100
random	1	1	19	29241	5	3	3	1	0	869	1	4	0	24	19	0	0	100
random	1	1	20	31098	2	2	2	1	0	614	1	4	0	16	20	0	0	100
random	1	1	21	32547	3	3	0	1	2	0	3	4	0	24	20	0	1	95
random	1	1	22	35950	6	1	1	1	0	576	1	4	0	8	21	0	1	95
random	1	1	23	36947	4	2	2	1	0	830	1	4	0	16	22	0	1	96
random	1	1	24	38812	1	4	4	1	0	679	1	4	0	32	23	0	1	96
random	1	1	25	40422	4	3	3	2	0	947	2	4	0	24	24	0	1	96
random	1	1	26	42358	2	1	1	1	0	737	1	4	0	8	25	0	1	96
random	1	1	27	43449	5	2	2	1	0	779	1	4	0	16	26	0	1	96
random	1	1	28	44516	6	4	4	1	0	661	1	4	0	32	27	0	1	96
random	1	1	29	45796	1	3	3	1	0	688	1	4	0	24	28	0	1	97
random	1	1	30	47307	5	2	2	1	0	663	1	4	0	16	29	0	1	97
random	1	1	31	48289	2	1	1	1	0	709	1	4	0	8	30	0	1	97
random	1	1	32	50043	3	3	3	1	0	795	1	4	0	24	31	0	1	97
random	1	1	33	51168	6	4	4	1	0	660	1	4	0	32	32	0	1	97
random	1	1	34	52361	4	2	0	1	2	0	3	4	0	16	32	0	2	94
random	1	1	35	55501	3	4	4	1	0	724	1	4	0	32	33	0	2	94
random	1	1	36	56910	1	1	1	1	0	624	1	4	0	8	34	0	2	94
random	1	1	37	58249	3	4	4	1	0	728	1	4	0	32	35	0	2	95
random	1	1	38	59417	5	3	3	1	0	782	1	4	0	24	36	0	2	95
random	1	1	39	60702	6	1	1	1	0	720	1	4	0	8	37	0	2	95
random	1	1	40	61965	1	2	2	1	0	811	1	4	0	16	38	0	2	95
random	1	1	41	63299	2	3	3	1	0	642	1	4	0	24	39	0	2	95
random	1	1	42	64358	4	4	4	1	0	573	1	4	0	32	40	0	2	95
random	1	1	43	65792	1	2	2	1	0	888	1	4	0	16	41	0	2	95
random	1	1	44	67641	6	3	3	1	0	506	1	4	0	24	42	0	2	95
random	1	1	45	68730	3	1	1	1	0	724	1	4	0	8	43	0	2	96
random	1	1	46	70470	4	4	4	1	0	458	1	4	0	32	44	0	2	96
random	1	1	47	71285	2	2	2	1	0	632	1	4	0	16	45	0	2	96
random	1	1	48	72362	5	1	1	1	0	722	1	4	0	8	46	0	2	96
random	1	1	49	73722	2	3	3	1	0	848	1	4	0	24	47	0	2	96
random	1	1	50	75218	3	1	1	1	0	1169	1	4	0	8	48	0	2	96
random	1	1	51	77062	1	4	4	1	0	531	1	4	0	32	49	0	2	96
random	1	1	52	77957	5	3	3	1	0	877	1	4	0	24	50	0	2	96
random	1	1	53	79241	3	2	2	1	0	487	1	4	0	16	51	0	2	96
random	1	1	54	80248	6	4	4	1	0	612	1	4	0	32	52	0	2	96
random	1	1	55	81565	4	2	2	1	0	588	1	4	0	16	53	0	2	96
random	1	1	56	82602	1	1	1	1	0	585	1	4	0	8	54	0	2	96
random	1	1	57	83885	5	4	4	1	0	610	1	4	0	32	55	0	2	96
random	1	1	58	85165	2	1	1	1	0	748	1	4	0	8	56	0	2	97
random	1	1	59	86605	6	2	2	1	0	543	1	4	0	16	57	0	2	97
random	1	1	60	87871	4	3	3	1	0	449	1	4	0	24	58	0	2	97
random	1	1	61	88908	1	2	2	1	0	661	1	4	0	16	59	0	2	97
random	1	1	62	90352	6	4	4	1	0	616	1	4	0	32	60	0	2	97
random	1	1	63	91991	4	1	1	1	0	563	1	4	0	8	61	0	2	97
random	1	1	64	93031	2	2	2	1	0	823	1	4	0	16	62	0	2	97
random	1	1	65	94303	4	3	3	1	0	616	1	4	0	24	63	0	2	97
random	1	1	66	95870	3	1	1	1	0	783	1	4	0	8	64	0	2	97
random	1	1	67	97475	1	3	3	1	0	819	1	4	0	24	65	0	2	97
random	1	1	68	99200	5	4	4	1	0	585	1	4	0	32	66	0	2	97
random	1	1	69	100110	2	2	2	1	0	723	1	4	0	16	67	0	2	97
random	1	1	70	101312	3	1	1	1	0	584	1	4	0	8	68	0	2	97
random	1	1	71	102602	5	4	4	1	0	601	1	4	0	32	69	0	2	97
random	1	1	72	103671	6	3	3	1	0	860	1	4	0	24	70	0	2	97
random	1	1	73	105231	2	1	1	1	0	770	1	4	0	8	71	0	2	97
random	1	1	74	106331	5	3	3	1	0	699	1	4	0	24	72	0	2	97
random	1	1	75	107378	1	4	4	1	0	567	1	4	0	32	73	0	2	97
random	1	1	76	108343	6	2	2	1	0	526	1	4	0	16	74	0	2	97
random	1	1	77	109348	2	1	1	1	0	644	1	4	0	8	75	0	2	97
random	1	1	78	110909	4	4	4	1	0	729	1	4	0	32	76	0	2	97
random	1	1	79	112650	3	2	2	1	0	831	1	4	0	16	77	0	2	97
random	1	1	80	114403	4	3	3	1	0	621	1	4	0	24	78	0	2	98
random	1	1	81	115816	1	4	4	1	0	682	1	4	0	32	79	0	2	98
random	1	1	82	116789	5	1	1	1	0	649	1	4	0	8	80	0	2	98
random	1	1	83	118255	3	2	2	1	0	754	1	4	0	16	81	0	2	98
random	1	1	84	119776	6	3	3	1	0	514	1	4	0	24	82	0	2	98
random	1	1	85	121538	3	2	2	1	0	1183	1	4	0	16	83	0	2	98
random	1	1	86	123287	1	3	3	1	0	397	1	4	0	24	84	0	2	98
random	1	1	87	124396	4	4	4	1	0	446	1	4	0	32	85	0	2	98
random	1	1	88	125322	2	1	1	1	0	479	1	4	0	8	86	0	2	98
random	1	1	89	126142	6	4	4	1	0	596	1	4	0	32	87	0	2	98
random	1	1	90	127351	3	3	3	1	0	641	1	4	0	24	88	0	2	98
random	1	1	91	128939	5	4	4	1	0	598	1	4	0	32	89	0	2	98
random	1	1	92	130493	1	2	2	2	0	1564	2	4	0	16	90	0	2	98
random	1	1	93	132661	5	1	1	1	0	672	1	4	0	8	91	0	2	98
random	1	1	94	133919	4	3	3	1	0	1107	1	4	0	24	92	0	2	98
random	1	1	95	135385	6	1	1	2	0	1077	2	4	0	8	93	0	2	98
random	1	1	96	136985	2	2	2	1	0	913	1	4	0	16	94	0	2	98
random	1	1	97	138697	4	3	3	1	0	816	1	4	0	24	95	0	2	98
random	1	1	98	140548	3	2	2	1	0	698	1	4	0	16	96	0	2	98
random	1	1	99	141593	6	3	3	1	0	854	1	4	0	24	97	0	2	98
random	1	1	100	143187	1	4	4	1	0	603	1	4	0	32	98	0	2	98
random	1	1	101	144244	4	1	1	1	0	501	1	4	0	8	99	0	2	98
random	1	1	102	145756	5	2	2	1	0	798	1	4	0	16	100	0	2	98
random	1	1	103	147324	2	4	4	1	0	707	1	4	0	32	101	0	2	98
random	1	1	104	149068	3	1	1	1	0	737	1	4	0	8	102	0	2	98
random	1	1	105	150154	1	3	3	1	0	707	1	4	0	24	103	0	2	98
random	1	1	106	151161	2	2	2	1	0	688	1	4	0	16	104	0	2	98
random	1	1	107	152291	5	4	4	1	0	649	1	4	0	32	105	0	2	98
random	1	1	108	153732	6	1	1	1	0	1035	1	4	0	8	106	0	2	98
random	1	1	109	155605	5	4	4	1	0	908	1	4	0	32	107	0	2	98
random	1	1	110	157218	6	3	3	1	0	880	1	4	0	24	108	0	2	98
random	1	1	111	158711	2	2	2	1	0	480	1	4	0	16	109	0	2	98
random	1	1	112	159948	3	1	1	1	0	988	1	4	0	8	110	0	2	98
random	1	1	113	161604	1	2	2	1	0	1102	1	4	0	16	111	0	2	98
random	1	1	114	163662	2	3	3	1	0	495	1	4	0	24	112	0	2	98
random	1	1	115	165020	3	1	1	1	0	646	1	4	0	8	113	0	2	98
random	1	1	116	166324	4	4	4	1	0	566	1	4	0	32	114	0	2	98
random	1	1	117	167315	6	1	1	1	0	732	1	4	0	8	115	0	2	98
random	1	1	118	168808	5	3	3	1	0	709	1	4	0	24	116	0	2	98
random	1	1	119	170196	1	4	4	1	0	666	1	4	0	32	117	0	2	98
random	1	1	120	171422	4	2	2	1	0	599	1	4	0	16	118	0	2	98
fixed	2	1	1	173045	4	1	1	1	0	689	1	4	0	40	1	0	0	100
fixed	2	1	2	174103	1	2	2	1	0	765	1	4	0	48	2	0	0	100
fixed	2	1	3	175525	6	4	4	1	0	617	1	4	0	64	3	0	0	100
fixed	2	1	4	176854	2	1	0	0	2	0	3	4	0	40	3	0	1	75
fixed	2	1	5	180046	5	3	3	1	0	737	1	4	0	56	4	0	1	80
fixed	2	1	6	181377	6	4	4	1	0	569	1	4	0	64	5	0	1	83
fixed	2	1	7	182474	3	1	1	1	0	674	1	4	0	40	6	0	1	86
fixed	2	1	8	183965	2	3	3	1	0	875	1	4	0	56	7	0	1	88
fixed	2	1	9	185156	3	2	2	1	0	505	1	4	0	48	8	0	1	89
fixed	2	1	10	186500	1	4	4	1	0	504	1	4	0	64	9	0	1	90
fixed	2	1	11	187754	5	2	2	1	0	811	1	4	0	48	10	0	1	91
fixed	2	1	12	189026	4	3	3	1	0	525	1	4	0	56	11	0	1	92
fixed	2	2	1	190691	4	1	1	1	0	686	1	4	0	40	12	0	1	92
fixed	2	2	2	192088	1	2	2	1	0	971	1	4	0	48	13	0	1	93
fixed	2	2	3	193621	6	4	4	1	0	610	1	4	0	64	14	0	1	93
fixed	2	2	4	194713	2	1	1	1	0	684	1	4	0	40	15	0	1	94
fixed	2	2	5	195756	5	3	3	1	0	640	1	4	0	56	16	0	1	94
fixed	2	2	6	197016	6	4	4	1	0	618	1	4	0	64	17	0	1	94
fixed	2	2	7	198457	3	1	1	1	0	645	1	4	0	40	18	0	1	95
fixed	2	2	8	199869	2	3	3	1	0	841	1	4	0	56	19	0	1	95
fixed	2	2	9	201437	3	2	2	1	0	439	1	4	0	48	20	0	1	95
fixed	2	2	10	202823	1	4	4	1	0	644	1	4	0	64	21	0	1	95
fixed	2	2	11	203885	5	2	2	1	0	584	1	4	0	48	22	0	1	96
fixed	2	2	12	205298	4	3	3	1	0	451	1	4	0	56	23	0	1	96
fixed	2	3	1	206630	4	1	1	1	0	659	1	4	0	40	24	0	1	96
fixed	2	3	2	207993	1	2	2	1	0	658	1	4	0	48	25	0	1	96
fixed	2	3	3	209261	6	4	4	1	0	644	1	4	0	64	26	0	1	96
fixed	2	3	4	210393	2	1	1	1	0	636	1	4	0	40	27	0	1	96
fixed	2	3	5	211914	5	3	3	1	0	579	1	4	0	56	28	0	1	97
fixed	2	3	6	213494	6	4	4	1	0	616	1	4	0	64	29	0	1	97
fixed	2	3	7	214775	3	1	1	1	0	602	1	4	0	40	30	0	1	97
fixed	2	3	8	216300	2	3	3	1	0	650	1	4	0	56	31	0	1	97
fixed	2	3	9	217554	3	2	2	1	0	709	1	4	0	48	32	0	1	97
fixed	2	3	10	218774	1	4	4	1	0	680	1	4	0	64	33	0	1	97
fixed	2	3	11	220392	5	2	2	1	0	740	1	4	0	48	34	0	1	97
fixed	2	3	12	221988	4	3	3	1	0	609	1	4	0	56	35	0	1	97
fixed	2	4	1	223271	4	1	1	1	0	642	1	4	0	40	36	0	1	97
fixed	2	4	2	224729	1	2	2	1	0	788	1	4	0	48	37	0	1	97
fixed	2	4	3	226122	6	4	4	1	0	609	1	4	0	64	38	0	1	97
fixed	2	4	4	227434	2	1	1	1	0	562	1	4	0	40	39	0	1	98
fixed	2	4	5	228857	5	3	3	1	0	518	1	4	0	56	40	0	1	98
fixed	2	4	6	230177	6	4	4	1	0	574	1	4	0	64	41	0	1	98
fixed	2	4	7	231285	3	1	1	1	0	511	1	4	0	40	42	0	1	98
fixed	2	4	8	232740	2	3	3	1	0	617	1	4	0	56	43	0	1	98
fixed	2	4	9	233637	3	2	2	1	0	611	1	4	0	48	44	0	1	98
fixed	2	4	10	234683	1	4	4	1	0	583	1	4	0	64	45	0	1	98
fixed	2	4	11	236248	5	2	2	1	0	781	1	4	0	48	46	0	1	98
fixed	2	4	12	237502	4	3	3	1	0	464	1	4	0	56	47	0	1	98
fixed	2	5	1	239176	4	1	1	1	0	640	1	4	0	40	48	0	1	98
fixed	2	5	2	240351	1	2	2	1	0	719	1	4	0	48	49	0	1	98
fixed	2	5	3	241881	6	4	4	1	0	934	1	4	0	64	50	0	1	98
fixed	2	5	4	243571	2	1	1	1	0	694	1	4	0	40	51	0	1	98
fixed	2	5	5	245226	5	3	3	1	0	632	1	4	0	56	52	0	1	98
fixed	2	5	6	246591	6	4	4	1	0	671	1	4	0	64	53	0	1	98
fixed	2	5	7	247605	3	1	1	1	0	628	1	4	0	40	54	0	1	98
fixed	2	5	8	248787	2	3	3	1	0	785	1	4	0	56	55	0	1	98
fixed	2	5	9	250531	3	2	2	1	0	512	1	4	0	48	56	0	1	98
fixed	2	5	10	251917	1	4	4	1	0	621	1	4	0	64	57	0	1	98
fixed	2	5	11	253115	5	2	2	1	0	698	1	4	0	48	58	0	1	98
fixed	2	5	12	254243	4	3	3	1	0	691	1	4	0	56	59	0	1	98
fixed	2	6	1	255968	4	1	1	1	0	841	1	4	0	40	60	0	1	98
fixed	2	6	2	257696	1	2	2	1	0	768	1	4	0	48	61	0	1	98
fixed	2	6	3	258932	6	4	4	1	0	636	1	4	0	64	62	0	1	98
fixed	2	6	4	260500	2	1	1	1	0	713	1	4	0	40	63	0	1	98
fixed	2	6	5	261901	5	3	3	1	0	702	1	4	0	56	64	0	1	98
fixed	2	6	6	263426	6	4	4	1	0	630	1	4	0	64	65	0	1	98
fixed	2	6	7	264725	3	1	1	1	0	686	1	4	0	40	66	0	1	99
fixed	2	6	8	266079	2	3	3	1	0	669	1	4	0	56	67	0	1	99
fixed	2	6	9	267585	3	2	2	1	0	493	1	4	0	48	68	0	1	99
fixed	2	6	10	268918	1	4	4	1	0	733	1	4	0	64	69	0	1	99
fixed	2	6	11	270342	5	2	2	1	0	1385	1	4	0	48	70	0	1	99
fixed	2	6	12	272341	4	3	3	1	0	716	1	4	0	56	71	0	1	99
fixed	2	7	1	273761	4	1	1	1	0	519	1	4	0	40	72	0	1	99
fixed	2	7	2	274597	1	2	2	1	0	900	1	4	0	48	73	0	1	99
fixed	2	7	3	276116	6	4	4	1	0	524	1	4	0	64	74	0	1	99
fixed	2	7	4	277082	2	1	1	1	0	643	1	4	0	40	75	0	1	99
fixed	2	7	5	278494	5	3	3	1	0	983	1	4	0	56	76	0	1	99
fixed	2	7	6	280025	6	4	4	1	0	686	1	4	0	64	77	0	1	99
fixed	2	7	7	281737	3	1	1	1	0	670	1	4	0	40	78	0	1	99
fixed	2	7	8	283138	2	3	3	1	0	890	1	4	0	56	79	0	1	99
fixed	2	7	9	284975	3	2	2	1	0	581	1	4	0	48	80	0	1	99
fixed	2	7	10	286339	1	4	4	1	0	675	1	4	0	64	81	0	1	99
fixed	2	7	11	287394	5	2	2	1	0	694	1	4	0	48	82	0	1	99
fixed	2	7	12	289039	4	3	3	1	0	489	1	4	0	56	83	0	1	99
fixed	2	8	1	290185	4	1	1	1	0	584	1	4	0	40	84	0	1	99
fixed	2	8	2	291773	1	2	2	1	0	1029	1	4	0	48	85	0	1	99
fixed	2	8	3	293248	6	4	4	1	0	502	1	4	0	64	86	0	1	99
fixed	2	8	4	294286	2	1	1	1	0	722	1	4	0	40	87	0	1	99
fixed	2	8	5	295992	5	3	3	1	0	682	1	4	0	56	88	0	1	99
fixed	2	8	6	297304	6	4	4	1	0	706	1	4	0	64	89	0	1	99
fixed	2	8	7	298470	3	1	1	1	0	673	1	4	0	40	90	0	1	99
fixed	2	8	8	299648	2	3	3	1	0	671	1	4	0	56	91	0	1	99
fixed	2	8	9	300669	3	2	2	1	0	716	1	4	0	48	92	0	1	99
fixed	2	8	10	302383	1	4	4	1	0	811	1	4	0	64	93	0	1	99
fixed	2	8	11	303933	5	2	2	1	0	1065	1	4	0	48	94	0	1	99
fixed	2	8	12	305946	4	3	3	1	0	325	1	4	0	56	95	0	1	99
fixed	2	9	1	306842	4	1	1	1	0	494	1	4	0	40	96	0	1	99
fixed	2	9	2	308166	1	2	2	1	0	742	1	4	0	48	97	0	1	99
fixed	2	9	3	309368	6	4	4	1	0	683	1	4	0	64	98	0	1	99
fixed	2	9	4	310465	2	1	1	1	0	685	1	4	0	40	99	0	1	99
fixed	2	9	5	311769	5	3	3	1	0	654	1	4	0	56	100	0	1	99
fixed	2	9	6	313413	6	4	4	1	0	616	1	4	0	64	101	0	1	99
fixed	2	9	7	314928	3	1	1	1	0	728	1	4	0	40	102	0	1	99
fixed	2	9	8	316244	2	3	3	1	0	785	1	4	0	56	103	0	1	99
fixed	2	9	9	317965	3	2	2	1	0	632	1	4	0	48	104	0	1	99
fixed	2	9	10	319377	1	4	4	1	0	700	1	4	0	64	105	0	1	99
fixed	2	9	11	320927	5	2	2	1	0	666	1	4	0	48	106	0	1	99
fixed	2	9	12	322393	4	3	3	1	0	436	1	4	0	56	107	0	1	99
fixed	2	10	1	323985	4	1	1	1	0	664	1	4	0	40	108	0	1	99
fixed	2	10	2	325056	1	2	2	1	0	827	1	4	0	48	109	0	1	99
fixed	2	10	3	326778	6	4	4	1	0	634	1	4	0	64	110	0	1	99
fixed	2	10	4	327809	2	1	1	1	0	742	1	4	0	40	111	0	1	99
fixed	2	10	5	328886	5	3	3	1	0	769	1	4	0	56	112	0	1	99
fixed	2	10	6	330121	6	4	4	1	0	605	1	4	0	64	113	0	1	99
fixed	2	10	7	331465	3	1	1	1	0	764	1	4	0	40	114	0	1	99
fixed	2	10	8	332578	2	3	3	1	0	805	1	4	0	56	115	0	1	99
fixed	2	10	9	334174	3	2	2	1	0	721	1	4	0	48	116	0	1	99
fixed	2	10	10	335897	1	4	4	1	0	648	1	4	0	64	117	0	1	99
fixed	2	10	11	337167	5	2	2	1	0	1178	1	4	0	48	118	0	1	99
fixed	2	10	12	339165	4	3	3	1	0	454	1	4	0	56	119	0	1	99
fixed	3	1	1	340473	4	1	1	1	0	806	1	4	0	72	1	0	0	100
fixed	3	1	2	341971	1	2	2	1	0	759	1	4	0	80	2	0	0	100
fixed	3	1	3	343602	6	4	4	1	0	617	1	4	0	96	3	0	0	100
fixed	3	1	4	344833	2	1	1	1	0	605	1	4	0	72	4	0	0	100
fixed	3	1	5	345833	5	3	3	1	0	659	1	4	0	88	5	0	0	100
fixed	3	1	6	346968	6	4	4	1	0	643	1	4	0	96	6	0	0	100
fixed	3	1	7	348270	3	1	1	1	0	572	1	4	0	72	7	0	0	100
fixed	3	1	8	349712	2	3	3	1	0	622	1	4	0	88	8	0	0	100
fixed	3	1	9	350937	3	2	2	1	0	571	1	4	0	80	9	0	0	100
fixed	3	1	10	351937	1	4	4	1	0	800	1	4	0	96	10	0	0	100
fixed	3	1	11	353062	5	2	2	1	0	985	1	4	0	80	11	0	0	100
fixed	3	1	12	354372	4	3	3	1	0	602	1	4	0	88	12	0	0	100
fixed	3	2	1	355529	4	1	1	1	0	736	1	4	0	72	13	0	0	100
fixed	3	2	2	357051	1	2	2	1	0	832	1	4	0	80	14	0	0	100
fixed	3	2	3	358409	6	4	4	1	0	646	1	4	0	96	15	0	0	100
fixed	3	2	4	359626	2	1	1	1	0	595	1	4	0	72	16	0	0	100
fixed	3	2	5	360586	5	3	3	1	0	722	1	4	0	88	17	0	0	100
fixed	3	2	6	361731	6	4	4	1	0	690	1	4	0	96	18	0	0	100
fixed	3	2	7	362913	3	1	1	1	0	599	1	4	0	72	19	0	0	100
fixed	3	2	8	364245	2	3	3	1	0	791	1	4	0	88	20	0	0	100
fixed	3	2	9	365579	3	2	2	1	0	439	1	4	0	80	21	0	0	100
fixed	3	2	10	366610	1	4	4	1	0	563	1	4	0	96	22	0	0	100
fixed	3	2	11	367819	5	2	2	1	0	792	1	4	0	80	23	0	0	100
fixed	3	2	12	369303	4	3	3	1	0	281	1	4	0	88	24	0	0	100
fixed	3	3	1	370148	4	1	1	1	0	541	1	4	0	72	25	0	0	100
fixed	3	3	2	371648	1	2	2	1	0	1126	1	4	0	80	26	0	0	100
fixed	3	3	3	373264	6	4	4	1	0	609	1	4	0	96	27	0	0	100
fixed	3	3	4	374180	2	1	1	1	0	770	1	4	0	72	28	0	0	100
fixed	3	3	5	375598	5	3	3	1	0	686	1	4	0	88	29	0	0	100
fixed	3	3	6	377120	6	4	4	1	0	670	1	4	0	96	30	0	0	100
fixed	3	3	7	378631	3	1	1	1	0	774	1	4	0	72	31	0	0	100
fixed	3	3	8	380093	2	3	3	1	0	704	1	4	0	88	32	0	0	100
fixed	3	3	9	381193	3	2	2	1	0	489	1	4	0	80	33	0	0	100
fixed	3	3	10	382030	1	4	4	1	0	646	1	4	0	96	34	0	0	100
fixed	3	3	11	383048	5	2	2	1	0	699	1	4	0	80	35	0	0	100
fixed	3	3	12	384165	4	3	3	1	0	555	1	4	0	88	36	0	0	100
fixed	3	4	1	385652	4	1	1	1	0	572	1	4	0	72	37	0	0	100
fixed	3	4	2	386568	1	2	0	1	2	0	3	4	0	80	37	0	1	97
fixed	3	4	3	389815	6	4	4	1	0	836	1	4	0	96	38	0	1	97
fixed	3	4	4	391623	2	1	1	1	0	552	1	4	0	72	39	0	1	98
fixed	3	4	5	393101	5	3	0	1	2	0	3	4	0	88	39	0	2	95
fixed	3	4	6	396074	6	4	4	1	0	675	1	4	0	96	40	0	2	95
fixed	3	4	7	397537	3	1	1	1	0	693	1	4	0	72	41	0	2	95
fixed	3	4	8	398868	2	3	3	1	0	757	1	4	0	88	42	0	2	95
fixed	3	4	9	400356	3	2	2	1	0	518	1	4	0	80	43	0	2	96
fixed	3	4	10	401372	1	4	4	1	0	586	1	4	0	96	44	0	2	96
fixed	3	4	11	402995	5	2	2	1	0	654	1	4	0	80	45	0	2	96
fixed	3	4	12	404659	4	3	3	1	0	600	1	4	0	88	46	0	2	96
fixed	3	5	1	406537	4	1	1	1	0	696	1	4	0	72	47	0	2	96
fixed	3	5	2	408011	1	2	2	1	0	777	1	4	0	80	48	0	2	96
fixed	3	5	3	409540	6	4	4	1	0	649	1	4	0	96	49	0	2	96
fixed	3	5	4	410934	2	1	1	1	0	1254	1	4	0	72	50	0	2	96
fixed	3	5	5	412827	5	3	3	1	0	622	1	4	0	88	51	0	2	96
fixed	3	5	6	414458	6	4	4	1	0	928	1	4	0	96	52	0	2	96
fixed	3	5	7	415924	3	1	1	1	0	1010	1	4	0	72	53	0	2	96
fixed	3	5	8	417301	2	3	3	1	0	672	1	4	0	88	54	0	2	96
fixed	3	5	9	419011	3	2	2	1	0	480	1	4	0	80	55	0	2	96
fixed	3	5	10	420184	1	4	4	1	0	766	1	4	0	96	56	0	2	97
fixed	3	5	11	421716	5	2	2	1	0	669	1	4	0	80	57	0	2	97
fixed	3	5	12	423000	4	3	3	1	0	303	1	4	0	88	58	0	2	97
fixed	3	6	1	424448	4	1	1	1	0	817	1	4	0	72	59	0	2	97
fixed	3	6	2	426182	1	2	2	1	0	752	1	4	0	80	60	0	2	97
fixed	3	6	3	427733	6	4	4	1	0	614	1	4	0	96	61	0	2	97
fixed	3	6	4	428811	2	1	1	1	0	648	1	4	0	72	62	0	2	97
fixed	3	6	5	430404	5	3	3	1	0	645	1	4	0	88	63	0	2	97
fixed	3	6	6	431961	6	4	4	1	0	715	1	4	0	96	64	0	2	97
fixed	3	6	7	433350	3	1	1	1	0	617	1	4	0	72	65	0	2	97
fixed	3	6	8	434921	2	3	3	1	0	749	1	4	0	88	66	0	2	97
fixed	3	6	9	436658	3	2	2	1	0	620	1	4	0	80	67	0	2	97
fixed	3	6	10	437835	1	4	4	1	0	1018	1	4	0	96	68	0	2	97
fixed	3	6	11	439747	5	2	2	1	0	762	1	4	0	80	69	0	2	97
fixed	3	6	12	441284	4	3	3	1	0	353	1	4	0	88	70	0	2	97
fixed	3	7	1	442392	4	1	1	1	0	793	1	4	0	72	71	0	2	97
fixed	3	7	2	444157	1	2	2	1	0	823	1	4	0	80	72	0	2	97
fixed	3	7	3	445418	6	4	4	1	0	609	1	4	0	96	73	0	2	97
fixed	3	7	4	446496	2	1	1	1	0	660	1	4	0	72	74	0	2	97
fixed	3	7	5	448136	5	3	3	1	0	750	1	4	0	88	75	0	2	97
fixed	3	7	6	449832	6	4	4	1	0	614	1	4	0	96	76	0	2	97
fixed	3	7	7	450786	3	1	1	1	0	670	1	4	0	72	77	0	2	97
fixed	3	7	8	452154	2	3	3	1	0	700	1	4	0	88	78	0	2	98
fixed	3	7	9	453363	3	2	2	1	0	633	1	4	0	80	79	0	2	98
fixed	3	7	10	454752	1	4	4	1	0	638	1	4	0	96	80	0	2	98
fixed	3	7	11	455928	5	2	2	1	0	676	1	4	0	80	81	0	2	98
fixed	3	7	12	457567	4	3	3	1	0	335	1	4	0	88	82	0	2	98
fixed	3	8	1	459183	4	1	1	1	0	882	1	4	0	72	83	0	2	98
fixed	3	8	2	460901	1	2	2	1	0	937	1	4	0	80	84	0	2	98
fixed	3	8	3	462389	6	4	4	1	0	1610	1	4	0	96	85	0	2	98
fixed	3	8	4	464672	2	1	1	1	0	578	1	4	0	72	86	0	2	98
fixed	3	8	5	465800	5	3	3	1	0	970	1	4	0	88	87	0	2	98
fixed	3	8	6	467308	6	4	4	1	0	690	1	4	0	96	88	0	2	98
fixed	3	8	7	468625	3	1	1	1	0	602	1	4	0	72	89	0	2	98
fixed	3	8	8	470164	2	3	3	1	0	697	1	4	0	88	90	0	2	98
fixed	3	8	9	471770	3	2	2	1	0	685	1	4	0	80	91	0	2	98
fixed	3	8	10	472869	1	4	4	1	0	542	1	4	0	96	92	0	2	98
fixed	3	8	11	473799	5	2	2	1	0	647	1	4	0	80	93	0	2	98
fixed	3	8	12	474842	4	3	3	1	0	363	1	4	0	88	94	0	2	98
fixed	3	9	1	475874	4	1	1	1	0	687	1	4	0	72	95	0	2	98
fixed	3	9	2	477343	1	2	2	1	0	897	1	4	0	80	96	0	2	98
fixed	3	9	3	479164	6	4	4	1	0	636	1	4	0	96	97	0	2	98
fixed	3	9	4	480390	2	1	1	1	0	760	1	4	0	72	98	0	2	98
fixed	3	9	5	481787	5	3	3	1	0	925	1	4	0	88	99	0	2	98
fixed	3	9	6	483702	6	4	4	1	0	636	1	4	0	96	100	0	2	98
fixed	3	9	7	484781	3	1	1	1	0	742	1	4	0	72	101	0	2	98
fixed	3	9	8	486116	2	3	3	1	0	645	1	4	0	88	102	0	2	98
fixed	3	9	9	487766	3	2	2	1	0	632	1	4	0	80	103	0	2	98
fixed	3	9	10	488728	1	4	4	1	0	815	1	4	0	96	104	0	2	98
fixed	3	9	11	490046	5	2	2	1	0	959	1	4	0	80	105	0	2	98
fixed	3	9	12	491740	4	3	3	1	0	367	1	4	0	88	106	0	2	98
fixed	3	10	1	492749	4	1	1	1	0	694	1	4	0	72	107	0	2	98
fixed	3	10	2	493999	1	2	2	1	0	919	1	4	0	80	108	0	2	98
fixed	3	10	3	495276	6	4	4	1	0	705	1	4	0	96	109	0	2	98
fixed	3	10	4	496664	2	1	1	1	0	639	1	4	0	72	110	0	2	98
fixed	3	10	5	498083	5	3	3	1	0	699	1	4	0	88	111	0	2	98
fixed	3	10	6	499598	6	4	4	1	0	690	1	4	0	96	112	0	2	98
fixed	3	10	7	501063	3	1	1	1	0	620	1	4	0	72	113	0	2	98
fixed	3	10	8	502501	2	3	3	1	0	632	1	4	0	88	114	0	2	98
fixed	3	10	9	503520	3	2	2	1	0	637	1	4	0	80	115	0	2	98
fixed	3	10	10	504503	1	4	4	1	0	795	1	4	0	96	116	0	2	98
fixed	3	10	11	505841	5	2	2	1	0	626	1	4	0	80	117	0	2	98
fixed	3	10	12	507204	4	3	3	1	0	344	1	4	0	88	118	0	2	98
fixed	4	1	1	619407	4	1	1	1	0	760	1	4	0	104	1	0	0	100
fixed	4	1	2	621120	1	2	0	1	2	0	3	4	0	112	1	0	1	50
fixed	4	1	3	624234	6	4	4	1	0	692	1	4	0	128	2	0	1	67
fixed	4	1	4	625218	2	1	1	1	0	730	1	4	0	104	3	0	1	75
fixed	4	1	5	626602	5	3	3	1	0	735	1	4	0	120	4	0	1	80
fixed	4	1	6	628311	6	4	4	1	0	655	1	4	0	128	5	0	1	83
fixed	4	1	7	629595	3	1	1	1	0	665	1	4	0	104	6	0	1	86
fixed	4	1	8	631148	2	3	3	1	0	711	1	4	0	120	7	0	1	88
fixed	4	1	9	632261	3	2	2	1	0	679	1	4	0	112	8	0	1	89
fixed	4	1	10	633369	1	4	4	1	0	665	1	4	0	128	9	0	1	90
fixed	4	1	11	634502	5	2	2	1	0	769	1	4	0	112	10	0	1	91
fixed	4	1	12	635578	4	3	3	1	0	395	1	4	0	120	11	0	1	92
fixed	4	2	1	636969	4	1	1	1	0	704	1	4	0	104	12	0	1	92
fixed	4	2	2	638394	1	2	2	1	0	996	1	4	0	112	13	0	1	93
fixed	4	2	3	640347	6	4	4	1	0	801	1	4	0	128	14	0	1	93
fixed	4	2	4	641506	2	1	1	1	0	712	1	4	0	104	15	0	1	94
fixed	4	2	5	642589	5	3	3	1	0	618	1	4	0	120	16	0	1	94
fixed	4	2	6	644019	6	4	4	1	0	669	1	4	0	128	17	0	1	94
fixed	4	2	7	645190	3	1	1	1	0	636	1	4	0	104	18	0	1	95
fixed	4	2	8	646772	2	3	3	1	0	665	1	4	0	120	19	0	1	95
fixed	4	2	9	647897	3	2	2	1	0	545	1	4	0	112	20	0	1	95
fixed	4	2	10	649068	1	4	4	1	0	591	1	4	0	128	21	0	1	95
fixed	4	2	11	650222	5	2	2	1	0	671	1	4	0	112	22	0	1	96
fixed	4	2	12	651198	4	3	3	1	0	414	1	4	0	120	23	0	1	96
fixed	4	3	1	652491	4	1	1	1	0	662	1	4	0	104	24	0	1	96
fixed	4	3	2	653873	1	2	2	1	0	676	1	4	0	112	25	0	1	96
fixed	4	3	3	654941	6	4	4	1	0	703	1	4	0	128	26	0	1	96
fixed	4	3	4	656252	2	1	1	1	0	687	1	4	0	104	27	0	1	96
fixed	4	3	5	657370	5	3	3	1	0	656	1	4	0	120	28	0	1	97
fixed	4	3	6	658582	6	4	4	1	0	701	1	4	0	128	29	0	1	97
fixed	4	3	7	659681	3	1	1	1	0	574	1	4	0	104	30	0	1	97
fixed	4	3	8	660731	2	3	3	1	0	865	1	4	0	120	31	0	1	97
fixed	4	3	9	662574	3	2	2	1	0	700	1	4	0	112	32	0	1	97
fixed	4	3	10	663814	1	4	4	1	0	679	1	4	0	128	33	0	1	97
fixed	4	3	11	665350	5	2	2	1	0	1078	1	4	0	112	34	0	1	97
fixed	4	3	12	667190	4	3	3	1	0	328	1	4	0	120	35	0	1	97
fixed	4	4	1	668597	4	1	1	1	0	732	1	4	0	104	36	0	1	97
fixed	4	4	2	669662	1	2	2	1	0	744	1	4	0	112	37	0	1	97
fixed	4	4	3	671003	6	4	4	1	0	566	1	4	0	128	38	0	1	97
fixed	4	4	4	672294	2	1	1	1	0	608	1	4	0	104	39	0	1	98
fixed	4	4	5	673940	5	3	3	1	0	610	1	4	0	120	40	0	1	98
fixed	4	4	6	674853	6	4	4	1	0	668	1	4	0	128	41	0	1	98
fixed	4	4	7	676361	3	1	1	1	0	604	1	4	0	104	42	0	1	98
fixed	4	4	8	677631	2	3	3	1	0	718	1	4	0	120	43	0	1	98
fixed	4	4	9	679066	3	2	2	1	0	401	1	4	0	112	44	0	1	98
fixed	4	4	10	679977	1	4	4	1	0	538	1	4	0	128	45	0	1	98
fixed	4	4	11	681465	5	2	2	1	0	963	1	4	0	112	46	0	1	98
fixed	4	4	12	683163	4	3	3	1	0	324	1	4	0	120	47	0	1	98
fixed	4	5	1	684419	4	1	1	1	0	750	1	4	0	104	48	0	1	98
fixed	4	5	2	686063	1	2	2	1	0	809	1	4	0	112	49	0	1	98
fixed	4	5	3	687707	6	4	4	1	0	547	1	4	0	128	50	0	1	98
fixed	4	5	4	688947	2	1	1	1	0	662	1	4	0	104	51	0	1	98
fixed	4	5	5	690228	5	3	3	1	0	640	1	4	0	120	52	0	1	98
fixed	4	5	6	691214	6	4	4	1	0	695	1	4	0	128	53	0	1	98
fixed	4	5	7	692356	3	1	1	1	0	638	1	4	0	104	54	0	1	98
fixed	4	5	8	693388	2	3	3	1	0	619	1	4	0	120	55	0	1	98
fixed	4	5	9	694900	3	2	0	1	2	0	3	4	0	112	55	0	2	96
fixed	4	5	10	698411	1	4	4	1	0	862	1	4	0	128	56	0	2	97
fixed	4	5	11	700224	5	2	2	1	0	585	1	4	0	112	57	0	2	97
fixed	4	5	12	701113	4	3	3	1	0	747	1	4	0	120	58	0	2	97
fixed	4	6	1	702948	4	1	1	1	0	765	1	4	0	104	59	0	2	97
fixed	4	6	2	704297	1	2	2	1	0	1125	1	4	0	112	60	0	2	97
fixed	4	6	3	705769	6	4	4	1	0	750	1	4	0	128	61	0	2	97
fixed	4	6	4	707143	2	1	1	1	0	652	1	4	0	104	62	0	2	97
fixed	4	6	5	708679	5	3	3	1	0	843	1	4	0	120	63	0	2	97
fixed	4	6	6	710477	6	4	4	1	0	727	1	4	0	128	64	0	2	97
fixed	4	6	7	711608	3	1	1	1	0	599	1	4	0	104	65	0	2	97
fixed	4	6	8	712875	2	3	3	1	0	569	1	4	0	120	66	0	2	97
fixed	4	6	9	714253	3	2	2	1	0	447	1	4	0	112	67	0	2	97
fixed	4	6	10	715515	1	4	4	1	0	673	1	4	0	128	68	0	2	97
fixed	4	6	11	716918	5	2	2	1	0	910	1	4	0	112	69	0	2	97
fixed	4	6	12	718447	4	3	3	1	0	453	1	4	0	120	70	0	2	97
fixed	4	7	1	719655	4	1	1	1	0	610	1	4	0	104	71	0	2	97
fixed	4	7	2	720661	1	2	2	1	0	863	1	4	0	112	72	0	2	97
fixed	4	7	3	722515	6	4	4	1	0	561	1	4	0	128	73	0	2	97
fixed	4	7	4	724114	2	1	1	1	0	621	1	4	0	104	74	0	2	97
fixed	4	7	5	725765	5	3	3	1	0	807	1	4	0	120	75	0	2	97
fixed	4	7	6	727256	6	4	4	1	0	672	1	4	0	128	76	0	2	97
fixed	4	7	7	728891	3	1	1	1	0	659	1	4	0	104	77	0	2	97
fixed	4	7	8	730086	2	3	3	1	0	672	1	4	0	120	78	0	2	98
fixed	4	7	9	731602	3	2	2	1	0	328	1	4	0	112	79	0	2	98
fixed	4	7	10	732744	1	4	4	1	0	535	1	4	0	128	80	0	2	98
fixed	4	7	11	733754	5	2	2	1	0	628	1	4	0	112	81	0	2	98
fixed	4	7	12	734937	4	3	3	1	0	331	1	4	0	120	82	0	2	98
fixed	4	8	1	736363	4	1	1	1	0	374	1	4	0	104	83	0	2	98
fixed	4	8	2	737256	1	2	2	1	0	840	1	4	0	112	84	0	2	98
fixed	4	8	3	738513	6	4	4	1	0	555	1	4	0	128	85	0	2	98
fixed	4	8	4	739893	2	1	1	1	0	785	1	4	0	104	86	0	2	98
fixed	4	8	5	741092	5	3	3	1	0	630	1	4	0	120	87	0	2	98
fixed	4	8	6	742673	6	4	4	1	0	667	1	4	0	128	88	0	2	98
fixed	4	8	7	744136	3	1	1	1	0	645	1	4	0	104	89	0	2	98
fixed	4	8	8	745497	2	3	3	1	0	612	1	4	0	120	90	0	2	98
fixed	4	8	9	746636	3	2	2	1	0	363	1	4	0	112	91	0	2	98
fixed	4	8	10	747889	1	4	4	1	0	790	1	4	0	128	92	0	2	98
fixed	4	8	11	749607	5	2	2	1	0	597	1	4	0	112	93	0	2	98
fixed	4	8	12	750670	4	3	3	1	0	376	1	4	0	120	94	0	2	98
fixed	4	9	1	751784	4	1	1	1	0	625	1	4	0	104	95	0	2	98
fixed	4	9	2	752924	1	2	2	1	0	665	1	4	0	112	96	0	2	98
fixed	4	9	3	754389	6	4	4	1	0	346	1	4	0	128	97	0	2	98
fixed	4	9	4	755742	2	1	1	1	0	601	1	4	0	104	98	0	2	98
fixed	4	9	5	757091	5	3	3	1	0	592	1	4	0	120	99	0	2	98
fixed	4	9	6	758294	6	4	4	1	0	581	1	4	0	128	100	0	2	98
fixed	4	9	7	759708	3	1	1	1	0	585	1	4	0	104	101	0	2	98
fixed	4	9	8	761181	2	3	3	1	0	979	1	4	0	120	102	0	2	98
fixed	4	9	9	762486	3	2	2	1	0	532	1	4	0	112	103	0	2	98
fixed	4	9	10	763717	1	4	4	1	0	624	1	4	0	128	104	0	2	98
fixed	4	9	11	764963	5	2	2	1	0	995	1	4	0	112	105	0	2	98
fixed	4	9	12	766473	4	3	3	1	0	323	1	4	0	120	106	0	2	98
fixed	4	10	1	767606	4	1	1	1	0	435	1	4	0	104	107	0	2	98
fixed	4	10	2	768850	1	2	0	1	2	0	3	4	0	112	107	0	3	97
fixed	4	10	3	771719	6	4	4	1	0	629	1	4	0	128	108	0	3	97
fixed	4	10	4	772988	2	1	1	1	0	1535	1	4	0	104	109	0	3	97
fixed	4	10	5	775278	5	3	3	1	0	838	1	4	0	120	110	0	3	97
fixed	4	10	6	776541	6	4	4	1	0	817	1	4	0	128	111	0	3	97
fixed	4	10	7	778374	3	1	1	1	0	659	1	4	0	104	112	0	3	97
fixed	4	10	8	779807	2	3	3	1	0	582	1	4	0	120	113	0	3	97
fixed	4	10	9	780724	3	2	2	1	0	479	1	4	0	112	114	0	3	97
fixed	4	10	10	781888	1	4	4	1	0	638	1	4	0	128	115	0	3	97
fixed	4	10	11	783507	5	2	2	1	0	706	1	4	0	112	116	0	3	97
fixed	4	10	12	784501	4	3	3	1	0	327	1	4	0	120	117	0	3	98
fixed	5	1	1	785782	4	1	1	1	0	425	1	4	0	136	1	0	0	100
fixed	5	1	2	786931	1	2	2	1	0	705	1	4	0	144	2	0	0	100
fixed	5	1	3	788520	6	4	4	1	0	589	1	4	0	160	3	0	0	100
fixed	5	1	4	789945	2	1	1	1	0	664	1	4	0	136	4	0	0	100
fixed	5	1	5	791606	5	3	3	1	0	602	1	4	0	152	5	0	0	100
fixed	5	1	6	793213	6	4	4	1	0	806	1	4	0	160	6	0	0	100
fixed	5	1	7	794754	3	1	1	1	0	749	1	4	0	136	7	0	0	100
fixed	5	1	8	796289	2	3	3	1	0	612	1	4	0	152	8	0	0	100
fixed	5	1	9	797504	3	2	2	1	0	553	1	4	0	144	9	0	0	100
fixed	5	1	10	798581	1	4	4	1	0	643	1	4	0	160	10	0	0	100
fixed	5	1	11	799944	5	2	2	1	0	673	1	4	0	144	11	0	0	100
fixed	5	1	12	801231	4	3	3	1	0	339	1	4	0	152	12	0	0	100
fixed	5	2	1	802358	4	1	1	1	0	379	1	4	0	136	13	0	0	100
fixed	5	2	2	803524	1	2	2	1	0	714	1	4	0	144	14	0	0	100
fixed	5	2	3	804738	6	4	4	1	0	678	1	4	0	160	15	0	0	100
fixed	5	2	4	805823	2	1	1	1	0	744	1	4	0	136	16	0	0	100
fixed	5	2	5	807420	5	3	3	1	0	748	1	4	0	152	17	0	0	100
fixed	5	2	6	808464	6	4	4	1	0	704	1	4	0	160	18	0	0	100
fixed	5	2	7	809815	3	1	1	1	0	663	1	4	0	136	19	0	0	100
fixed	5	2	8	811011	2	3	3	1	0	988	1	4	0	152	20	0	0	100
fixed	5	2	9	812627	3	2	2	1	0	376	1	4	0	144	21	0	0	100
fixed	5	2	10	813811	1	4	4	1	0	486	1	4	0	160	22	0	0	100
fixed	5	2	11	814991	5	2	2	1	0	628	1	4	0	144	23	0	0	100
fixed	5	2	12	816484	4	3	3	1	0	269	1	4	0	152	24	0	0	100
fixed	5	3	1	817946	4	1	1	1	0	662	1	4	0	136	25	0	0	100
fixed	5	3	2	819202	1	2	2	1	0	609	1	4	0	144	26	0	0	100
fixed	5	3	3	820703	6	4	4	1	0	458	1	4	0	160	27	0	0	100
fixed	5	3	4	821840	2	1	1	1	0	722	1	4	0	136	28	0	0	100
fixed	5	3	5	823465	5	3	3	1	0	725	1	4	0	152	29	0	0	100
fixed	5	3	6	825024	6	4	4	1	0	635	1	4	0	160	30	0	0	100
fixed	5	3	7	826596	3	1	1	1	0	649	1	4	0	136	31	0	0	100
fixed	5	3	8	827606	2	3	3	2	0	1813	2	4	0	152	32	0	0	100
fixed	5	3	9	829874	3	2	2	1	0	1445	1	4	0	144	33	0	0	100
fixed	5	3	10	832196	1	4	4	1	0	643	1	4	0	160	34	0	0	100
fixed	5	3	11	833661	5	2	2	1	0	693	1	4	0	144	35	0	0	100
fixed	5	3	12	835191	4	3	3	1	0	612	1	4	0	152	36	0	0	100
fixed	5	4	1	836776	4	1	1	1	0	617	1	4	0	136	37	0	0	100
fixed	5	4	2	838336	1	2	2	1	0	895	1	4	0	144	38	0	0	100
fixed	5	4	3	840247	6	4	4	1	0	606	1	4	0	160	39	0	0	100
fixed	5	4	4	841666	2	1	1	1	0	994	1	4	0	136	40	0	0	100
fixed	5	4	5	843176	5	3	3	1	0	786	1	4	0	152	41	0	0	100
fixed	5	4	6	844770	6	4	4	1	0	639	1	4	0	160	42	0	0	100
fixed	5	4	7	846174	3	1	1	1	0	603	1	4	0	136	43	0	0	100
fixed	5	4	8	847509	2	3	3	1	0	835	1	4	0	152	44	0	0	100
fixed	5	4	9	849054	3	2	2	1	0	489	1	4	0	144	45	0	0	100
fixed	5	4	10	850177	1	4	4	1	0	633	1	4	0	160	46	0	0	100
fixed	5	4	11	851663	5	2	0	1	2	0	3	4	0	144	46	0	1	98
fixed	5	4	12	854845	4	3	3	1	0	804	1	4	0	152	47	0	1	98
fixed	5	5	1	856491	4	1	1	1	0	542	1	4	0	136	48	0	1	98
fixed	5	5	2	857718	1	2	2	1	0	522	1	4	0	144	49	0	1	98
fixed	5	5	3	858708	6	4	4	1	0	600	1	4	0	160	50	0	1	98
fixed	5	5	4	860142	2	1	1	1	0	1052	1	4	0	136	51	0	1	98
fixed	5	5	5	861535	5	3	3	1	0	656	1	4	0	152	52	0	1	98
fixed	5	5	6	862895	6	4	4	1	0	703	1	4	0	160	53	0	1	98
fixed	5	5	7	864609	3	1	1	1	0	686	1	4	0	136	54	0	1	98
fixed	5	5	8	865601	2	3	3	1	0	804	1	4	0	152	55	0	1	98
fixed	5	5	9	867216	3	2	2	1	0	720	1	4	0	144	56	0	1	98
fixed	5	5	10	868649	1	4	4	1	0	739	1	4	0	160	57	0	1	98
fixed	5	5	11	869727	5	2	2	1	0	869	1	4	0	144	58	0	1	98
fixed	5	5	12	871586	4	3	3	1	0	519	1	4	0	152	59	0	1	98
fixed	5	6	1	873098	4	1	1	1	0	886	1	4	0	136	60	0	1	98
fixed	5	6	2	875007	1	2	2	1	0	950	1	4	0	144	61	0	1	98
fixed	5	6	3	876378	6	4	4	1	0	732	1	4	0	160	62	0	1	98
fixed	5	6	4	877508	2	1	1	1	0	716	1	4	0	136	63	0	1	98
fixed	5	6	5	878835	5	3	3	1	0	644	1	4	0	152	64	0	1	98
fixed	5	6	6	879851	6	4	4	1	0	761	1	4	0	160	65	0	1	98
fixed	5	6	7	881416	3	1	1	1	0	630	1	4	0	136	66	0	1	99
fixed	5	6	8	882446	2	3	3	1	0	963	1	4	0	152	67	0	1	99
fixed	5	6	9	884197	3	2	2	1	0	433	1	4	0	144	68	0	1	99
fixed	5	6	10	885236	1	4	4	1	0	773	1	4	0	160	69	0	1	99
fixed	5	6	11	886567	5	2	2	1	0	644	1	4	0	144	70	0	1	99
fixed	5	6	12	887748	4	3	3	1	0	322	1	4	0	152	71	0	1	99
fixed	5	7	1	888753	4	1	1	1	0	543	1	4	0	136	72	0	1	99
fixed	5	7	2	890199	1	2	2	1	0	827	1	4	0	144	73	0	1	99
fixed	5	7	3	891698	6	4	4	1	0	363	1	4	0	160	74	0	1	99
fixed	5	7	4	892965	2	1	1	1	0	789	1	4	0	136	75	0	1	99
fixed	5	7	5	894238	5	3	3	1	0	695	1	4	0	152	76	0	1	99
fixed	5	7	6	895645	6	4	4	1	0	644	1	4	0	160	77	0	1	99
fixed	5	7	7	897157	3	1	1	1	0	987	1	4	0	136	78	0	1	99
fixed	5	7	8	899092	2	3	3	1	0	842	1	4	0	152	79	0	1	99
fixed	5	7	9	900710	3	2	2	1	0	653	1	4	0	144	80	0	1	99
fixed	5	7	10	901971	1	4	4	1	0	712	1	4	0	160	81	0	1	99
fixed	5	7	11	903496	5	2	2	1	0	615	1	4	0	144	82	0	1	99
fixed	5	7	12	904803	4	3	3	1	0	288	1	4	0	152	83	0	1	99
fixed	5	8	1	905896	4	1	1	1	0	601	1	4	0	136	84	0	1	99
fixed	5	8	2	906898	1	2	2	1	0	623	1	4	0	144	85	0	1	99
fixed	5	8	3	908259	6	4	4	1	0	334	1	4	0	160	86	0	1	99
fixed	5	8	4	909269	2	1	1	1	0	1106	1	4	0	136	87	0	1	99
fixed	5	8	5	910906	5	3	3	1	0	629	1	4	0	152	88	0	1	99
fixed	5	8	6	912104	6	4	4	1	0	635	1	4	0	160	89	0	1	99
fixed	5	8	7	913404	3	1	1	1	0	636	1	4	0	136	90	0	1	99
fixed	5	8	8	914954	2	3	3	1	0	650	1	4	0	152	91	0	1	99
fixed	5	8	9	916515	3	2	2	1	0	344	1	4	0	144	92	0	1	99
fixed	5	8	10	917489	1	4	4	1	0	686	1	4	0	160	93	0	1	99
fixed	5	8	11	919035	5	2	2	1	0	733	1	4	0	144	94	0	1	99
fixed	5	8	12	920621	4	3	3	1	0	314	1	4	0	152	95	0	1	99
fixed	5	9	1	921851	4	1	1	1	0	734	1	4	0	136	96	0	1	99
fixed	5	9	2	922990	1	2	2	1	0	797	1	4	0	144	97	0	1	99
fixed	5	9	3	924699	6	4	4	1	0	797	1	4	0	160	98	0	1	99
fixed	5	9	4	926089	2	1	1	1	0	1283	1	4	0	136	99	0	1	99
fixed	5	9	5	928275	5	3	3	1	0	662	1	4	0	152	100	0	1	99
fixed	5	9	6	929290	6	4	4	1	0	1211	1	4	0	160	101	0	1	99
fixed	5	9	7	931150	3	1	1	1	0	1172	1	4	0	136	102	0	1	99
fixed	5	9	8	933007	2	3	3	1	0	590	1	4	0	152	103	0	1	99
fixed	5	9	9	934226	3	2	2	1	0	666	1	4	0	144	104	0	1	99
fixed	5	9	10	935391	1	4	4	1	0	608	1	4	0	160	105	0	1	99
fixed	5	9	11	936497	5	2	2	1	0	602	1	4	0	144	106	0	1	99
fixed	5	9	12	937975	4	3	3	1	0	195	1	4	0	152	107	0	1	99
fixed	5	10	1	938776	4	1	1	1	0	697	1	4	0	136	108	0	1	99
fixed	5	10	2	940382	1	2	2	1	0	557	1	4	0	144	109	0	1	99
fixed	5	10	3	941743	6	4	4	1	0	403	1	4	0	160	110	0	1	99
fixed	5	10	4	942536	2	1	1	1	0	1201	1	4	0	136	111	0	1	99
fixed	5	10	5	944341	5	3	3	1	0	589	1	4	0	152	112	0	1	99
fixed	5	10	6	945699	6	4	4	1	0	636	1	4	0	160	113	0	1	99
fixed	5	10	7	946754	3	1	1	1	0	647	1	4	0	136	114	0	1	99
fixed	5	10	8	947864	2	3	3	1	0	848	1	4	0	152	115	0	1	99
fixed	5	10	9	949205	3	2	2	1	0	543	1	4	0	144	116	0	1	99
fixed	5	10	10	950297	1	4	4	1	0	577	1	4	0	160	117	0	1	99
fixed	5	10	11	951546	5	2	2	1	0	620	1	4	0	144	118	0	1	99
fixed	5	10	12	953088	4	3	3	1	0	451	1	4	0	152	119	0	1	99
random	6	1	1	1051367	6	1	1	1	0	1160	1	4	0	168	1	0	0	100
random	6	1	2	1053414	4	4	4	1	0	649	1	4	0	192	2	0	0	100
random	6	1	3	1054477	2	2	2	1	0	684	1	4	0	176	3	0	0	100
random	6	1	4	1055462	3	3	3	1	0	587	1	4	0	184	4	0	0	100
random	6	1	5	1056401	5	2	2	1	0	563	1	4	0	176	5	0	0	100
random	6	1	6	1057515	1	4	4	1	0	595	1	4	0	192	6	0	0	100
random	6	1	7	1058768	6	1	1	1	0	702	1	4	0	168	7	0	0	100
random	6	1	8	1060445	2	3	3	1	0	816	1	4	0	184	8	0	0	100
random	6	1	9	1061554	4	2	2	1	0	649	1	4	0	176	9	0	0	100
random	6	1	10	1062977	1	1	0	1	2	0	3	4	0	168	9	0	1	90
random	6	1	11	1066186	5	4	4	1	0	1052	1	4	0	192	10	0	1	91
random	6	1	12	1068194	3	3	3	1	0	815	1	4	0	184	11	0	1	92
random	6	1	13	1069714	5	2	2	1	0	695	1	4	0	176	12	0	1	92
random	6	1	14	1071198	1	4	4	1	0	753	1	4	0	192	13	0	1	93
random	6	1	15	1072374	3	1	1	1	0	742	1	4	0	168	14	0	1	93
random	6	1	16	1073488	4	3	3	1	0	1015	1	4	0	184	15	0	1	94
random	6	1	17	1074892	6	4	4	1	0	1043	1	4	0	192	16	0	1	94
random	6	1	18	1076574	2	1	1	1	0	725	1	4	0	168	17	0	1	94
random	6	1	19	1078196	5	3	3	1	0	680	1	4	0	184	18	0	1	95
random	6	1	20	1079397	2	2	2	1	0	717	1	4	0	176	19	0	1	95
random	6	1	21	1080848	3	3	3	1	0	800	1	4	0	184	20	0	1	95
random	6	1	22	1082014	6	1	1	1	0	1078	1	4	0	168	21	0	1	95
random	6	1	23	1084105	4	2	2	1	0	870	1	4	0	176	22	0	1	96
random	6	1	24	1085523	1	4	4	1	0	697	1	4	0	192	23	0	1	96
random	6	1	25	1087073	4	3	3	1	0	888	1	4	0	184	24	0	1	96
random	6	1	26	1089009	2	1	1	1	0	693	1	4	0	168	25	0	1	96
random	6	1	27	1090305	5	2	2	1	0	783	1	4	0	176	26	0	1	96
random	6	1	28	1091813	6	4	4	1	0	623	1	4	0	192	27	0	1	96
random	6	1	29	1093289	1	3	3	1	0	728	1	4	0	184	28	0	1	97
random	6	1	30	1094858	5	2	2	1	0	718	1	4	0	176	29	0	1	97
random	6	1	31	1096248	2	1	1	1	0	1211	1	4	0	168	30	0	1	97
random	6	1	32	1098187	3	3	3	1	0	785	1	4	0	184	31	0	1	97
random	6	1	33	1099780	6	4	4	1	0	630	1	4	0	192	32	0	1	97
random	6	1	34	1101191	4	2	2	1	0	754	1	4	0	176	33	0	1	97
random	6	1	35	1102899	3	4	4	1	0	713	1	4	0	192	34	0	1	97
random	6	1	36	1103979	1	1	1	1	0	532	1	4	0	168	35	0	1	97
random	6	1	37	1105168	3	4	4	1	0	937	1	4	0	192	36	0	1	97
random	6	1	38	1107067	5	3	3	1	0	673	1	4	0	184	37	0	1	97
random	6	1	39	1108657	6	1	1	1	0	861	1	4	0	168	38	0	1	97
random	6	1	40	1110131	1	2	2	1	0	711	1	4	0	176	39	0	1	98
random	6	1	41	1111833	2	3	3	1	0	575	1	4	0	184	40	0	1	98
random	6	1	42	1112941	4	4	4	1	0	800	1	4	0	192	41	0	1	98
random	6	1	43	1114770	1	2	2	1	0	651	1	4	0	176	42	0	1	98
random	6	1	44	1116388	6	3	3	1	0	550	1	4	0	184	43	0	1	98
random	6	1	45	1117369	3	1	1	1	0	853	1	4	0	168	44	0	1	98
random	6	1	46	1118693	4	4	4	1	0	853	1	4	0	192	45	0	1	98
random	6	1	47	1119976	2	2	2	1	0	694	1	4	0	176	46	0	1	98
random	6	1	48	1121040	5	1	1	1	0	841	1	4	0	168	47	0	1	98
random	6	1	49	1122694	2	3	3	1	0	971	1	4	0	184	48	0	1	98
random	6	1	50	1124236	3	1	1	1	0	1010	1	4	0	168	49	0	1	98
random	6	1	51	1126237	1	4	4	1	0	629	1	4	0	192	50	0	1	98
random	6	1	52	1127688	5	3	3	1	0	703	1	4	0	184	51	0	1	98
random	6	1	53	1128866	3	2	2	1	0	518	1	4	0	176	52	0	1	98
random	6	1	54	1130078	6	4	4	1	0	674	1	4	0	192	53	0	1	98
random	6	1	55	1131617	4	2	2	1	0	889	1	4	0	176	54	0	1	98
random	6	1	56	1132942	1	1	1	1	0	801	1	4	0	168	55	0	1	98
random	6	1	57	1134245	5	4	4	1	0	986	1	4	0	192	56	0	1	98
random	6	1	58	1135987	2	1	1	1	0	816	1	4	0	168	57	0	1	98
random	6	1	59	1137451	6	2	2	1	0	890	1	4	0	176	58	0	1	98
random	6	1	60	1138911	4	3	3	1	0	732	1	4	0	184	59	0	1	98
random	6	1	61	1140755	1	2	2	1	0	750	1	4	0	176	60	0	1	98
random	6	1	62	1142523	6	4	4	1	0	660	1	4	0	192	61	0	1	98
random	6	1	63	1143535	4	1	1	1	0	888	1	4	0	168	62	0	1	98
random	6	1	64	1144850	2	2	2	1	0	816	1	4	0	176	63	0	1	98
random	6	1	65	1146354	4	3	3	1	0	577	1	4	0	184	64	0	1	98
random	6	1	66	1147280	3	1	1	1	0	754	1	4	0	168	65	0	1	98
random	6	1	67	1148918	1	3	3	1	0	1605	1	4	0	184	66	0	1	99
random	6	1	68	1151486	5	4	4	1	0	832	1	4	0	192	67	0	1	99
random	6	1	69	1152780	2	2	2	1	0	825	1	4	0	176	68	0	1	99
random	6	1	70	1154570	3	1	1	1	0	845	1	4	0	168	69	0	1	99
random	6	1	71	1155763	5	4	4	1	0	1346	1	4	0	192	70	0	1	99
random	6	1	72	1157919	6	3	3	1	0	847	1	4	0	184	71	0	1	99
random	6	1	73	1160036	2	1	1	1	0	1253	1	4	0	168	72	0	1	99
random	6	1	74	1161986	5	3	3	1	0	803	1	4	0	184	73	0	1	99
random	6	1	75	1163502	1	4	4	1	0	755	1	4	0	192	74	0	1	99
random	6	1	76	1164895	6	2	2	1	0	607	1	4	0	176	75	0	1	99
random	6	1	77	1165950	2	1	1	1	0	763	1	4	0	168	76	0	1	99
random	6	1	78	1167300	4	4	4	1	0	1146	1	4	0	192	77	0	1	99
random	6	1	79	1169246	3	2	2	1	0	719	1	4	0	176	78	0	1	99
random	6	1	80	1170624	4	3	3	1	0	477	1	4	0	184	79	0	1	99
random	6	1	81	1171463	1	4	4	1	0	785	1	4	0	192	80	0	1	99
random	6	1	82	1173009	5	1	1	1	0	736	1	4	0	168	81	0	1	99
random	6	1	83	1174559	3	2	2	1	0	718	1	4	0	176	82	0	1	99
random	6	1	84	1175963	6	3	3	1	0	595	1	4	0	184	83	0	1	99
random	6	1	85	1177629	3	2	2	1	0	1980	1	4	0	176	84	0	1	99
random	6	1	86	1180085	1	3	3	1	0	524	1	4	0	184	85	0	1	99
random	6	1	87	1181489	4	4	4	1	0	577	1	4	0	192	86	0	1	99
random	6	1	88	1182949	2	1	1	1	0	419	1	4	0	168	87	0	1	99
random	6	1	89	1183775	6	4	4	1	0	736	1	4	0	192	88	0	1	99
random	6	1	90	1185553	3	3	3	1	0	853	1	4	0	184	89	0	1	99
random	6	1	91	1187442	5	4	4	1	0	669	1	4	0	192	90	0	1	99
random	6	1	92	1188715	1	2	2	1	0	607	1	4	0	176	91	0	1	99
random	6	1	93	1189811	5	1	1	1	0	680	1	4	0	168	92	0	1	99
random	6	1	94	1191419	4	3	3	1	0	700	1	4	0	184	93	0	1	99
random	6	1	95	1193142	6	1	1	1	0	995	1	4	0	168	94	0	1	99
random	6	1	96	1195153	2	2	2	1	0	894	1	4	0	176	95	0	1	99
random	6	1	97	1196943	4	3	3	1	0	786	1	4	0	184	96	0	1	99
random	6	1	98	1198252	3	2	2	1	0	691	1	4	0	176	97	0	1	99
random	6	1	99	1199694	6	3	3	1	0	790	1	4	0	184	98	0	1	99
random	6	1	100	1200859	1	4	4	1	0	684	1	4	0	192	99	0	1	99
random	6	1	101	1202032	4	1	1	1	0	771	1	4	0	168	100	0	1	99
random	6	1	102	1203737	5	2	2	1	0	939	1	4	0	176	101	0	1	99
random	6	1	103	1205642	2	4	4	1	0	834	1	4	0	192	102	0	1	99
random	6	1	104	1207250	3	1	1	1	0	830	1	4	0	168	103	0	1	99
random	6	1	105	1208484	1	3	3	1	0	1162	1	4	0	184	104	0	1	99
random	6	1	106	1210268	2	2	2	1	0	750	1	4	0	176	105	0	1	99
random	6	1	107	1211906	5	4	4	1	0	633	1	4	0	192	106	0	1	99
random	6	1	108	1212844	6	1	1	1	0	1065	1	4	0	168	107	0	1	99
random	6	1	109	1214736	5	4	4	1	0	1104	1	4	0	192	108	0	1	99
random	6	1	110	1216383	6	3	3	1	0	1195	1	4	0	184	109	0	1	99
random	6	1	111	1218480	2	2	2	1	0	730	1	4	0	176	110	0	1	99
random	6	1	112	1219633	3	1	1	1	0	1065	1	4	0	168	111	0	1	99
random	6	1	113	1221487	1	2	0	1	2	0	3	4	0	176	111	0	2	98
random	6	1	114	1224493	2	3	3	1	0	659	1	4	0	184	112	0	2	98
random	6	1	115	1225723	3	1	1	1	0	952	1	4	0	168	113	0	2	98
random	6	1	116	1227642	4	4	4	1	0	646	1	4	0	192	114	0	2	98
random	6	1	117	1228858	6	1	1	1	0	770	1	4	0	168	115	0	2	98
random	6	1	118	1230290	5	3	3	1	0	838	1	4	0	184	116	0	2	98
random	6	1	119	1231713	1	4	4	1	0	770	1	4	0	192	117	0	2	98
random	6	1	120	1232877	4	2	2	1	0	641	1	4	0	176	118	0	2	98
fixed	7	1	1	1235051	4	1	1	1	0	820	1	4	0	200	1	0	0	100
fixed	7	1	2	1236895	1	2	2	1	0	614	1	4	0	208	2	0	0	100
fixed	7	1	3	1238520	6	4	4	1	0	593	1	4	0	224	3	0	0	100
fixed	7	1	4	1239702	2	1	1	1	0	695	1	4	0	200	4	0	0	100
fixed	7	1	5	1240829	5	3	3	1	0	744	1	4	0	216	5	0	0	100
fixed	7	1	6	1242013	6	4	4	1	0	910	1	4	0	224	6	0	0	100
fixed	7	1	7	1243888	3	1	1	1	0	646	1	4	0	200	7	0	0	100
fixed	7	1	8	1245062	2	3	3	1	0	796	1	4	0	216	8	0	0	100
fixed	7	1	9	1246239	3	2	2	1	0	627	1	4	0	208	9	0	0	100
fixed	7	1	10	1247444	1	4	4	1	0	656	1	4	0	224	10	0	0	100
fixed	7	1	11	1248648	5	2	2	1	0	909	1	4	0	208	11	0	0	100
fixed	7	1	12	1250101	4	3	3	1	0	455	1	4	0	216	12	0	0	100
fixed	7	2	1	1251209	4	1	1	1	0	896	1	4	0	200	1	0	0	8
fixed	7	2	2	1252475	1	2	2	1	0	706	1	4	0	208	2	0	0	14
fixed	7	2	3	1253685	6	4	4	2	0	1703	2	4	0	224	3	0	0	20
fixed	7	2	4	1256073	2	1	1	1	0	762	1	4	0	200	4	0	0	25
fixed	7	2	5	1257438	5	3	3	1	0	880	1	4	0	216	5	0	0	29
fixed	7	2	6	1258988	6	4	4	1	0	1015	1	4	0	224	6	0	0	33
fixed	7	2	7	1260852	3	1	1	1	0	647	1	4	0	200	7	0	0	37
fixed	7	2	8	1262112	2	3	3	1	0	714	1	4	0	216	8	0	0	40
fixed	7	2	9	1263111	3	2	2	1	0	624	1	4	0	208	9	0	0	43
fixed	7	2	10	1264772	1	4	4	1	0	754	1	4	0	224	10	0	0	45
fixed	7	2	11	1266143	5	2	2	1	0	1264	1	4	0	208	11	0	0	48
fixed	7	2	12	1268018	4	3	3	1	0	832	1	4	0	216	12	0	0	50
fixed	7	3	1	1269855	4	1	1	1	0	858	1	4	0	200	1	0	0	4
fixed	7	3	2	1271332	1	2	2	1	0	964	1	4	0	208	2	0	0	8
fixed	7	3	3	1273042	6	4	4	1	0	795	1	4	0	224	3	0	0	11
fixed	7	3	4	1274489	2	1	1	1	0	750	1	4	0	200	4	0	0	14
fixed	7	3	5	1276206	5	3	3	1	0	1349	1	4	0	216	5	0	0	17
fixed	7	3	6	1278393	6	4	4	1	0	696	1	4	0	224	6	0	0	20
fixed	7	3	7	1279572	3	1	1	1	0	711	1	4	0	200	7	0	0	23
fixed	7	3	8	1280974	2	3	3	1	0	787	1	4	0	216	8	0	0	25
fixed	7	3	9	1282673	3	2	2	1	0	859	1	4	0	208	9	0	0	27
fixed	7	3	10	1284170	1	4	4	1	0	1524	1	4	0	224	10	0	0	29
fixed	7	3	11	1286202	5	2	2	1	0	1006	1	4	0	208	11	0	0	31
fixed	7	3	12	1287526	4	3	3	1	0	646	1	4	0	216	12	0	0	33
fixed	7	4	1	1289286	4	1	1	1	0	1235	1	4	0	200	1	0	0	3
fixed	7	4	2	1291111	1	2	2	1	0	886	1	4	0	208	2	0	0	5
fixed	7	4	3	1292770	6	4	4	2	0	1648	2	4	0	224	3	0	0	8
fixed	7	4	4	1295002	2	1	1	1	0	961	1	4	0	200	4	0	0	10
fixed	7	4	5	1296433	5	3	3	2	0	2077	2	4	0	216	5	0	0	12
fixed	7	4	6	1299397	6	4	4	1	0	1351	1	4	0	224	6	0	0	14
fixed	7	4	7	1301420	3	1	1	1	0	673	1	4	0	200	7	0	0	16
fixed	7	4	8	1302912	2	3	3	1	0	922	1	4	0	216	8	0	0	18
fixed	7	4	9	1304828	3	2	2	1	0	713	1	4	0	208	9	0	0	20
fixed	7	4	10	1306405	1	4	4	1	0	830	1	4	0	224	10	0	0	22
fixed	7	4	11	1307671	5	2	2	1	0	625	1	4	0	208	11	0	0	23
fixed	7	4	12	1309088	4	3	3	1	0	372	1	4	0	216	12	0	0	25
fixed	7	5	1	1310605	4	1	1	1	0	708	1	4	0	200	1	0	0	2
fixed	7	5	2	1312327	1	2	2	1	0	811	1	4	0	208	2	0	0	4
fixed	7	5	3	1313874	6	4	4	1	0	914	1	4	0	224	3	0	0	6
fixed	7	5	4	1315592	2	1	1	1	0	761	1	4	0	200	4	0	0	8
fixed	7	5	5	1317124	5	3	3	1	0	696	1	4	0	216	5	0	0	9
fixed	7	5	6	1318439	6	4	4	1	0	792	1	4	0	224	6	0	0	11
fixed	7	5	7	1320114	3	1	1	1	0	1761	1	4	0	200	7	0	0	13
fixed	7	5	8	1322915	2	3	3	1	0	1283	1	4	0	216	8	0	0	14
fixed	7	5	9	1325159	3	2	2	1	0	644	1	4	0	208	9	0	0	16
fixed	7	5	10	1326467	1	4	4	1	0	1484	1	4	0	224	10	0	0	17
fixed	7	5	11	1328363	5	2	2	1	0	796	1	4	0	208	11	0	0	19
fixed	7	5	12	1329460	4	3	3	1	0	350	1	4	0	216	12	0	0	20
fixed	7	6	1	1330404	4	1	1	1	0	661	1	4	0	200	1	0	0	2
fixed	7	6	2	1331431	1	2	2	1	0	682	1	4	0	208	2	0	0	3
fixed	7	6	3	1332952	6	4	4	1	0	378	1	4	0	224	3	0	0	5
fixed	7	6	4	1333792	2	1	1	1	0	702	1	4	0	200	4	0	0	6
fixed	7	6	5	1335545	5	3	3	1	0	1420	1	4	0	216	5	0	0	8
fixed	7	6	6	1337934	6	4	4	1	0	847	1	4	0	224	6	0	0	9
fixed	7	6	7	1339576	3	1	0	0	2	0	3	4	0	200	6	0	1	9
fixed	7	6	8	1342577	2	3	3	1	0	898	1	4	0	216	7	0	1	10
fixed	7	6	9	1344320	3	2	2	1	0	672	1	4	0	208	8	0	1	12
fixed	7	6	10	1345489	1	4	4	1	0	742	1	4	0	224	9	0	1	13
fixed	7	6	11	1346918	5	2	2	1	0	698	1	4	0	208	10	0	1	14
fixed	7	6	12	1348491	4	3	3	1	0	312	1	4	0	216	11	0	1	15
fixed	7	7	1	1349500	4	1	1	1	0	613	1	4	0	200	1	0	0	1
fixed	7	7	2	1350950	1	2	2	1	0	312	1	4	0	208	2	0	0	3
fixed	7	7	3	1352027	6	4	4	1	0	290	1	4	0	224	3	0	0	4
fixed	7	7	4	1352631	2	1	1	1	0	632	1	4	0	200	4	0	0	5
fixed	7	7	5	1353741	5	3	3	1	0	722	1	4	0	216	5	0	0	6
fixed	7	7	6	1355168	6	4	4	1	0	637	1	4	0	224	6	0	0	8
fixed	7	7	7	1356370	3	1	1	1	0	658	1	4	0	200	7	0	0	9
fixed	7	7	8	1357912	2	3	3	1	0	777	1	4	0	216	8	0	0	10
fixed	7	7	9	1359188	3	2	2	1	0	611	1	4	0	208	9	0	0	11
fixed	7	7	10	1360290	1	4	4	1	0	644	1	4	0	224	10	0	0	12
fixed	7	7	11	1361654	5	2	2	1	0	810	1	4	0	208	11	0	0	13
fixed	7	7	12	1362819	4	3	3	1	0	400	1	4	0	216	12	0	0	14
fixed	7	8	1	1364036	4	1	1	1	0	589	1	4	0	200	1	0	0	1
fixed	7	8	2	1365471	1	2	2	1	0	680	1	4	0	208	2	0	0	2
fixed	7	8	3	1367023	6	4	4	1	0	383	1	4	0	224	3	0	0	3
fixed	7	8	4	1367689	2	1	1	1	0	763	1	4	0	200	4	0	0	5
fixed	7	8	5	1369410	5	3	3	1	0	754	1	4	0	216	5	0	0	6
fixed	7	8	6	1370943	6	4	4	1	0	609	1	4	0	224	6	0	0	7
fixed	7	8	7	1372015	3	1	1	1	0	643	1	4	0	200	7	0	0	8
fixed	7	8	8	1373257	2	3	3	1	0	782	1	4	0	216	8	0	0	9
fixed	7	8	9	1374844	3	2	2	1	0	739	1	4	0	208	9	0	0	10
fixed	7	8	10	1376058	1	4	4	1	0	544	1	4	0	224	10	0	0	11
fixed	7	8	11	1376994	5	2	2	1	0	504	1	4	0	208	11	0	0	12
fixed	7	8	12	1378291	4	3	3	1	0	257	1	4	0	216	12	0	0	13
fixed	7	9	1	1379624	4	1	1	1	0	697	1	4	0	200	1	0	0	1
fixed	7	9	2	1380677	1	2	2	1	0	452	1	4	0	208	2	0	0	2
fixed	7	9	3	1381574	6	4	4	1	0	415	1	4	0	224	3	0	0	3
fixed	7	9	4	1382710	2	1	1	1	0	758	1	4	0	200	4	0	0	4
fixed	7	9	5	1384253	5	3	3	1	0	669	1	4	0	216	5	0	0	5
fixed	7	9	6	1385423	6	4	4	1	0	739	1	4	0	224	6	0	0	6
fixed	7	9	7	1387057	3	1	1	1	0	718	1	4	0	200	7	0	0	7
fixed	7	9	8	1388480	2	3	3	1	0	786	1	4	0	216	8	0	0	8
fixed	7	9	9	1389849	3	2	2	1	0	400	1	4	0	208	9	0	0	9
fixed	7	9	10	1391072	1	4	4	1	0	588	1	4	0	224	10	0	0	9
fixed	7	9	11	1392147	5	2	2	1	0	1007	1	4	0	208	11	0	0	10
fixed	7	9	12	1393768	4	3	3	1	0	274	1	4	0	216	12	0	0	11
fixed	7	10	1	1394862	4	1	1	1	0	763	1	4	0	200	1	0	0	1
fixed	7	10	2	1396424	1	2	2	1	0	665	1	4	0	208	2	0	0	2
fixed	7	10	3	1397754	6	4	4	1	0	625	1	4	0	224	3	0	0	3
fixed	7	10	4	1399261	2	1	1	1	0	793	1	4	0	200	4	0	0	4
fixed	7	10	5	1400447	5	3	3	1	0	759	1	4	0	216	5	0	0	4
fixed	7	10	6	1402145	6	4	4	1	0	599	1	4	0	224	6	0	0	5
fixed	7	10	7	1403652	3	1	1	1	0	783	1	4	0	200	7	0	0	6
fixed	7	10	8	1405064	2	3	3	1	0	668	1	4	0	216	8	0	0	7
fixed	7	10	9	1406333	3	2	2	1	0	422	1	4	0	208	9	0	0	8
fixed	7	10	10	1407565	1	4	4	1	0	841	1	4	0	224	10	0	0	8
fixed	7	10	11	1409127	5	2	2	1	0	760	1	4	0	208	11	0	0	9
fixed	7	10	12	1410512	4	3	3	1	0	325	1	4	0	216	12	0	0	10
