type	block	sequ.	trial	time	Pos.	Color	Button	NumRsp	Resp_1	RT_1	R_Code	Resp_2	RT_2	Trigg.	n_hit	n_inc	n_miss	score_%

random	1	1	1	2420	6	1	1	1	0	2050	1	4	0	8	1	0	0	100
random	1	1	2	4931	4	4	4	1	0	2216	1	4	0	32	2	0	0	100
random	1	1	3	8026	2	2	0	0	2	0	3	4	0	16	2	0	1	67
random	1	1	4	11045	3	3	3	1	0	1981	1	4	0	24	3	0	1	75
random	1	1	5	13715	5	2	0	0	2	0	3	4	0	16	3	0	2	60
random	1	1	6	16986	1	4	4	1	0	2274	1	4	0	32	4	0	2	67
random	1	1	7	20285	6	1	1	1	0	1366	1	4	0	8	5	0	2	71
random	1	1	8	22676	2	3	0	0	2	0	3	4	0	24	5	0	3	63
random	1	1	9	26043	4	2	2	1	0	1594	1	4	0	16	6	0	3	67
random	1	1	10	28025	1	1	1	1	0	1174	1	4	0	8	7	0	3	70
random	1	1	11	29903	5	4	4	1	0	1095	1	4	0	32	8	0	3	73
random	1	1	12	31749	3	3	3	1	0	1616	1	4	0	24	9	0	3	75
random	1	1	13	34634	5	2	2	1	0	1470	1	4	0	16	10	0	3	77
random	1	1	14	36459	1	4	4	1	0	1201	1	4	0	32	11	0	3	79
random	1	1	15	38491	3	1	1	1	0	1067	1	4	0	8	12	0	3	80
random	1	1	16	40452	4	3	0	1	2	0	3	4	0	24	12	0	4	75
random	1	1	17	43646	6	4	4	1	0	1161	1	4	0	32	13	0	4	76
random	1	1	18	45586	2	1	1	1	0	1102	1	4	0	8	14	0	4	78
random	1	1	19	47652	5	3	3	1	0	1239	1	4	0	24	15	0	4	79
random	1	1	20	49501	2	2	2	1	0	1313	1	4	0	16	16	0	4	80
random	1	1	21	51295	3	3	3	1	0	940	1	4	0	24	17	0	4	81
random	1	1	22	52641	6	1	1	1	0	964	1	4	0	8	18	0	4	82
random	1	1	23	53906	4	2	2	1	0	1438	1	4	0	16	19	0	4	83
random	1	1	24	55921	1	4	4	1	0	1160	1	4	0	32	20	0	4	83
random	1	1	25	57925	4	3	0	1	2	0	3	4	0	24	20	0	5	80
random	1	1	26	61016	2	1	1	1	0	1033	1	4	0	8	21	0	5	81
random	1	1	27	62608	5	2	2	1	0	1653	1	4	0	16	22	0	5	81
random	1	1	28	64833	6	4	4	1	0	927	1	4	0	32	23	0	5	82
random	1	1	29	66051	1	3	3	1	0	1332	1	4	0	24	24	0	5	83
random	1	1	30	68157	5	2	2	1	0	1090	1	4	0	16	25	0	5	83
random	1	1	31	69904	2	1	1	1	0	832	1	4	0	8	26	0	5	84
random	1	1	32	71218	3	3	3	1	0	1297	1	4	0	24	27	0	5	84
random	1	1	33	73275	6	4	4	1	0	802	1	4	0	32	28	0	5	85
random	1	1	34	75032	4	2	2	1	0	1079	1	4	0	16	29	0	5	85
random	1	1	35	76404	3	4	4	1	0	925	1	4	0	32	30	0	5	86
random	1	1	36	78307	1	1	1	1	0	996	1	4	0	8	31	0	5	86
random	1	1	37	80380	3	4	4	1	0	1196	1	4	0	32	32	0	5	86
random	1	1	38	82445	5	3	3	1	0	1669	1	4	0	24	33	0	5	87
random	1	1	39	84967	6	1	1	1	0	866	1	4	0	8	34	0	5	87
random	1	1	40	86768	1	2	2	1	0	1366	1	4	0	16	35	0	5	88
random	1	1	41	89017	2	3	3	1	0	982	1	4	0	24	36	0	5	88
random	1	1	42	90393	4	4	4	1	0	828	1	4	0	32	37	0	5	88
random	1	1	43	92001	1	2	2	1	0	993	1	4	0	16	38	0	5	88
random	1	1	44	93413	6	3	3	1	0	932	1	4	0	24	39	0	5	89
random	1	1	45	95127	3	1	1	1	0	860	1	4	0	8	40	0	5	89
random	1	1	46	96766	4	4	4	1	0	1047	1	4	0	32	41	0	5	89
random	1	1	47	98350	2	2	2	1	0	1012	1	4	0	16	42	0	5	89
random	1	1	48	99690	5	1	1	1	0	915	1	4	0	8	43	0	5	90
random	1	1	49	101382	2	3	3	1	0	1267	1	4	0	24	44	0	5	90
random	1	1	50	102976	3	1	1	1	0	944	1	4	0	8	45	0	5	90
random	1	1	51	104373	1	4	4	1	0	892	1	4	0	32	46	0	5	90
random	1	1	52	105991	5	3	0	1	2	0	3	4	0	24	46	0	6	88
random	1	1	53	109469	3	2	2	1	0	1204	1	4	0	16	47	0	6	89
random	1	1	54	111493	6	4	4	1	0	783	1	4	0	32	48	0	6	89
random	1	1	55	113251	4	2	2	1	0	1020	1	4	0	16	49	0	6	89
random	1	1	56	115309	1	1	1	1	0	877	1	4	0	8	50	0	6	89
random	1	1	57	116818	5	4	4	1	0	877	1	4	0	32	51	0	6	89
random	1	1	58	118586	2	1	1	1	0	747	1	4	0	8	52	0	6	90
random	1	1	59	120213	6	2	2	1	0	989	1	4	0	16	53	0	6	90
random	1	1	60	122209	4	3	3	1	0	810	1	4	0	24	54	0	6	90
random	1	1	61	124238	1	2	2	1	0	963	1	4	0	16	55	0	6	90
random	1	1	62	125788	6	4	4	1	0	826	1	4	0	32	56	0	6	90
random	1	1	63	127274	4	1	1	1	0	1067	1	4	0	8	57	0	6	90
random	1	1	64	128981	2	2	2	1	0	946	1	4	0	16	58	0	6	91
random	1	1	65	130251	4	3	3	1	0	908	1	4	0	24	59	0	6	91
random	1	1	66	131658	3	1	1	1	0	729	1	4	0	8	60	0	6	91
random	1	1	67	133130	1	3	3	1	0	1210	1	4	0	24	61	0	6	91
random	1	1	68	134693	5	4	4	1	0	736	1	4	0	32	62	0	6	91
random	1	1	69	136049	2	2	2	1	0	950	1	4	0	16	63	0	6	91
random	1	1	70	137433	3	1	1	1	0	812	1	4	0	8	64	0	6	91
random	1	1	71	138867	5	4	4	1	0	800	1	4	0	32	65	0	6	92
random	1	1	72	140688	6	3	3	1	0	1066	1	4	0	24	66	0	6	92
random	1	1	73	142667	2	1	1	1	0	846	1	4	0	8	67	0	6	92
random	1	1	74	144538	5	3	3	1	0	919	1	4	0	24	68	0	6	92
random	1	1	75	145779	1	4	4	1	0	915	1	4	0	32	69	0	6	92
random	1	1	76	147509	6	2	2	1	0	937	1	4	0	16	70	0	6	92
random	1	1	77	149473	2	1	1	1	0	878	1	4	0	8	71	0	6	92
random	1	1	78	150974	4	4	4	2	0	847	2	4	0	32	72	0	6	92
random	1	1	79	152547	3	2	2	1	0	1468	1	4	0	16	73	0	6	92
random	1	1	80	154325	4	3	3	1	0	873	1	4	0	24	74	0	6	93
random	1	1	81	156202	1	4	4	1	0	753	1	4	0	32	75	0	6	93
random	1	1	82	157467	5	1	1	1	0	539	1	4	0	8	76	0	6	93
random	1	1	83	158588	3	2	2	1	0	1324	1	4	0	16	77	0	6	93
random	1	1	84	160427	6	3	3	1	0	830	1	4	0	24	78	0	6	93
random	1	1	85	162131	3	2	2	1	0	1022	1	4	0	16	79	0	6	93
random	1	1	86	164042	1	3	3	1	0	813	1	4	0	24	80	0	6	93
random	1	1	87	165244	4	4	4	1	0	842	1	4	0	32	81	0	6	93
random	1	1	88	166844	2	1	1	1	0	438	1	4	0	8	82	0	6	93
random	1	1	89	167712	6	4	4	1	0	857	1	4	0	32	83	0	6	93
random	1	1	90	169562	3	3	3	1	0	988	1	4	0	24	84	0	6	93
random	1	1	91	171306	5	4	4	1	0	761	1	4	0	32	85	0	6	93
random	1	1	92	172362	1	2	2	1	0	1309	1	4	0	16	86	0	6	93
random	1	1	93	174038	5	1	1	1	0	894	1	4	0	8	87	0	6	94
random	1	1	94	175477	4	3	3	1	0	849	1	4	0	24	88	0	6	94
random	1	1	95	176656	6	1	1	1	0	911	1	4	0	8	89	0	6	94
random	1	1	96	178092	2	2	2	2	0	1562	2	4	0	16	90	0	6	94
random	1	1	97	180927	4	3	3	1	0	1306	1	4	0	24	91	0	6	94
random	1	1	98	183275	3	2	2	2	0	1527	2	4	0	16	92	0	6	94
random	1	1	99	185602	6	3	3	1	0	1035	1	4	0	24	93	0	6	94
random	1	1	100	186981	1	4	4	1	0	905	1	4	0	32	94	0	6	94
random	1	1	101	188492	4	1	1	1	0	898	1	4	0	8	95	0	6	94
random	1	1	102	190061	5	2	2	1	0	1327	1	4	0	16	96	0	6	94
random	1	1	103	191953	2	4	4	1	0	831	1	4	0	32	97	0	6	94
random	1	1	104	193819	3	1	1	1	0	728	1	4	0	8	98	0	6	94
random	1	1	105	195188	1	3	3	1	0	974	1	4	0	24	99	0	6	94
random	1	1	106	196621	2	2	2	1	0	849	1	4	0	16	100	0	6	94
random	1	1	107	198350	5	4	4	1	0	736	1	4	0	32	101	0	6	94
random	1	1	108	199404	6	1	1	1	0	771	1	4	0	8	102	0	6	94
random	1	1	109	201177	5	4	4	1	0	968	1	4	0	32	103	0	6	94
random	1	1	110	202642	6	3	3	1	0	898	1	4	0	24	104	0	6	95
random	1	1	111	204181	2	2	2	1	0	1137	1	4	0	16	105	0	6	95
random	1	1	112	206237	3	1	1	1	0	769	1	4	0	8	106	0	6	95
random	1	1	113	207788	1	2	2	1	0	1008	1	4	0	16	107	0	6	95
random	1	1	114	209476	2	3	3	1	0	849	1	4	0	24	108	0	6	95
random	1	1	115	210961	3	1	1	1	0	722	1	4	0	8	109	0	6	95
random	1	1	116	212602	4	4	4	1	0	700	1	4	0	32	110	0	6	95
random	1	1	117	213996	6	1	1	1	0	1017	1	4	0	8	111	0	6	95
random	1	1	118	215724	5	3	3	1	0	976	1	4	0	24	112	0	6	95
random	1	1	119	217586	1	4	4	1	0	881	1	4	0	32	113	0	6	95
random	1	1	120	219065	4	2	2	2	0	1339	2	4	0	16	114	0	6	95
fixed	2	1	1	221307	4	1	1	1	0	883	1	4	0	40	1	0	0	100
fixed	2	1	2	222848	1	2	2	1	0	1106	1	4	0	48	2	0	0	100
fixed	2	1	3	224421	6	4	4	1	0	800	1	4	0	64	3	0	0	100
fixed	2	1	4	226189	2	1	1	1	0	741	1	4	0	40	4	0	0	100
fixed	2	1	5	227578	5	3	3	1	0	1138	1	4	0	56	5	0	0	100
fixed	2	1	6	229577	6	4	4	1	0	757	1	4	0	64	6	0	0	100
fixed	2	1	7	231179	3	1	1	1	0	634	1	4	0	40	7	0	0	100
fixed	2	1	8	232315	2	3	3	1	0	1034	1	4	0	56	8	0	0	100
fixed	2	1	9	234138	3	2	2	1	0	892	1	4	0	48	9	0	0	100
fixed	2	1	10	235454	1	4	4	1	0	700	1	4	0	64	10	0	0	100
fixed	2	1	11	237108	5	2	2	1	0	1006	1	4	0	48	11	0	0	100
fixed	2	1	12	238880	4	3	3	1	0	923	1	4	0	56	12	0	0	100
fixed	2	2	1	240824	4	1	1	1	0	905	1	4	0	40	13	0	0	100
fixed	2	2	2	242678	1	2	2	1	0	1274	1	4	0	48	14	0	0	100
fixed	2	2	3	244953	6	4	4	1	0	682	1	4	0	64	15	0	0	100
fixed	2	2	4	245938	2	1	1	1	0	848	1	4	0	40	16	0	0	100
fixed	2	2	5	247456	5	3	3	1	0	1048	1	4	0	56	17	0	0	100
fixed	2	2	6	248964	6	4	4	1	0	928	1	4	0	64	18	0	0	100
fixed	2	2	7	250300	3	1	1	1	0	783	1	4	0	40	19	0	0	100
fixed	2	2	8	251774	2	3	3	1	0	913	1	4	0	56	20	0	0	100
fixed	2	2	9	253559	3	2	2	1	0	861	1	4	0	48	21	0	0	100
fixed	2	2	10	254932	1	4	4	1	0	755	1	4	0	64	22	0	0	100
fixed	2	2	11	256541	5	2	2	1	0	935	1	4	0	48	23	0	0	100
fixed	2	2	12	258106	4	3	3	1	0	933	1	4	0	56	24	0	0	100
fixed	2	3	1	260188	4	1	1	1	0	884	1	4	0	40	25	0	0	100
fixed	2	3	2	261836	1	2	2	1	0	1199	1	4	0	48	26	0	0	100
fixed	2	3	3	263469	6	4	4	1	0	794	1	4	0	64	27	0	0	100
fixed	2	3	4	265134	2	1	1	1	0	675	1	4	0	40	28	0	0	100
fixed	2	3	5	266805	5	3	3	1	0	1012	1	4	0	56	29	0	0	100
fixed	2	3	6	268606	6	4	4	1	0	808	1	4	0	64	30	0	0	100
fixed	2	3	7	270256	3	1	1	1	0	626	1	4	0	40	31	0	0	100
fixed	2	3	8	271696	2	3	3	1	0	982	1	4	0	56	32	0	0	100
fixed	2	3	9	273084	3	2	2	1	0	842	1	4	0	48	33	0	0	100
fixed	2	3	10	274871	1	4	4	1	0	775	1	4	0	64	34	0	0	100
fixed	2	3	11	276298	5	2	2	1	0	802	1	4	0	48	35	0	0	100
fixed	2	3	12	277850	4	3	3	1	0	896	1	4	0	56	36	0	0	100
fixed	2	4	1	279469	4	1	1	1	0	796	1	4	0	40	37	0	0	100
fixed	2	4	2	280654	1	2	2	1	0	1058	1	4	0	48	38	0	0	100
fixed	2	4	3	282428	6	4	4	1	0	703	1	4	0	64	39	0	0	100
fixed	2	4	4	283432	2	1	1	1	0	740	1	4	0	40	40	0	0	100
fixed	2	4	5	285045	5	3	3	1	0	832	1	4	0	56	41	0	0	100
fixed	2	4	6	286885	6	4	4	1	0	778	1	4	0	64	42	0	0	100
fixed	2	4	7	288640	3	1	1	1	0	663	1	4	0	40	43	0	0	100
fixed	2	4	8	290263	2	3	3	1	0	795	1	4	0	56	44	0	0	100
fixed	2	4	9	291898	3	2	2	1	0	677	1	4	0	48	45	0	0	100
fixed	2	4	10	293139	1	4	4	1	0	689	1	4	0	64	46	0	0	100
fixed	2	4	11	294732	5	2	2	1	0	982	1	4	0	48	47	0	0	100
fixed	2	4	12	296170	4	3	3	1	0	673	1	4	0	56	48	0	0	100
fixed	2	5	1	298115	4	1	1	1	0	798	1	4	0	40	49	0	0	100
fixed	2	5	2	299241	1	2	2	1	0	1103	1	4	0	48	50	0	0	100
fixed	2	5	3	301351	6	4	4	1	0	813	1	4	0	64	51	0	0	100
fixed	2	5	4	302578	2	1	1	1	0	841	1	4	0	40	52	0	0	100
fixed	2	5	5	304382	5	3	3	1	0	845	1	4	0	56	53	0	0	100
fixed	2	5	6	305536	6	4	4	1	0	764	1	4	0	64	54	0	0	100
fixed	2	5	7	307073	3	1	1	2	0	1163	2	4	0	40	55	0	0	100
fixed	2	5	8	309188	2	3	3	2	0	1034	2	4	0	56	56	0	0	100
fixed	2	5	9	310601	3	2	2	1	0	1013	1	4	0	48	57	0	0	100
fixed	2	5	10	312158	1	4	4	1	0	940	1	4	0	64	58	0	0	100
fixed	2	5	11	313443	5	2	2	1	0	989	1	4	0	48	59	0	0	100
fixed	2	5	12	314798	4	3	3	1	0	820	1	4	0	56	60	0	0	100
fixed	2	6	1	316627	4	1	1	1	0	838	1	4	0	40	61	0	0	100
fixed	2	6	2	318232	1	2	2	1	0	946	1	4	0	48	62	0	0	100
fixed	2	6	3	319523	6	4	4	1	0	716	1	4	0	64	63	0	0	100
fixed	2	6	4	320673	2	1	1	1	0	699	1	4	0	40	64	0	0	100
fixed	2	6	5	322178	5	3	3	1	0	1059	1	4	0	56	65	0	0	100
fixed	2	6	6	324024	6	4	4	1	0	821	1	4	0	64	66	0	0	100
fixed	2	6	7	325600	3	1	1	1	0	706	1	4	0	40	67	0	0	100
fixed	2	6	8	326759	2	3	3	1	0	1081	1	4	0	56	68	0	0	100
fixed	2	6	9	328308	3	2	2	1	0	903	1	4	0	48	69	0	0	100
fixed	2	6	10	329976	1	4	4	1	0	721	1	4	0	64	70	0	0	100
fixed	2	6	11	331143	5	2	2	1	0	887	1	4	0	48	71	0	0	100
fixed	2	6	12	332495	4	3	3	1	0	694	1	4	0	56	72	0	0	100
fixed	2	7	1	333936	4	1	1	1	0	809	1	4	0	40	73	0	0	100
fixed	2	7	2	335363	1	2	2	1	0	949	1	4	0	48	74	0	0	100
fixed	2	7	3	337125	6	4	4	1	0	722	1	4	0	64	75	0	0	100
fixed	2	7	4	338816	2	1	1	1	0	658	1	4	0	40	76	0	0	100
fixed	2	7	5	339874	5	3	3	1	0	870	1	4	0	56	77	0	0	100
fixed	2	7	6	341559	6	4	4	1	0	782	1	4	0	64	78	0	0	100
fixed	2	7	7	343075	3	1	1	1	0	678	1	4	0	40	79	0	0	100
fixed	2	7	8	344174	2	3	3	1	0	928	1	4	0	56	80	0	0	100
fixed	2	7	9	345882	3	2	2	1	0	1047	1	4	0	48	81	0	0	100
fixed	2	7	10	347304	1	4	4	1	0	699	1	4	0	64	82	0	0	100
fixed	2	7	11	348768	5	2	2	1	0	765	1	4	0	48	83	0	0	100
fixed	2	7	12	350214	4	3	3	1	0	760	1	4	0	56	84	0	0	100
fixed	2	8	1	351630	4	1	1	1	0	971	1	4	0	40	85	0	0	100
fixed	2	8	2	353645	1	2	2	1	0	950	1	4	0	48	86	0	0	100
fixed	2	8	3	355195	6	4	4	1	0	693	1	4	0	64	87	0	0	100
fixed	2	8	4	356244	2	1	1	1	0	712	1	4	0	40	88	0	0	100
fixed	2	8	5	357695	5	3	3	1	0	842	1	4	0	56	89	0	0	100
fixed	2	8	6	359450	6	4	4	1	0	744	1	4	0	64	90	0	0	100
fixed	2	8	7	360937	3	1	1	1	0	673	1	4	0	40	91	0	0	100
fixed	2	8	8	362504	2	3	3	1	0	727	1	4	0	56	92	0	0	100
fixed	2	8	9	364166	3	2	2	1	0	817	1	4	0	48	93	0	0	100
fixed	2	8	10	365738	1	4	4	1	0	646	1	4	0	64	94	0	0	100
fixed	2	8	11	366782	5	2	2	1	0	970	1	4	0	48	95	0	0	100
fixed	2	8	12	368420	4	3	3	1	0	684	1	4	0	56	96	0	0	100
fixed	2	9	1	369824	4	1	1	1	0	785	1	4	0	40	97	0	0	100
fixed	2	9	2	371643	1	2	2	1	0	900	1	4	0	48	98	0	0	100
fixed	2	9	3	372955	6	4	4	1	0	708	1	4	0	64	99	0	0	100
fixed	2	9	4	374061	2	1	1	1	0	886	1	4	0	40	100	0	0	100
fixed	2	9	5	375509	5	3	3	1	0	808	1	4	0	56	101	0	0	100
fixed	2	9	6	376992	6	4	4	1	0	849	1	4	0	64	102	0	0	100
fixed	2	9	7	378317	3	1	1	1	0	721	1	4	0	40	103	0	0	100
fixed	2	9	8	379911	2	3	3	1	0	894	1	4	0	56	104	0	0	100
fixed	2	9	9	381646	3	2	2	1	0	740	1	4	0	48	105	0	0	100
fixed	2	9	10	383291	1	4	4	1	0	678	1	4	0	64	106	0	0	100
fixed	2	9	11	384398	5	2	2	1	0	831	1	4	0	48	107	0	0	100
fixed	2	9	12	385906	4	3	3	2	0	784	2	4	0	56	108	0	0	100
fixed	2	10	1	387735	4	1	1	1	0	818	1	4	0	40	109	0	0	100
fixed	2	10	2	389492	1	2	2	1	0	856	1	4	0	48	110	0	0	100
fixed	2	10	3	390730	6	4	4	1	0	875	1	4	0	64	111	0	0	100
fixed	2	10	4	391988	2	1	1	1	0	838	1	4	0	40	112	0	0	100
fixed	2	10	5	393281	5	3	3	1	0	823	1	4	0	56	113	0	0	100
fixed	2	10	6	394956	6	4	4	1	0	952	1	4	0	64	114	0	0	100
fixed	2	10	7	396914	3	1	1	1	0	670	1	4	0	40	115	0	0	100
fixed	2	10	8	398265	2	3	3	1	0	748	1	4	0	56	116	0	0	100
fixed	2	10	9	399638	3	2	2	1	0	898	1	4	0	48	117	0	0	100
fixed	2	10	10	401381	1	4	4	1	0	713	1	4	0	64	118	0	0	100
fixed	2	10	11	403097	5	2	2	1	0	1064	1	4	0	48	119	0	0	100
fixed	2	10	12	404470	4	3	3	1	0	742	1	4	0	56	120	0	0	100
fixed	3	1	1	406345	4	1	1	1	0	710	1	4	0	72	1	0	0	100
fixed	3	1	2	408080	1	2	2	1	0	813	1	4	0	80	2	0	0	100
fixed	3	1	3	409577	6	4	4	1	0	653	1	4	0	96	3	0	0	100
fixed	3	1	4	410988	2	1	1	1	0	986	1	4	0	72	4	0	0	100
fixed	3	1	5	412649	5	3	3	2	0	1643	2	4	0	88	5	0	0	100
fixed	3	1	6	414598	6	4	4	1	0	1152	1	4	0	96	6	0	0	100
fixed	3	1	7	416414	3	1	1	1	0	996	1	4	0	72	7	0	0	100
fixed	3	1	8	418363	2	3	3	1	0	913	1	4	0	88	8	0	0	100
fixed	3	1	9	419658	3	2	2	1	0	746	1	4	0	80	9	0	0	100
fixed	3	1	10	420855	1	4	4	1	0	751	1	4	0	96	10	0	0	100
fixed	3	1	11	422490	5	2	2	1	0	922	1	4	0	80	11	0	0	100
fixed	3	1	12	423938	4	3	3	1	0	893	1	4	0	88	12	0	0	100
fixed	3	2	1	425912	4	1	1	1	0	801	1	4	0	72	13	0	0	100
fixed	3	2	2	427510	1	2	2	1	0	846	1	4	0	80	14	0	0	100
fixed	3	2	3	429211	6	4	4	1	0	662	1	4	0	96	15	0	0	100
fixed	3	2	4	430212	2	1	1	1	0	723	1	4	0	72	16	0	0	100
fixed	3	2	5	431889	5	3	3	1	0	748	1	4	0	88	17	0	0	100
fixed	3	2	6	433093	6	4	4	1	0	721	1	4	0	96	18	0	0	100
fixed	3	2	7	434412	3	1	1	1	0	650	1	4	0	72	19	0	0	100
fixed	3	2	8	435555	2	3	3	1	0	913	1	4	0	88	20	0	0	100
fixed	3	2	9	437002	3	2	2	1	0	900	1	4	0	80	21	0	0	100
fixed	3	2	10	438393	1	4	4	1	0	792	1	4	0	96	22	0	0	100
fixed	3	2	11	439653	5	2	2	2	0	1355	2	4	0	80	23	0	0	100
fixed	3	2	12	441672	4	3	3	1	0	934	1	4	0	88	24	0	0	100
fixed	3	3	1	443839	4	1	1	1	0	946	1	4	0	72	25	0	0	100
fixed	3	3	2	445530	1	2	2	1	0	858	1	4	0	80	26	0	0	100
fixed	3	3	3	447116	6	4	4	1	0	679	1	4	0	96	27	0	0	100
fixed	3	3	4	448222	2	1	1	1	0	696	1	4	0	72	28	0	0	100
fixed	3	3	5	449679	5	3	3	1	0	867	1	4	0	88	29	0	0	100
fixed	3	3	6	451553	6	4	4	1	0	764	1	4	0	96	30	0	0	100
fixed	3	3	7	453211	3	1	1	1	0	701	1	4	0	72	31	0	0	100
fixed	3	3	8	454841	2	3	3	1	0	776	1	4	0	88	32	0	0	100
fixed	3	3	9	456475	3	2	2	1	0	651	1	4	0	80	33	0	0	100
fixed	3	3	10	457771	1	4	4	1	0	772	1	4	0	96	34	0	0	100
fixed	3	3	11	459320	5	2	2	1	0	858	1	4	0	80	35	0	0	100
fixed	3	3	12	460482	4	3	3	1	0	745	1	4	0	88	36	0	0	100
fixed	3	4	1	462201	4	1	1	1	0	736	1	4	0	72	37	0	0	100
fixed	3	4	2	463934	1	2	2	1	0	815	1	4	0	80	38	0	0	100
fixed	3	4	3	465419	6	4	4	1	0	656	1	4	0	96	39	0	0	100
fixed	3	4	4	466398	2	1	1	1	0	702	1	4	0	72	40	0	0	100
fixed	3	4	5	467485	5	3	3	1	0	768	1	4	0	88	41	0	0	100
fixed	3	4	6	469119	6	4	4	1	0	995	1	4	0	96	42	0	0	100
fixed	3	4	7	471060	3	1	1	1	0	713	1	4	0	72	43	0	0	100
fixed	3	4	8	472730	2	3	3	1	0	962	1	4	0	88	44	0	0	100
fixed	3	4	9	474421	3	2	2	1	0	643	1	4	0	80	45	0	0	100
fixed	3	4	10	475890	1	4	4	1	0	660	1	4	0	96	46	0	0	100
fixed	3	4	11	477368	5	2	2	1	0	758	1	4	0	80	47	0	0	100
fixed	3	4	12	478490	4	3	3	1	0	750	1	4	0	88	48	0	0	100
fixed	3	5	1	479911	4	1	1	1	0	730	1	4	0	72	49	0	0	100
fixed	3	5	2	481356	1	2	2	1	0	1013	1	4	0	80	50	0	0	100
fixed	3	5	3	482828	6	4	4	1	0	679	1	4	0	96	51	0	0	100
fixed	3	5	4	484211	2	1	1	1	0	644	1	4	0	72	52	0	0	100
fixed	3	5	5	485846	5	3	3	1	0	639	1	4	0	88	53	0	0	100
fixed	3	5	6	487387	6	4	4	1	0	678	1	4	0	96	54	0	0	100
fixed	3	5	7	488768	3	1	1	1	0	955	1	4	0	72	55	0	0	100
fixed	3	5	8	490084	2	3	3	1	0	995	1	4	0	88	56	0	0	100
fixed	3	5	9	491749	3	2	2	1	0	925	1	4	0	80	57	0	0	100
fixed	3	5	10	493520	1	4	4	1	0	738	1	4	0	96	58	0	0	100
fixed	3	5	11	494994	5	2	2	1	0	740	1	4	0	80	59	0	0	100
fixed	3	5	12	496367	4	3	3	1	0	673	1	4	0	88	60	0	0	100
fixed	3	6	1	497888	4	1	1	1	0	752	1	4	0	72	61	0	0	100
fixed	3	6	2	499239	1	2	2	1	0	991	1	4	0	80	62	0	0	100
fixed	3	6	3	500832	6	4	4	1	0	676	1	4	0	96	63	0	0	100
fixed	3	6	4	501917	2	1	1	1	0	670	1	4	0	72	64	0	0	100
fixed	3	6	5	503274	5	3	3	1	0	885	1	4	0	88	65	0	0	100
fixed	3	6	6	504594	6	4	4	1	0	821	1	4	0	96	66	0	0	100
fixed	3	6	7	506427	3	1	1	1	0	727	1	4	0	72	67	0	0	100
fixed	3	6	8	507595	2	3	3	1	0	893	1	4	0	88	68	0	0	100
fixed	3	6	9	509011	3	2	2	1	0	858	1	4	0	80	69	0	0	100
fixed	3	6	10	510246	1	4	4	1	0	669	1	4	0	96	70	0	0	100
fixed	3	6	11	511797	5	2	2	2	0	884	2	4	0	80	71	0	0	100
fixed	3	6	12	513558	4	3	3	1	0	913	1	4	0	88	72	0	0	100
fixed	3	7	1	515565	4	1	1	1	0	1196	1	4	0	72	73	0	0	100
fixed	3	7	2	517095	1	2	2	1	0	843	1	4	0	80	74	0	0	100
fixed	3	7	3	518427	6	4	4	1	0	739	1	4	0	96	75	0	0	100
fixed	3	7	4	520046	2	1	1	1	0	662	1	4	0	72	76	0	0	100
fixed	3	7	5	521719	5	3	3	1	0	727	1	4	0	88	77	0	0	100
fixed	3	7	6	523175	6	4	4	1	0	810	1	4	0	96	78	0	0	100
fixed	3	7	7	524454	3	1	1	1	0	747	1	4	0	72	79	0	0	100
fixed	3	7	8	525882	2	3	3	1	0	1095	1	4	0	88	80	0	0	100
fixed	3	7	9	527447	3	2	2	1	0	653	1	4	0	80	81	0	0	100
fixed	3	7	10	528967	1	4	4	1	0	652	1	4	0	96	82	0	0	100
fixed	3	7	11	530071	5	2	2	1	0	1077	1	4	0	80	83	0	0	100
fixed	3	7	12	531540	4	3	3	1	0	839	1	4	0	88	84	0	0	100
fixed	3	8	1	532958	4	1	1	1	0	843	1	4	0	72	85	0	0	100
fixed	3	8	2	534835	1	2	2	1	0	924	1	4	0	80	86	0	0	100
fixed	3	8	3	536529	6	4	4	1	0	668	1	4	0	96	87	0	0	100
fixed	3	8	4	537695	2	1	1	1	0	755	1	4	0	72	88	0	0	100
fixed	3	8	5	539082	5	3	3	1	0	584	1	4	0	88	89	0	0	100
fixed	3	8	6	540645	6	4	4	1	0	782	1	4	0	96	90	0	0	100
fixed	3	8	7	542391	3	1	1	1	0	612	1	4	0	72	91	0	0	100
fixed	3	8	8	543857	2	3	3	2	0	1214	2	4	0	88	92	0	0	100
fixed	3	8	9	545551	3	2	2	1	0	902	1	4	0	80	93	0	0	100
fixed	3	8	10	547338	1	4	4	1	0	1010	1	4	0	96	94	0	0	100
fixed	3	8	11	548791	5	2	2	1	0	901	1	4	0	80	95	0	0	100
fixed	3	8	12	550207	4	3	3	1	0	865	1	4	0	88	96	0	0	100
fixed	3	9	1	551687	4	1	1	1	0	754	1	4	0	72	97	0	0	100
fixed	3	9	2	553130	1	2	2	1	0	941	1	4	0	80	98	0	0	100
fixed	3	9	3	554505	6	4	4	1	0	683	1	4	0	96	99	0	0	100
fixed	3	9	4	555787	2	1	1	1	0	756	1	4	0	72	100	0	0	100
fixed	3	9	5	557392	5	3	3	1	0	848	1	4	0	88	101	0	0	100
fixed	3	9	6	558658	6	4	4	1	0	931	1	4	0	96	102	0	0	100
fixed	3	9	7	560040	3	1	1	2	0	760	2	4	0	72	103	0	0	100
fixed	3	9	8	561659	2	3	3	1	0	1219	1	4	0	88	104	0	0	100
fixed	3	9	9	563276	3	2	2	1	0	1047	1	4	0	80	105	0	0	100
fixed	3	9	10	565182	1	4	4	1	0	743	1	4	0	96	106	0	0	100
fixed	3	9	11	566431	5	2	2	1	0	794	1	4	0	80	107	0	0	100
fixed	3	9	12	567526	4	3	3	1	0	819	1	4	0	88	108	0	0	100
fixed	3	10	1	569130	4	1	1	1	0	775	1	4	0	72	109	0	0	100
fixed	3	10	2	570731	1	2	2	1	0	891	1	4	0	80	110	0	0	100
fixed	3	10	3	572011	6	4	4	1	0	701	1	4	0	96	111	0	0	100
fixed	3	10	4	573725	2	1	1	1	0	572	1	4	0	72	112	0	0	100
fixed	3	10	5	575294	5	3	3	1	0	802	1	4	0	88	113	0	0	100
fixed	3	10	6	577088	6	4	4	1	0	790	1	4	0	96	114	0	0	100
fixed	3	10	7	578790	3	1	1	1	0	718	1	4	0	72	115	0	0	100
fixed	3	10	8	579965	2	3	3	1	0	924	1	4	0	88	116	0	0	100
fixed	3	10	9	581609	3	2	2	1	0	614	1	4	0	80	117	0	0	100
fixed	3	10	10	582699	1	4	4	1	0	720	1	4	0	96	118	0	0	100
fixed	3	10	11	584243	5	2	2	1	0	719	1	4	0	80	119	0	0	100
fixed	3	10	12	585428	4	3	3	1	0	757	1	4	0	88	120	0	0	100
fixed	4	1	1	707133	4	1	1	1	0	1170	1	4	0	104	1	0	0	100
fixed	4	1	2	709325	1	2	2	1	0	1197	1	4	0	112	2	0	0	100
fixed	4	1	3	711479	6	4	4	1	0	674	1	4	0	128	3	0	0	100
fixed	4	1	4	713031	2	1	1	1	0	824	1	4	0	104	4	0	0	100
fixed	4	1	5	714159	5	3	3	1	0	1152	1	4	0	120	5	0	0	100
fixed	4	1	6	716157	6	4	4	1	0	707	1	4	0	128	6	0	0	100
fixed	4	1	7	717259	3	1	1	1	0	821	1	4	0	104	7	0	0	100
fixed	4	1	8	718969	2	3	3	1	0	1037	1	4	0	120	8	0	0	100
fixed	4	1	9	720637	3	2	2	1	0	630	1	4	0	112	9	0	0	100
fixed	4	1	10	722031	1	4	4	1	0	667	1	4	0	128	10	0	0	100
fixed	4	1	11	723439	5	2	2	1	0	991	1	4	0	112	11	0	0	100
fixed	4	1	12	725406	4	3	3	1	0	868	1	4	0	120	12	0	0	100
fixed	4	2	1	727068	4	1	1	1	0	805	1	4	0	104	13	0	0	100
fixed	4	2	2	728413	1	2	2	1	0	1077	1	4	0	112	14	0	0	100
fixed	4	2	3	729999	6	4	4	1	0	682	1	4	0	128	15	0	0	100
fixed	4	2	4	731501	2	1	1	1	0	650	1	4	0	104	16	0	0	100
fixed	4	2	5	732981	5	3	3	1	0	779	1	4	0	120	17	0	0	100
fixed	4	2	6	734443	6	4	4	1	0	757	1	4	0	128	18	0	0	100
fixed	4	2	7	735723	3	1	1	1	0	751	1	4	0	104	19	0	0	100
fixed	4	2	8	737505	2	3	3	1	0	204	1	4	0	120	20	0	0	100
fixed	4	2	9	738136	3	2	2	2	0	1617	2	4	0	112	21	0	0	100
fixed	4	2	10	740312	1	4	4	1	0	757	1	4	0	128	22	0	0	100
fixed	4	2	11	741495	5	2	2	1	0	979	1	4	0	112	23	0	0	100
fixed	4	2	12	742830	4	3	3	1	0	586	1	4	0	120	24	0	0	100
fixed	4	3	1	744093	4	1	1	1	0	780	1	4	0	104	25	0	0	100
fixed	4	3	2	745615	1	2	2	1	0	780	1	4	0	112	26	0	0	100
fixed	4	3	3	747235	6	4	4	1	0	719	1	4	0	128	27	0	0	100
fixed	4	3	4	748383	2	1	1	1	0	759	1	4	0	104	28	0	0	100
fixed	4	3	5	749570	5	3	3	1	0	692	1	4	0	120	29	0	0	100
fixed	4	3	6	750727	6	4	4	1	0	763	1	4	0	128	30	0	0	100
fixed	4	3	7	752337	3	1	1	1	0	703	1	4	0	104	31	0	0	100
fixed	4	3	8	753972	2	3	3	2	0	1202	2	4	0	120	32	0	0	100
fixed	4	3	9	756156	3	2	2	1	0	757	1	4	0	112	33	0	0	100
fixed	4	3	10	757800	1	4	4	2	0	1456	2	4	0	128	34	0	0	100
fixed	4	3	11	759608	5	2	2	1	0	1068	1	4	0	112	35	0	0	100
fixed	4	3	12	761206	4	3	3	1	0	824	1	4	0	120	36	0	0	100
fixed	4	4	1	762688	4	1	1	1	0	769	1	4	0	104	37	0	0	100
fixed	4	4	2	763998	1	2	2	1	0	833	1	4	0	112	38	0	0	100
fixed	4	4	3	765641	6	4	4	1	0	652	1	4	0	128	39	0	0	100
fixed	4	4	4	767161	2	1	1	1	0	612	1	4	0	104	40	0	0	100
fixed	4	4	5	768624	5	3	3	1	0	749	1	4	0	120	41	0	0	100
fixed	4	4	6	770155	6	4	4	1	0	740	1	4	0	128	42	0	0	100
fixed	4	4	7	771783	3	1	1	1	0	528	1	4	0	104	43	0	0	100
fixed	4	4	8	772944	2	3	3	1	0	1086	1	4	0	120	44	0	0	100
fixed	4	4	9	774454	3	2	2	1	0	783	1	4	0	112	45	0	0	100
fixed	4	4	10	775583	1	4	4	1	0	767	1	4	0	128	46	0	0	100
fixed	4	4	11	777211	5	2	2	1	0	842	1	4	0	112	47	0	0	100
fixed	4	4	12	778688	4	3	3	1	0	763	1	4	0	120	48	0	0	100
fixed	4	5	1	780699	4	1	1	1	0	774	1	4	0	104	49	0	0	100
fixed	4	5	2	782454	1	2	2	1	0	748	1	4	0	112	50	0	0	100
fixed	4	5	3	783789	6	4	4	1	0	643	1	4	0	128	51	0	0	100
fixed	4	5	4	784850	2	1	1	1	0	678	1	4	0	104	52	0	0	100
fixed	4	5	5	786387	5	3	3	1	0	557	1	4	0	120	53	0	0	100
fixed	4	5	6	787301	6	4	4	1	0	814	1	4	0	128	54	0	0	100
fixed	4	5	7	789005	3	1	1	1	0	686	1	4	0	104	55	0	0	100
fixed	4	5	8	790214	2	3	3	1	0	1099	1	4	0	120	56	0	0	100
fixed	4	5	9	791737	3	2	2	1	0	683	1	4	0	112	57	0	0	100
fixed	4	5	10	793051	1	4	4	1	0	755	1	4	0	128	58	0	0	100
fixed	4	5	11	794476	5	2	2	1	0	847	1	4	0	112	59	0	0	100
fixed	4	5	12	796290	4	3	3	1	0	738	1	4	0	120	60	0	0	100
fixed	4	6	1	797941	4	1	1	1	0	844	1	4	0	104	61	0	0	100
fixed	4	6	2	799714	1	2	2	1	0	993	1	4	0	112	62	0	0	100
fixed	4	6	3	801675	6	4	4	1	0	798	1	4	0	128	63	0	0	100
fixed	4	6	4	803199	2	1	1	1	0	733	1	4	0	104	64	0	0	100
fixed	4	6	5	804830	5	3	3	1	0	752	1	4	0	120	65	0	0	100
fixed	4	6	6	806359	6	4	4	1	0	848	1	4	0	128	66	0	0	100
fixed	4	6	7	807532	3	1	1	1	0	749	1	4	0	104	67	0	0	100
fixed	4	6	8	809208	2	3	3	1	0	1103	1	4	0	120	68	0	0	100
fixed	4	6	9	810755	3	2	2	1	0	693	1	4	0	112	69	0	0	100
fixed	4	6	10	811743	1	4	4	1	0	699	1	4	0	128	70	0	0	100
fixed	4	6	11	812768	5	2	2	1	0	856	1	4	0	112	71	0	0	100
fixed	4	6	12	813953	4	3	3	1	0	662	1	4	0	120	72	0	0	100
fixed	4	7	1	815785	4	1	1	1	0	744	1	4	0	104	73	0	0	100
fixed	4	7	2	817240	1	2	2	1	0	786	1	4	0	112	74	0	0	100
fixed	4	7	3	818718	6	4	4	1	0	652	1	4	0	128	75	0	0	100
fixed	4	7	4	819860	2	1	1	1	0	667	1	4	0	104	76	0	0	100
fixed	4	7	5	821217	5	3	3	1	0	674	1	4	0	120	77	0	0	100
fixed	4	7	6	822556	6	4	4	1	0	769	1	4	0	128	78	0	0	100
fixed	4	7	7	824292	3	1	1	1	0	720	1	4	0	104	79	0	0	100
fixed	4	7	8	825611	2	3	3	1	0	912	1	4	0	120	80	0	0	100
fixed	4	7	9	826931	3	2	2	1	0	872	1	4	0	112	81	0	0	100
fixed	4	7	10	828753	1	4	4	1	0	795	1	4	0	128	82	0	0	100
fixed	4	7	11	830516	5	2	2	1	0	816	1	4	0	112	83	0	0	100
fixed	4	7	12	832284	4	3	3	1	0	845	1	4	0	120	84	0	0	100
fixed	4	8	1	834314	4	1	1	1	0	735	1	4	0	104	85	0	0	100
fixed	4	8	2	835358	1	2	2	1	0	795	1	4	0	112	86	0	0	100
fixed	4	8	3	837167	6	4	4	1	0	687	1	4	0	128	87	0	0	100
fixed	4	8	4	838590	2	1	1	1	0	730	1	4	0	104	88	0	0	100
fixed	4	8	5	840339	5	3	3	1	0	952	1	4	0	120	89	0	0	100
fixed	4	8	6	841621	6	4	4	1	0	794	1	4	0	128	90	0	0	100
fixed	4	8	7	842824	3	1	1	1	0	751	1	4	0	104	91	0	0	100
fixed	4	8	8	844604	2	3	3	1	0	1155	1	4	0	120	92	0	0	100
fixed	4	8	9	846120	3	2	2	1	0	771	1	4	0	112	93	0	0	100
fixed	4	8	10	847369	1	4	4	1	0	742	1	4	0	128	94	0	0	100
fixed	4	8	11	848791	5	2	2	1	0	802	1	4	0	112	95	0	0	100
fixed	4	8	12	850217	4	3	3	1	0	742	1	4	0	120	96	0	0	100
fixed	4	9	1	851657	4	1	1	1	0	736	1	4	0	104	97	0	0	100
fixed	4	9	2	853270	1	2	2	1	0	764	1	4	0	112	98	0	0	100
fixed	4	9	3	854691	6	4	4	1	0	680	1	4	0	128	99	0	0	100
fixed	4	9	4	856220	2	1	1	1	0	783	1	4	0	104	100	0	0	100
fixed	4	9	5	857325	5	3	3	1	0	888	1	4	0	120	101	0	0	100
fixed	4	9	6	859129	6	4	4	1	0	756	1	4	0	128	102	0	0	100
fixed	4	9	7	860685	3	1	1	1	0	506	1	4	0	104	103	0	0	100
fixed	4	9	8	861716	2	3	3	1	0	902	1	4	0	120	104	0	0	100
fixed	4	9	9	863619	3	2	2	1	0	646	1	4	0	112	105	0	0	100
fixed	4	9	10	864981	1	4	4	1	0	1116	1	4	0	128	106	0	0	100
fixed	4	9	11	866993	5	2	2	1	0	855	1	4	0	112	107	0	0	100
fixed	4	9	12	868259	4	3	3	1	0	666	1	4	0	120	108	0	0	100
fixed	4	10	1	870035	4	1	1	1	0	846	1	4	0	104	109	0	0	100
fixed	4	10	2	871802	1	2	2	1	0	836	1	4	0	112	110	0	0	100
fixed	4	10	3	873215	6	4	4	1	0	647	1	4	0	128	111	0	0	100
fixed	4	10	4	874476	2	1	1	1	0	714	1	4	0	104	112	0	0	100
fixed	4	10	5	875657	5	3	3	1	0	720	1	4	0	120	113	0	0	100
fixed	4	10	6	877055	6	4	4	1	0	645	1	4	0	128	114	0	0	100
fixed	4	10	7	878004	3	1	1	1	0	1004	1	4	0	104	115	0	0	100
fixed	4	10	8	879342	2	3	3	1	0	1108	1	4	0	120	116	0	0	100
fixed	4	10	9	880964	3	2	2	1	0	759	1	4	0	112	117	0	0	100
fixed	4	10	10	882378	1	4	4	1	0	1012	1	4	0	128	118	0	0	100
fixed	4	10	11	884127	5	2	2	1	0	777	1	4	0	112	119	0	0	100
fixed	4	10	12	885573	4	3	3	1	0	716	1	4	0	120	120	0	0	100
fixed	5	1	1	887191	4	1	1	1	0	655	1	4	0	136	1	0	0	100
fixed	5	1	2	888755	1	2	2	1	0	925	1	4	0	144	2	0	0	100
fixed	5	1	3	890208	6	4	4	1	0	800	1	4	0	160	3	0	0	100
fixed	5	1	4	891420	2	1	1	1	0	884	1	4	0	136	4	0	0	100
fixed	5	1	5	893330	5	3	3	1	0	899	1	4	0	152	5	0	0	100
fixed	5	1	6	895108	6	4	4	1	0	640	1	4	0	160	6	0	0	100
fixed	5	1	7	896333	3	1	1	1	0	676	1	4	0	136	7	0	0	100
fixed	5	1	8	897801	2	3	3	1	0	1102	1	4	0	152	8	0	0	100
fixed	5	1	9	899456	3	2	2	1	0	688	1	4	0	144	9	0	0	100
fixed	5	1	10	900804	1	4	4	1	0	679	1	4	0	160	10	0	0	100
fixed	5	1	11	901771	5	2	2	1	0	806	1	4	0	144	11	0	0	100
fixed	5	1	12	902999	4	3	3	1	0	658	1	4	0	152	12	0	0	100
fixed	5	2	1	904436	4	1	1	1	0	765	1	4	0	136	13	0	0	100
fixed	5	2	2	906229	1	2	2	1	0	745	1	4	0	144	14	0	0	100
fixed	5	2	3	907645	6	4	4	1	0	701	1	4	0	160	15	0	0	100
fixed	5	2	4	908885	2	1	1	1	0	681	1	4	0	136	16	0	0	100
fixed	5	2	5	910592	5	3	3	1	0	736	1	4	0	152	17	0	0	100
fixed	5	2	6	911708	6	4	4	1	0	777	1	4	0	160	18	0	0	100
fixed	5	2	7	913410	3	1	1	1	0	633	1	4	0	136	19	0	0	100
fixed	5	2	8	914622	2	3	3	1	0	838	1	4	0	152	20	0	0	100
fixed	5	2	9	916208	3	2	2	1	0	635	1	4	0	144	21	0	0	100
fixed	5	2	10	917493	1	4	4	1	0	644	1	4	0	160	22	0	0	100
fixed	5	2	11	918461	5	2	2	1	0	771	1	4	0	144	23	0	0	100
fixed	5	2	12	919603	4	3	3	1	0	691	1	4	0	152	24	0	0	100
fixed	5	3	1	921461	4	1	1	1	0	692	1	4	0	136	25	0	0	100
fixed	5	3	2	922770	1	2	2	1	0	781	1	4	0	144	26	0	0	100
fixed	5	3	3	924565	6	4	4	1	0	785	1	4	0	160	27	0	0	100
fixed	5	3	4	926287	2	1	1	1	0	663	1	4	0	136	28	0	0	100
fixed	5	3	5	927242	5	3	3	1	0	743	1	4	0	152	29	0	0	100
fixed	5	3	6	928885	6	4	4	1	0	642	1	4	0	160	30	0	0	100
fixed	5	3	7	930242	3	1	1	1	0	672	1	4	0	136	31	0	0	100
fixed	5	3	8	931561	2	3	3	1	0	1016	1	4	0	152	32	0	0	100
fixed	5	3	9	932948	3	2	2	1	0	678	1	4	0	144	33	0	0	100
fixed	5	3	10	933933	1	4	4	1	0	620	1	4	0	160	34	0	0	100
fixed	5	3	11	935593	5	2	2	1	0	757	1	4	0	144	35	0	0	100
fixed	5	3	12	936649	4	3	3	1	0	728	1	4	0	152	36	0	0	100
fixed	5	4	1	937935	4	1	1	1	0	810	1	4	0	136	37	0	0	100
fixed	5	4	2	939498	1	2	2	1	0	744	1	4	0	144	38	0	0	100
fixed	5	4	3	940889	6	4	4	1	0	629	1	4	0	160	39	0	0	100
fixed	5	4	4	941953	2	1	1	1	0	680	1	4	0	136	40	0	0	100
fixed	5	4	5	943240	5	3	3	1	0	730	1	4	0	152	41	0	0	100
fixed	5	4	6	944422	6	4	4	1	0	751	1	4	0	160	42	0	0	100
fixed	5	4	7	945509	3	1	1	1	0	817	1	4	0	136	43	0	0	100
fixed	5	4	8	947071	2	3	3	1	0	919	1	4	0	152	44	0	0	100
fixed	5	4	9	948398	3	2	2	1	0	663	1	4	0	144	45	0	0	100
fixed	5	4	10	949816	1	4	4	1	0	755	1	4	0	160	46	0	0	100
fixed	5	4	11	951119	5	2	2	1	0	956	1	4	0	144	47	0	0	100
fixed	5	4	12	953018	4	3	3	1	0	716	1	4	0	152	48	0	0	100
fixed	5	5	1	954526	4	1	1	1	0	699	1	4	0	136	49	0	0	100
fixed	5	5	2	955970	1	2	2	1	0	727	1	4	0	144	50	0	0	100
fixed	5	5	3	957470	6	4	4	1	0	623	1	4	0	160	51	0	0	100
fixed	5	5	4	958899	2	1	1	1	0	611	1	4	0	136	52	0	0	100
fixed	5	5	5	959881	5	3	3	1	0	921	1	4	0	152	53	0	0	100
fixed	5	5	6	961251	6	4	4	1	0	631	1	4	0	160	54	0	0	100
fixed	5	5	7	962309	3	1	1	1	0	569	1	4	0	136	55	0	0	100
fixed	5	5	8	963340	2	3	3	1	0	846	1	4	0	152	56	0	0	100
fixed	5	5	9	964574	3	2	2	1	0	610	1	4	0	144	57	0	0	100
fixed	5	5	10	965742	1	4	4	1	0	648	1	4	0	160	58	0	0	100
fixed	5	5	11	966861	5	2	2	1	0	657	1	4	0	144	59	0	0	100
fixed	5	5	12	968168	4	3	3	1	0	658	1	4	0	152	60	0	0	100
fixed	5	6	1	969663	4	1	1	2	0	1082	2	4	0	136	61	0	0	100
fixed	5	6	2	971538	1	2	2	1	0	1019	1	4	0	144	62	0	0	100
fixed	5	6	3	973271	6	4	4	1	0	689	1	4	0	160	63	0	0	100
fixed	5	6	4	974516	2	1	1	1	0	765	1	4	0	136	64	0	0	100
fixed	5	6	5	976113	5	3	3	1	0	665	1	4	0	152	65	0	0	100
fixed	5	6	6	977152	6	4	4	1	0	669	1	4	0	160	66	0	0	100
fixed	5	6	7	978654	3	1	1	1	0	661	1	4	0	136	67	0	0	100
fixed	5	6	8	980247	2	3	3	1	0	738	1	4	0	152	68	0	0	100
fixed	5	6	9	981984	3	2	2	1	0	673	1	4	0	144	69	0	0	100
fixed	5	6	10	983154	1	4	4	1	0	591	1	4	0	160	70	0	0	100
fixed	5	6	11	984360	5	2	2	1	0	708	1	4	0	144	71	0	0	100
fixed	5	6	12	985437	4	3	3	1	0	606	1	4	0	152	72	0	0	100
fixed	5	7	1	986838	4	1	1	1	0	795	1	4	0	136	73	0	0	100
fixed	5	7	2	988016	1	2	2	1	0	953	1	4	0	144	74	0	0	100
fixed	5	7	3	989817	6	4	4	1	0	677	1	4	0	160	75	0	0	100
fixed	5	7	4	990949	2	1	1	2	0	677	2	4	0	136	76	0	0	100
fixed	5	7	5	992002	5	3	3	1	0	912	1	4	0	152	77	0	0	100
fixed	5	7	6	993710	6	4	4	1	0	680	1	4	0	160	78	0	0	100
fixed	5	7	7	995138	3	1	1	1	0	708	1	4	0	136	79	0	0	100
fixed	5	7	8	996370	2	3	3	1	0	855	1	4	0	152	80	0	0	100
fixed	5	7	9	997677	3	2	2	1	0	768	1	4	0	144	81	0	0	100
fixed	5	7	10	998748	1	4	4	1	0	690	1	4	0	160	82	0	0	100
fixed	5	7	11	999940	5	2	2	1	0	696	1	4	0	144	83	0	0	100
fixed	5	7	12	1001442	4	3	3	1	0	696	1	4	0	152	84	0	0	100
fixed	5	8	1	1002928	4	1	1	1	0	857	1	4	0	136	85	0	0	100
fixed	5	8	2	1004117	1	2	2	1	0	831	1	4	0	144	86	0	0	100
fixed	5	8	3	1005283	6	4	4	1	0	621	1	4	0	160	87	0	0	100
fixed	5	8	4	1006602	2	1	1	1	0	637	1	4	0	136	88	0	0	100
fixed	5	8	5	1008241	5	3	3	1	0	744	1	4	0	152	89	0	0	100
fixed	5	8	6	1009509	6	4	4	1	0	698	1	4	0	160	90	0	0	100
fixed	5	8	7	1010933	3	1	1	1	0	694	1	4	0	136	91	0	0	100
fixed	5	8	8	1012276	2	3	3	1	0	734	1	4	0	152	92	0	0	100
fixed	5	8	9	1013782	3	2	2	1	0	654	1	4	0	144	93	0	0	100
fixed	5	8	10	1014892	1	4	4	1	0	790	1	4	0	160	94	0	0	100
fixed	5	8	11	1016123	5	2	2	1	0	843	1	4	0	144	95	0	0	100
fixed	5	8	12	1017991	4	3	3	1	0	692	1	4	0	152	96	0	0	100
fixed	5	9	1	1019819	4	1	1	1	0	678	1	4	0	136	97	0	0	100
fixed	5	9	2	1021154	1	2	2	1	0	1109	1	4	0	144	98	0	0	100
fixed	5	9	3	1023252	6	4	4	1	0	693	1	4	0	160	99	0	0	100
fixed	5	9	4	1024482	2	1	1	2	0	984	2	4	0	136	100	0	0	100
fixed	5	9	5	1025922	5	3	3	1	0	851	1	4	0	152	101	0	0	100
fixed	5	9	6	1027508	6	4	4	1	0	696	1	4	0	160	102	0	0	100
fixed	5	9	7	1029027	3	1	1	1	0	728	1	4	0	136	103	0	0	100
fixed	5	9	8	1030354	2	3	3	1	0	744	1	4	0	152	104	0	0	100
fixed	5	9	9	1032057	3	2	2	1	0	864	1	4	0	144	105	0	0	100
fixed	5	9	10	1033352	1	4	4	1	0	760	1	4	0	160	106	0	0	100
fixed	5	9	11	1034797	5	2	2	1	0	1276	1	4	0	144	107	0	0	100
fixed	5	9	12	1036624	4	3	3	1	0	759	1	4	0	152	108	0	0	100
fixed	5	10	1	1038348	4	1	1	1	0	781	1	4	0	136	109	0	0	100
fixed	5	10	2	1039608	1	2	2	1	0	856	1	4	0	144	110	0	0	100
fixed	5	10	3	1041216	6	4	4	1	0	652	1	4	0	160	111	0	0	100
fixed	5	10	4	1042593	2	1	1	1	0	689	1	4	0	136	112	0	0	100
fixed	5	10	5	1043769	5	3	3	1	0	784	1	4	0	152	113	0	0	100
fixed	5	10	6	1045176	6	4	4	1	0	780	1	4	0	160	114	0	0	100
fixed	5	10	7	1046317	3	1	1	1	0	643	1	4	0	136	115	0	0	100
fixed	5	10	8	1047639	2	3	3	2	0	1507	2	4	0	152	116	0	0	100
fixed	5	10	9	1049869	3	2	2	1	0	797	1	4	0	144	117	0	0	100
fixed	5	10	10	1051470	1	4	4	1	0	697	1	4	0	160	118	0	0	100
fixed	5	10	11	1052494	5	2	2	1	0	790	1	4	0	144	119	0	0	100
fixed	5	10	12	1053819	4	3	3	1	0	734	1	4	0	152	120	0	0	100
random	6	1	1	1163737	6	1	1	1	0	1518	1	4	0	168	1	0	0	100
random	6	1	2	1165829	4	4	4	1	0	893	1	4	0	192	2	0	0	100
random	6	1	3	1167089	2	2	0	1	2	0	3	4	0	176	2	0	1	67
random	6	1	4	1170620	3	3	3	1	0	922	1	4	0	184	3	0	1	75
random	6	1	5	1172536	5	2	2	1	0	714	1	4	0	176	4	0	1	80
random	6	1	6	1173851	1	4	4	1	0	762	1	4	0	192	5	0	1	83
random	6	1	7	1175551	6	1	1	1	0	578	1	4	0	168	6	0	1	86
random	6	1	8	1176564	2	3	3	1	0	775	1	4	0	184	7	0	1	88
random	6	1	9	1177775	4	2	2	1	0	587	1	4	0	176	8	0	1	89
random	6	1	10	1178895	1	1	1	1	0	796	1	4	0	168	9	0	1	90
random	6	1	11	1180114	5	4	4	1	0	720	1	4	0	192	10	0	1	91
random	6	1	12	1181881	3	3	3	1	0	781	1	4	0	184	11	0	1	92
random	6	1	13	1183671	5	2	2	1	0	930	1	4	0	176	12	0	1	92
random	6	1	14	1185614	1	4	4	1	0	768	1	4	0	192	13	0	1	93
random	6	1	15	1186713	3	1	1	1	0	993	1	4	0	168	14	0	1	93
random	6	1	16	1188624	4	3	3	1	0	768	1	4	0	184	15	0	1	94
random	6	1	17	1189869	6	4	4	1	0	771	1	4	0	192	16	0	1	94
random	6	1	18	1191391	2	1	1	1	0	683	1	4	0	168	17	0	1	94
random	6	1	19	1192606	5	3	3	1	0	1232	1	4	0	184	18	0	1	95
random	6	1	20	1194162	2	2	2	1	0	781	1	4	0	176	19	0	1	95
random	6	1	21	1195785	3	3	3	1	0	913	1	4	0	184	20	0	1	95
random	6	1	22	1197187	6	1	1	1	0	757	1	4	0	168	21	0	1	95
random	6	1	23	1198609	4	2	2	1	0	897	1	4	0	176	22	0	1	96
random	6	1	24	1200154	1	4	4	1	0	712	1	4	0	192	23	0	1	96
random	6	1	25	1201482	4	3	3	2	0	1295	2	4	0	184	24	0	1	96
random	6	1	26	1203697	2	1	1	1	0	762	1	4	0	168	25	0	1	96
random	6	1	27	1205098	5	2	2	1	0	814	1	4	0	176	26	0	1	96
random	6	1	28	1206206	6	4	4	1	0	656	1	4	0	192	27	0	1	96
random	6	1	29	1207837	1	3	3	1	0	842	1	4	0	184	28	0	1	97
random	6	1	30	1209592	5	2	2	1	0	736	1	4	0	176	29	0	1	97
random	6	1	31	1211032	2	1	1	1	0	707	1	4	0	168	30	0	1	97
random	6	1	32	1212335	3	3	3	1	0	796	1	4	0	184	31	0	1	97
random	6	1	33	1213812	6	4	4	1	0	733	1	4	0	192	32	0	1	97
random	6	1	34	1215257	4	2	2	1	0	784	1	4	0	176	33	0	1	97
random	6	1	35	1216949	3	4	4	1	0	945	1	4	0	192	34	0	1	97
random	6	1	36	1218528	1	1	1	1	0	669	1	4	0	168	35	0	1	97
random	6	1	37	1220378	3	4	4	1	0	1055	1	4	0	192	36	0	1	97
random	6	1	38	1222416	5	3	3	1	0	961	1	4	0	184	37	0	1	97
random	6	1	39	1223736	6	1	1	1	0	857	1	4	0	168	38	0	1	97
random	6	1	40	1225377	1	2	2	1	0	803	1	4	0	176	39	0	1	98
random	6	1	41	1227096	2	3	3	1	0	626	1	4	0	184	40	0	1	98
random	6	1	42	1228518	4	4	4	1	0	750	1	4	0	192	41	0	1	98
random	6	1	43	1229773	1	2	2	1	0	721	1	4	0	176	42	0	1	98
random	6	1	44	1231427	6	3	3	1	0	707	1	4	0	184	43	0	1	98
random	6	1	45	1232871	3	1	1	1	0	934	1	4	0	168	44	0	1	98
random	6	1	46	1234490	4	4	4	2	0	962	2	4	0	192	45	0	1	98
random	6	1	47	1235806	2	2	2	1	0	874	1	4	0	176	46	0	1	98
random	6	1	48	1237592	5	1	1	1	0	726	1	4	0	168	47	0	1	98
random	6	1	49	1239174	2	3	3	1	0	915	1	4	0	184	48	0	1	98
random	6	1	50	1241051	3	1	1	1	0	715	1	4	0	168	49	0	1	98
random	6	1	51	1242381	1	4	4	1	0	747	1	4	0	192	50	0	1	98
random	6	1	52	1243642	5	3	3	1	0	750	1	4	0	184	51	0	1	98
random	6	1	53	1244726	3	2	2	1	0	704	1	4	0	176	52	0	1	98
random	6	1	54	1246035	6	4	4	1	0	617	1	4	0	192	53	0	1	98
random	6	1	55	1247279	4	2	2	1	0	716	1	4	0	176	54	0	1	98
random	6	1	56	1248832	1	1	1	1	0	690	1	4	0	168	55	0	1	98
random	6	1	57	1249948	5	4	4	1	0	706	1	4	0	192	56	0	1	98
random	6	1	58	1251601	2	1	1	1	0	693	1	4	0	168	57	0	1	98
random	6	1	59	1252721	6	2	2	1	0	894	1	4	0	176	58	0	1	98
random	6	1	60	1253990	4	3	3	1	0	552	1	4	0	184	59	0	1	98
random	6	1	61	1255748	1	2	2	1	0	1045	1	4	0	176	60	0	1	98
random	6	1	62	1257791	6	4	4	1	0	694	1	4	0	192	61	0	1	98
random	6	1	63	1259070	4	1	1	1	0	776	1	4	0	168	62	0	1	98
random	6	1	64	1260434	2	2	2	1	0	727	1	4	0	176	63	0	1	98
random	6	1	65	1261605	4	3	3	1	0	517	1	4	0	184	64	0	1	98
random	6	1	66	1262617	3	1	1	1	0	697	1	4	0	168	65	0	1	98
random	6	1	67	1263880	1	3	3	2	0	1173	2	4	0	184	66	0	1	99
random	6	1	68	1265491	5	4	4	1	0	928	1	4	0	192	67	0	1	99
random	6	1	69	1266902	2	2	2	1	0	741	1	4	0	176	68	0	1	99
random	6	1	70	1268053	3	1	1	1	0	812	1	4	0	168	69	0	1	99
random	6	1	71	1269562	5	4	4	1	0	756	1	4	0	192	70	0	1	99
random	6	1	72	1271010	6	3	3	1	0	943	1	4	0	184	71	0	1	99
random	6	1	73	1273108	2	1	1	1	0	1541	1	4	0	168	72	0	1	99
random	6	1	74	1275153	5	3	3	1	0	911	1	4	0	184	73	0	1	99
random	6	1	75	1277011	1	4	4	1	0	689	1	4	0	192	74	0	1	99
random	6	1	76	1278260	6	2	2	1	0	764	1	4	0	176	75	0	1	99
random	6	1	77	1279509	2	1	1	1	0	750	1	4	0	168	76	0	1	99
random	6	1	78	1281284	4	4	4	1	0	707	1	4	0	192	77	0	1	99
random	6	1	79	1282657	3	2	2	1	0	721	1	4	0	176	78	0	1	99
random	6	1	80	1283949	4	3	3	1	0	554	1	4	0	184	79	0	1	99
random	6	1	81	1285060	1	4	4	1	0	771	1	4	0	192	80	0	1	99
random	6	1	82	1286221	5	1	1	1	0	714	1	4	0	168	81	0	1	99
random	6	1	83	1287894	3	2	2	1	0	843	1	4	0	176	82	0	1	99
random	6	1	84	1289521	6	3	3	1	0	743	1	4	0	184	83	0	1	99
random	6	1	85	1291386	3	2	2	1	0	879	1	4	0	176	84	0	1	99
random	6	1	86	1292911	1	3	3	1	0	687	1	4	0	184	85	0	1	99
random	6	1	87	1294250	4	4	4	1	0	718	1	4	0	192	86	0	1	99
random	6	1	88	1295874	2	1	1	1	0	714	1	4	0	168	87	0	1	99
random	6	1	89	1296994	6	4	4	1	0	642	1	4	0	192	88	0	1	99
random	6	1	90	1298310	3	3	3	1	0	770	1	4	0	184	89	0	1	99
random	6	1	91	1299925	5	4	4	1	0	734	1	4	0	192	90	0	1	99
random	6	1	92	1301688	1	2	2	1	0	1011	1	4	0	176	91	0	1	99
random	6	1	93	1302988	5	1	1	1	0	1252	1	4	0	168	92	0	1	99
random	6	1	94	1305063	4	3	3	1	0	749	1	4	0	184	93	0	1	99
random	6	1	95	1306176	6	1	1	1	0	917	1	4	0	168	94	0	1	99
random	6	1	96	1307652	2	2	2	1	0	839	1	4	0	176	95	0	1	99
random	6	1	97	1309330	4	3	3	1	0	887	1	4	0	184	96	0	1	99
random	6	1	98	1310553	3	2	2	1	0	852	1	4	0	176	97	0	1	99
random	6	1	99	1311792	6	3	3	1	0	759	1	4	0	184	98	0	1	99
random	6	1	100	1313514	1	4	4	1	0	742	1	4	0	192	99	0	1	99
random	6	1	101	1315097	4	1	1	1	0	723	1	4	0	168	100	0	1	99
random	6	1	102	1316254	5	2	2	1	0	946	1	4	0	176	101	0	1	99
random	6	1	103	1318051	2	4	4	1	0	830	1	4	0	192	102	0	1	99
random	6	1	104	1319657	3	1	1	1	0	698	1	4	0	168	103	0	1	99
random	6	1	105	1320719	1	3	3	1	0	733	1	4	0	184	104	0	1	99
random	6	1	106	1322155	2	2	2	1	0	920	1	4	0	176	105	0	1	99
random	6	1	107	1323823	5	4	4	1	0	666	1	4	0	192	106	0	1	99
random	6	1	108	1324862	6	1	1	1	0	806	1	4	0	168	107	0	1	99
random	6	1	109	1326288	5	4	4	1	0	865	1	4	0	192	108	0	1	99
random	6	1	110	1328105	6	3	3	1	0	789	1	4	0	184	109	0	1	99
random	6	1	111	1329317	2	2	2	1	0	649	1	4	0	176	110	0	1	99
random	6	1	112	1330756	3	1	1	1	0	700	1	4	0	168	111	0	1	99
random	6	1	113	1331860	1	2	2	1	0	741	1	4	0	176	112	0	1	99
random	6	1	114	1333550	2	3	3	1	0	758	1	4	0	184	113	0	1	99
random	6	1	115	1334934	3	1	1	1	0	683	1	4	0	168	114	0	1	99
random	6	1	116	1336419	4	4	4	1	0	708	1	4	0	192	115	0	1	99
random	6	1	117	1337595	6	1	1	1	0	883	1	4	0	168	116	0	1	99
random	6	1	118	1338788	5	3	3	1	0	792	1	4	0	184	117	0	1	99
random	6	1	119	1339954	1	4	4	1	0	766	1	4	0	192	118	0	1	99
random	6	1	120	1341131	4	2	2	1	0	741	1	4	0	176	119	0	1	99
fixed	7	1	1	1343277	4	1	1	1	0	897	1	4	0	200	1	0	0	100
fixed	7	1	2	1345209	1	2	2	1	0	848	1	4	0	208	2	0	0	100
fixed	7	1	3	1347032	6	4	4	1	0	691	1	4	0	224	3	0	0	100
fixed	7	1	4	1348436	2	1	1	1	0	695	1	4	0	200	4	0	0	100
fixed	7	1	5	1349460	5	3	3	1	0	755	1	4	0	216	5	0	0	100
fixed	7	1	6	1350806	6	4	4	1	0	723	1	4	0	224	6	0	0	100
fixed	7	1	7	1352145	3	1	1	1	0	738	1	4	0	200	7	0	0	100
fixed	7	1	8	1353351	2	3	3	1	0	991	1	4	0	216	8	0	0	100
fixed	7	1	9	1354799	3	2	2	1	0	650	1	4	0	208	9	0	0	100
fixed	7	1	10	1356299	1	4	4	1	0	682	1	4	0	224	10	0	0	100
fixed	7	1	11	1357905	5	2	2	1	0	766	1	4	0	208	11	0	0	100
fixed	7	1	12	1359225	4	3	3	1	0	702	1	4	0	216	12	0	0	100
fixed	7	2	1	1360906	4	1	1	1	0	799	1	4	0	200	1	0	0	8
fixed	7	2	2	1362548	1	2	2	1	0	745	1	4	0	208	2	0	0	14
fixed	7	2	3	1364066	6	4	4	1	0	649	1	4	0	224	3	0	0	20
fixed	7	2	4	1365198	2	1	1	1	0	705	1	4	0	200	4	0	0	25
fixed	7	2	5	1366853	5	3	3	1	0	755	1	4	0	216	5	0	0	29
fixed	7	2	6	1367974	6	4	4	1	0	739	1	4	0	224	6	0	0	33
fixed	7	2	7	1369500	3	1	1	2	0	2163	2	4	0	200	7	0	0	37
fixed	7	2	8	1372608	2	3	3	1	0	895	1	4	0	216	8	0	0	40
fixed	7	2	9	1374221	3	2	2	1	0	715	1	4	0	208	9	0	0	43
fixed	7	2	10	1375336	1	4	4	1	0	645	1	4	0	224	10	0	0	45
fixed	7	2	11	1376891	5	2	2	1	0	762	1	4	0	208	11	0	0	48
fixed	7	2	12	1378363	4	3	3	1	0	699	1	4	0	216	12	0	0	50
fixed	7	3	1	1380053	4	1	1	1	0	748	1	4	0	200	1	0	0	4
fixed	7	3	2	1381207	1	2	2	1	0	947	1	4	0	208	2	0	0	8
fixed	7	3	3	1382865	6	4	4	1	0	629	1	4	0	224	3	0	0	11
fixed	7	3	4	1383923	2	1	1	1	0	632	1	4	0	200	4	0	0	14
fixed	7	3	5	1385116	5	3	3	1	0	677	1	4	0	216	5	0	0	17
fixed	7	3	6	1386271	6	4	4	1	0	644	1	4	0	224	6	0	0	20
fixed	7	3	7	1387618	3	1	1	1	0	636	1	4	0	200	7	0	0	23
fixed	7	3	8	1388909	2	3	3	1	0	717	1	4	0	216	8	0	0	25
fixed	7	3	9	1390272	3	2	2	1	0	731	1	4	0	208	9	0	0	27
fixed	7	3	10	1391289	1	4	4	1	0	848	1	4	0	224	10	0	0	29
fixed	7	3	11	1392717	5	2	2	1	0	715	1	4	0	208	11	0	0	31
fixed	7	3	12	1393903	4	3	3	1	0	681	1	4	0	216	12	0	0	33
fixed	7	4	1	1395241	4	1	1	1	0	985	1	4	0	200	1	0	0	3
fixed	7	4	2	1397257	1	2	2	1	0	724	1	4	0	208	2	0	0	5
fixed	7	4	3	1398935	6	4	4	1	0	756	1	4	0	224	3	0	0	8
fixed	7	4	4	1400443	2	1	1	1	0	668	1	4	0	200	4	0	0	10
fixed	7	4	5	1401813	5	3	3	1	0	810	1	4	0	216	5	0	0	12
fixed	7	4	6	1403329	6	4	4	1	0	642	1	4	0	224	6	0	0	14
fixed	7	4	7	1404934	3	1	1	1	0	662	1	4	0	200	7	0	0	16
fixed	7	4	8	1406205	2	3	3	1	0	832	1	4	0	216	8	0	0	18
fixed	7	4	9	1407425	3	2	2	1	0	781	1	4	0	208	9	0	0	20
fixed	7	4	10	1409060	1	4	4	1	0	663	1	4	0	224	10	0	0	22
fixed	7	4	11	1410555	5	2	2	1	0	984	1	4	0	208	11	0	0	23
fixed	7	4	12	1412106	4	3	3	2	0	1006	2	4	0	216	12	0	0	25
fixed	7	5	1	1414003	4	1	1	1	0	790	1	4	0	200	1	0	0	2
fixed	7	5	2	1415609	1	2	2	1	0	714	1	4	0	208	2	0	0	4
fixed	7	5	3	1416672	6	4	4	1	0	709	1	4	0	224	3	0	0	6
fixed	7	5	4	1418174	2	1	1	1	0	654	1	4	0	200	4	0	0	8
fixed	7	5	5	1419519	5	3	3	1	0	676	1	4	0	216	5	0	0	9
fixed	7	5	6	1420591	6	4	4	1	0	695	1	4	0	224	6	0	0	11
fixed	7	5	7	1422126	3	1	1	1	0	710	1	4	0	200	7	0	0	13
fixed	7	5	8	1423776	2	3	3	1	0	936	1	4	0	216	8	0	0	14
fixed	7	5	9	1425183	3	2	2	1	0	708	1	4	0	208	9	0	0	16
fixed	7	5	10	1426520	1	4	4	1	0	748	1	4	0	224	10	0	0	17
fixed	7	5	11	1428283	5	2	2	1	0	1233	1	4	0	208	11	0	0	19
fixed	7	5	12	1430082	4	3	3	1	0	709	1	4	0	216	12	0	0	20
fixed	7	6	1	1431630	4	1	1	1	0	763	1	4	0	200	1	0	0	2
fixed	7	6	2	1433384	1	2	2	1	0	841	1	4	0	208	2	0	0	3
fixed	7	6	3	1435179	6	4	4	1	0	797	1	4	0	224	3	0	0	5
fixed	7	6	4	1436837	2	1	1	1	0	623	1	4	0	200	4	0	0	6
fixed	7	6	5	1438019	5	3	3	1	0	773	1	4	0	216	5	0	0	8
fixed	7	6	6	1439701	6	4	4	1	0	661	1	4	0	224	6	0	0	9
fixed	7	6	7	1440774	3	1	1	2	0	1064	2	4	0	200	7	0	0	10
fixed	7	6	8	1442482	2	3	3	1	0	968	1	4	0	216	8	0	0	12
fixed	7	6	9	1444368	3	2	2	1	0	728	1	4	0	208	9	0	0	13
fixed	7	6	10	1445436	1	4	4	1	0	659	1	4	0	224	10	0	0	14
fixed	7	6	11	1446569	5	2	2	1	0	978	1	4	0	208	11	0	0	15
fixed	7	6	12	1447895	4	3	3	1	0	651	1	4	0	216	12	0	0	17
fixed	7	7	1	1449089	4	1	1	1	0	752	1	4	0	200	1	0	0	1
fixed	7	7	2	1450464	1	2	2	1	0	758	1	4	0	208	2	0	0	3
fixed	7	7	3	1452081	6	4	4	1	0	625	1	4	0	224	3	0	0	4
fixed	7	7	4	1453552	2	1	1	1	0	627	1	4	0	200	4	0	0	5
fixed	7	7	5	1454994	5	3	3	1	0	710	1	4	0	216	5	0	0	6
fixed	7	7	6	1456327	6	4	4	1	0	677	1	4	0	224	6	0	0	8
fixed	7	7	7	1457442	3	1	1	1	0	510	1	4	0	200	7	0	0	9
fixed	7	7	8	1458328	2	3	3	1	0	808	1	4	0	216	8	0	0	10
fixed	7	7	9	1459588	3	2	2	1	0	739	1	4	0	208	9	0	0	11
fixed	7	7	10	1460643	1	4	4	1	0	671	1	4	0	224	10	0	0	12
fixed	7	7	11	1462333	5	2	2	1	0	807	1	4	0	208	11	0	0	13
fixed	7	7	12	1463789	4	3	3	1	0	682	1	4	0	216	12	0	0	14
fixed	7	8	1	1465212	4	1	1	1	0	789	1	4	0	200	1	0	0	1
fixed	7	8	2	1466334	1	2	2	1	0	845	1	4	0	208	2	0	0	2
fixed	7	8	3	1468076	6	4	4	1	0	692	1	4	0	224	3	0	0	3
fixed	7	8	4	1469186	2	1	1	1	0	612	1	4	0	200	4	0	0	5
fixed	7	8	5	1470780	5	3	3	1	0	713	1	4	0	216	5	0	0	6
fixed	7	8	6	1472155	6	4	4	1	0	647	1	4	0	224	6	0	0	7
fixed	7	8	7	1473734	3	1	1	1	0	628	1	4	0	200	7	0	0	8
fixed	7	8	8	1475205	2	3	3	1	0	918	1	4	0	216	8	0	0	9
fixed	7	8	9	1476479	3	2	2	1	0	664	1	4	0	208	9	0	0	10
fixed	7	8	10	1478042	1	4	4	1	0	773	1	4	0	224	10	0	0	11
fixed	7	8	11	1479181	5	2	2	1	0	733	1	4	0	208	11	0	0	12
fixed	7	8	12	1480574	4	3	3	1	0	642	1	4	0	216	12	0	0	13
fixed	7	9	1	1482404	4	1	1	1	0	765	1	4	0	200	1	0	0	1
fixed	7	9	2	1483859	1	2	2	1	0	1295	1	4	0	208	2	0	0	2
fixed	7	9	3	1485777	6	4	4	1	0	854	1	4	0	224	3	0	0	3
fixed	7	9	4	1487557	2	1	1	1	0	819	1	4	0	200	4	0	0	4
fixed	7	9	5	1488805	5	3	3	1	0	718	1	4	0	216	5	0	0	5
fixed	7	9	6	1490519	6	4	4	1	0	805	1	4	0	224	6	0	0	6
fixed	7	9	7	1492020	3	1	1	1	0	742	1	4	0	200	7	0	0	7
fixed	7	9	8	1493137	2	3	3	1	0	894	1	4	0	216	8	0	0	8
fixed	7	9	9	1494355	3	2	2	1	0	835	1	4	0	208	9	0	0	9
fixed	7	9	10	1496149	1	4	4	1	0	759	1	4	0	224	10	0	0	9
fixed	7	9	11	1497216	5	2	2	1	0	754	1	4	0	208	11	0	0	10
fixed	7	9	12	1498722	4	3	3	1	0	698	1	4	0	216	12	0	0	11
fixed	7	10	1	1499964	4	1	1	1	0	741	1	4	0	200	1	0	0	1
fixed	7	10	2	1501639	1	2	2	1	0	758	1	4	0	208	2	0	0	2
fixed	7	10	3	1503175	6	4	4	1	0	725	1	4	0	224	3	0	0	3
fixed	7	10	4	1504740	2	1	1	1	0	674	1	4	0	200	4	0	0	4
fixed	7	10	5	1506121	5	3	3	1	0	768	1	4	0	216	5	0	0	4
fixed	7	10	6	1507706	6	4	4	1	0	1109	1	4	0	224	6	0	0	5
fixed	7	10	7	1509786	3	1	1	1	0	693	1	4	0	200	7	0	0	6
fixed	7	10	8	1511048	2	3	3	1	0	776	1	4	0	216	8	0	0	7
fixed	7	10	9	1512282	3	2	2	1	0	539	1	4	0	208	9	0	0	8
fixed	7	10	10	1513562	1	4	4	1	0	781	1	4	0	224	10	0	0	8
fixed	7	10	11	1515172	5	2	2	1	0	785	1	4	0	208	11	0	0	9
fixed	7	10	12	1516579	4	3	3	1	0	733	1	4	0	216	12	0	0	10
