type	block	sequ.	trial	time	Pos.	Color	Button	NumRsp	Resp_1	RT_1	R_Code	Resp_2	RT_2	Trigg.	n_hit	n_inc	n_miss	score_%

random	1	1	1	2843	6	1	1	1	0	1347	1	4	0	8	1	0	0	100
random	1	1	2	5083	4	4	4	1	0	716	1	4	0	32	2	0	0	100
random	1	1	3	6772	2	2	2	1	0	821	1	4	0	16	3	0	0	100
random	1	1	4	8158	3	3	3	1	0	458	1	4	0	24	4	0	0	100
random	1	1	5	8982	5	2	2	1	0	951	1	4	0	16	5	0	0	100
random	1	1	6	10499	1	4	4	1	0	623	1	4	0	32	6	0	0	100
random	1	1	7	11802	6	1	1	1	0	576	1	4	0	8	7	0	0	100
random	1	1	8	13107	2	3	3	1	0	833	1	4	0	24	8	0	0	100
random	1	1	9	14357	4	2	2	1	0	620	1	4	0	16	9	0	0	100
random	1	1	10	15663	1	1	1	1	0	700	1	4	0	8	10	0	0	100
random	1	1	11	17126	5	4	4	1	0	543	1	4	0	32	11	0	0	100
random	1	1	12	18264	3	3	3	1	0	758	1	4	0	24	12	0	0	100
random	1	1	13	19652	5	2	2	1	0	859	1	4	0	16	13	0	0	100
random	1	1	14	21187	1	4	4	1	0	619	1	4	0	32	14	0	0	100
random	1	1	15	22305	3	1	1	1	0	731	1	4	0	8	15	0	0	100
random	1	1	16	23594	4	3	3	1	0	748	1	4	0	24	16	0	0	100
random	1	1	17	25044	6	4	4	1	0	655	1	4	0	32	17	0	0	100
random	1	1	18	26229	2	1	1	1	0	517	1	4	0	8	18	0	0	100
random	1	1	19	27709	5	3	3	1	0	878	1	4	0	24	19	0	0	100
random	1	1	20	29027	2	2	2	1	0	678	1	4	0	16	20	0	0	100
random	1	1	21	30068	3	3	3	2	0	794	2	4	0	24	21	0	0	100
random	1	1	22	31394	6	1	1	1	0	786	1	4	0	8	22	0	0	100
random	1	1	23	32518	4	2	2	1	0	826	1	4	0	16	23	0	0	100
random	1	1	24	33904	1	4	4	1	0	664	1	4	0	32	24	0	0	100
random	1	1	25	35408	4	3	3	2	0	1376	2	4	0	24	25	0	0	100
random	1	1	26	37134	2	1	1	1	0	751	1	4	0	8	26	0	0	100
random	1	1	27	38694	5	2	2	1	0	765	1	4	0	16	27	0	0	100
random	1	1	28	40389	6	4	4	1	0	709	1	4	0	32	28	0	0	100
random	1	1	29	41400	1	3	3	1	0	843	1	4	0	24	29	0	0	100
random	1	1	30	43151	5	2	2	1	0	680	1	4	0	16	30	0	0	100
random	1	1	31	44151	2	1	1	1	0	702	1	4	0	8	31	0	0	100
random	1	1	32	45664	3	3	3	1	0	693	1	4	0	24	32	0	0	100
random	1	1	33	46752	6	4	4	1	0	719	1	4	0	32	33	0	0	100
random	1	1	34	47870	4	2	2	1	0	600	1	4	0	16	34	0	0	100
random	1	1	35	49240	3	4	4	1	0	766	1	4	0	32	35	0	0	100
random	1	1	36	50740	1	1	1	1	0	607	1	4	0	8	36	0	0	100
random	1	1	37	52452	3	4	4	1	0	1134	1	4	0	32	37	0	0	100
random	1	1	38	54386	5	3	3	1	0	804	1	4	0	24	38	0	0	100
random	1	1	39	55948	6	1	1	1	0	690	1	4	0	8	39	0	0	100
random	1	1	40	57496	1	2	2	1	0	752	1	4	0	16	40	0	0	100
random	1	1	41	59098	2	3	3	1	0	524	1	4	0	24	41	0	0	100
random	1	1	42	60262	4	4	4	1	0	580	1	4	0	32	42	0	0	100
random	1	1	43	61872	1	2	2	1	0	823	1	4	0	16	43	0	0	100
random	1	1	44	63293	6	3	3	1	0	699	1	4	0	24	44	0	0	100
random	1	1	45	64648	3	1	1	1	0	698	1	4	0	8	45	0	0	100
random	1	1	46	65706	4	4	4	1	0	629	1	4	0	32	46	0	0	100
random	1	1	47	67236	2	2	2	1	0	668	1	4	0	16	47	0	0	100
random	1	1	48	68936	5	1	1	1	0	644	1	4	0	8	48	0	0	100
random	1	1	49	70394	2	3	3	1	0	934	1	4	0	24	49	0	0	100
random	1	1	50	71989	3	1	1	1	0	667	1	4	0	8	50	0	0	100
random	1	1	51	73344	1	4	4	1	0	578	1	4	0	32	51	0	0	100
random	1	1	52	74482	5	3	3	2	0	1153	2	4	0	24	52	0	0	100
random	1	1	53	76041	3	2	2	1	0	703	1	4	0	16	53	0	0	100
random	1	1	54	77549	6	4	4	1	0	663	1	4	0	32	54	0	0	100
random	1	1	55	78816	4	2	2	1	0	665	1	4	0	16	55	0	0	100
random	1	1	56	79876	1	1	1	1	0	757	1	4	0	8	56	0	0	100
random	1	1	57	81081	5	4	4	1	0	578	1	4	0	32	57	0	0	100
random	1	1	58	82019	2	1	1	1	0	786	1	4	0	8	58	0	0	100
random	1	1	59	83162	6	2	2	1	0	737	1	4	0	16	59	0	0	100
random	1	1	60	84422	4	3	3	1	0	1012	1	4	0	24	60	0	0	100
random	1	1	61	86317	1	2	2	1	0	844	1	4	0	16	61	0	0	100
random	1	1	62	87800	6	4	4	1	0	645	1	4	0	32	62	0	0	100
random	1	1	63	89316	4	1	1	1	0	501	1	4	0	8	63	0	0	100
random	1	1	64	90478	2	2	2	1	0	683	1	4	0	16	64	0	0	100
random	1	1	65	92176	4	3	3	1	0	748	1	4	0	24	65	0	0	100
random	1	1	66	93550	3	1	1	1	0	713	1	4	0	8	66	0	0	100
random	1	1	67	94978	1	3	3	1	0	749	1	4	0	24	67	0	0	100
random	1	1	68	96616	5	4	4	1	0	688	1	4	0	32	68	0	0	100
random	1	1	69	98113	2	2	2	1	0	816	1	4	0	16	69	0	0	100
random	1	1	70	99924	3	1	1	1	0	844	1	4	0	8	70	0	0	100
random	1	1	71	101126	5	4	4	1	0	689	1	4	0	32	71	0	0	100
random	1	1	72	102314	6	3	3	1	0	702	1	4	0	24	72	0	0	100
random	1	1	73	104244	2	1	1	1	0	1044	1	4	0	8	73	0	0	100
random	1	1	74	105838	5	3	3	1	0	825	1	4	0	24	74	0	0	100
random	1	1	75	107600	1	4	4	1	0	590	1	4	0	32	75	0	0	100
random	1	1	76	108600	6	2	2	1	0	676	1	4	0	16	76	0	0	100
random	1	1	77	109802	2	1	1	1	0	657	1	4	0	8	77	0	0	100
random	1	1	78	111214	4	4	4	1	0	701	1	4	0	32	78	0	0	100
random	1	1	79	112594	3	2	2	1	0	643	1	4	0	16	79	0	0	100
random	1	1	80	114160	4	3	3	2	0	1097	2	4	0	24	80	0	0	100
random	1	1	81	115643	1	4	4	1	0	778	1	4	0	32	81	0	0	100
random	1	1	82	116765	5	1	1	1	0	834	1	4	0	8	82	0	0	100
random	1	1	83	118126	3	2	2	1	0	752	1	4	0	16	83	0	0	100
random	1	1	84	119862	6	3	3	1	0	655	1	4	0	24	84	0	0	100
random	1	1	85	121069	3	2	2	1	0	868	1	4	0	16	85	0	0	100
random	1	1	86	122616	1	3	3	1	0	555	1	4	0	24	86	0	0	100
random	1	1	87	124062	4	4	4	1	0	621	1	4	0	32	87	0	0	100
random	1	1	88	125482	2	1	1	1	0	449	1	4	0	8	88	0	0	100
random	1	1	89	126394	6	4	4	1	0	795	1	4	0	32	89	0	0	100
random	1	1	90	127918	3	3	3	1	0	674	1	4	0	24	90	0	0	100
random	1	1	91	129204	5	4	4	1	0	723	1	4	0	32	91	0	0	100
random	1	1	92	130595	1	2	2	1	0	648	1	4	0	16	92	0	0	100
random	1	1	93	131964	5	1	1	1	0	702	1	4	0	8	93	0	0	100
random	1	1	94	133374	4	3	3	1	0	795	1	4	0	24	94	0	0	100
random	1	1	95	134831	6	1	1	1	0	861	1	4	0	8	95	0	0	100
random	1	1	96	136194	2	2	2	1	0	715	1	4	0	16	96	0	0	100
random	1	1	97	137994	4	3	3	1	0	1047	1	4	0	24	97	0	0	100
random	1	1	98	139598	3	2	2	1	0	659	1	4	0	16	98	0	0	100
random	1	1	99	140649	6	3	3	1	0	758	1	4	0	24	99	0	0	100
random	1	1	100	142303	1	4	4	1	0	616	1	4	0	32	100	0	0	100
random	1	1	101	143424	4	1	1	1	0	665	1	4	0	8	101	0	0	100
random	1	1	102	144816	5	2	2	1	0	726	1	4	0	16	102	0	0	100
random	1	1	103	146156	2	4	4	1	0	670	1	4	0	32	103	0	0	100
random	1	1	104	147866	3	1	1	1	0	653	1	4	0	8	104	0	0	100
random	1	1	105	148987	1	3	3	1	0	725	1	4	0	24	105	0	0	100
random	1	1	106	150417	2	2	2	1	0	681	1	4	0	16	106	0	0	100
random	1	1	107	152007	5	4	4	1	0	670	1	4	0	32	107	0	0	100
random	1	1	108	153684	6	1	1	1	0	710	1	4	0	8	108	0	0	100
random	1	1	109	155119	5	4	4	1	0	825	1	4	0	32	109	0	0	100
random	1	1	110	156671	6	3	3	1	0	840	1	4	0	24	110	0	0	100
random	1	1	111	158004	2	2	2	1	0	560	1	4	0	16	111	0	0	100
random	1	1	112	158916	3	1	1	1	0	673	1	4	0	8	112	0	0	100
random	1	1	113	160242	1	2	2	1	0	657	1	4	0	16	113	0	0	100
random	1	1	114	161670	2	3	3	1	0	692	1	4	0	24	114	0	0	100
random	1	1	115	162713	3	1	1	1	0	688	1	4	0	8	115	0	0	100
random	1	1	116	164323	4	4	4	1	0	684	1	4	0	32	116	0	0	100
random	1	1	117	165983	6	1	1	1	0	718	1	4	0	8	117	0	0	100
random	1	1	118	167297	5	3	3	1	0	862	1	4	0	24	118	0	0	100
random	1	1	119	168869	1	4	4	1	0	635	1	4	0	32	119	0	0	100
random	1	1	120	169993	4	2	2	1	0	620	1	4	0	16	120	0	0	100
fixed	2	1	1	171941	4	1	1	1	0	817	1	4	0	40	1	0	0	100
fixed	2	1	2	173516	1	2	2	1	0	830	1	4	0	48	2	0	0	100
fixed	2	1	3	175130	6	4	4	1	0	563	1	4	0	64	3	0	0	100
fixed	2	1	4	176527	2	1	1	1	0	615	1	4	0	40	4	0	0	100
fixed	2	1	5	177829	5	3	3	1	0	528	1	4	0	56	5	0	0	100
fixed	2	1	6	178984	6	4	4	1	0	711	1	4	0	64	6	0	0	100
fixed	2	1	7	180348	3	1	1	1	0	597	1	4	0	40	7	0	0	100
fixed	2	1	8	181674	2	3	3	1	0	893	1	4	0	56	8	0	0	100
fixed	2	1	9	183555	3	2	2	1	0	533	1	4	0	48	9	0	0	100
fixed	2	1	10	184981	1	4	4	1	0	641	1	4	0	64	10	0	0	100
fixed	2	1	11	186254	5	2	2	1	0	779	1	4	0	48	11	0	0	100
fixed	2	1	12	187371	4	3	3	1	0	532	1	4	0	56	12	0	0	100
fixed	2	2	1	188551	4	1	1	1	0	745	1	4	0	40	13	0	0	100
fixed	2	2	2	190018	1	2	2	1	0	732	1	4	0	48	14	0	0	100
fixed	2	2	3	191179	6	4	4	1	0	650	1	4	0	64	15	0	0	100
fixed	2	2	4	192611	2	1	1	1	0	685	1	4	0	40	16	0	0	100
fixed	2	2	5	194118	5	3	3	1	0	678	1	4	0	56	17	0	0	100
fixed	2	2	6	195123	6	4	4	1	0	723	1	4	0	64	18	0	0	100
fixed	2	2	7	196357	3	1	1	1	0	623	1	4	0	40	19	0	0	100
fixed	2	2	8	197493	2	3	3	1	0	951	1	4	0	56	20	0	0	100
fixed	2	2	9	199174	3	2	2	1	0	504	1	4	0	48	21	0	0	100
fixed	2	2	10	200201	1	4	4	1	0	652	1	4	0	64	22	0	0	100
fixed	2	2	11	201405	5	2	2	1	0	833	1	4	0	48	23	0	0	100
fixed	2	2	12	202801	4	3	3	1	0	606	1	4	0	56	24	0	0	100
fixed	2	3	1	204156	4	1	1	1	0	749	1	4	0	40	25	0	0	100
fixed	2	3	2	205841	1	2	2	1	0	901	1	4	0	48	26	0	0	100
fixed	2	3	3	207159	6	4	4	1	0	774	1	4	0	64	27	0	0	100
fixed	2	3	4	208471	2	1	1	1	0	614	1	4	0	40	28	0	0	100
fixed	2	3	5	210019	5	3	3	1	0	852	1	4	0	56	29	0	0	100
fixed	2	3	6	211322	6	4	4	1	0	637	1	4	0	64	30	0	0	100
fixed	2	3	7	212932	3	1	1	1	0	593	1	4	0	40	31	0	0	100
fixed	2	3	8	214421	2	3	3	1	0	786	1	4	0	56	32	0	0	100
fixed	2	3	9	215726	3	2	2	1	0	451	1	4	0	48	33	0	0	100
fixed	2	3	10	216501	1	4	4	1	0	578	1	4	0	64	34	0	0	100
fixed	2	3	11	217781	5	2	2	1	0	668	1	4	0	48	35	0	0	100
fixed	2	3	12	218859	4	3	3	1	0	534	1	4	0	56	36	0	0	100
fixed	2	4	1	220062	4	1	1	1	0	1019	1	4	0	40	37	0	0	100
fixed	2	4	2	221549	1	2	2	2	0	1084	2	4	0	48	38	0	0	100
fixed	2	4	3	223013	6	4	4	1	0	710	1	4	0	64	39	0	0	100
fixed	2	4	4	224537	2	1	1	1	0	629	1	4	0	40	40	0	0	100
fixed	2	4	5	225909	5	3	3	1	0	747	1	4	0	56	41	0	0	100
fixed	2	4	6	227129	6	4	4	1	0	679	1	4	0	64	42	0	0	100
fixed	2	4	7	228763	3	1	1	1	0	603	1	4	0	40	43	0	0	100
fixed	2	4	8	229834	2	3	3	1	0	893	1	4	0	56	44	0	0	100
fixed	2	4	9	231724	3	2	2	1	0	605	1	4	0	48	45	0	0	100
fixed	2	4	10	232685	1	4	4	1	0	676	1	4	0	64	46	0	0	100
fixed	2	4	11	234117	5	2	2	1	0	752	1	4	0	48	47	0	0	100
fixed	2	4	12	235822	4	3	3	1	0	655	1	4	0	56	48	0	0	100
fixed	2	5	1	237605	4	1	1	1	0	844	1	4	0	40	49	0	0	100
fixed	2	5	2	239065	1	2	2	1	0	670	1	4	0	48	50	0	0	100
fixed	2	5	3	240405	6	4	4	1	0	598	1	4	0	64	51	0	0	100
fixed	2	5	4	241964	2	1	1	1	0	571	1	4	0	40	52	0	0	100
fixed	2	5	5	243130	5	3	3	1	0	650	1	4	0	56	53	0	0	100
fixed	2	5	6	244213	6	4	4	1	0	620	1	4	0	64	54	0	0	100
fixed	2	5	7	245854	3	1	1	1	0	623	1	4	0	40	55	0	0	100
fixed	2	5	8	247417	2	3	3	1	0	748	1	4	0	56	56	0	0	100
fixed	2	5	9	248685	3	2	2	1	0	799	1	4	0	48	57	0	0	100
fixed	2	5	10	249977	1	4	4	1	0	712	1	4	0	64	58	0	0	100
fixed	2	5	11	251494	5	2	2	1	0	800	1	4	0	48	59	0	0	100
fixed	2	5	12	252688	4	3	3	1	0	629	1	4	0	56	60	0	0	100
fixed	2	6	1	254045	4	1	1	1	0	835	1	4	0	40	61	0	0	100
fixed	2	6	2	255702	1	2	2	1	0	645	1	4	0	48	62	0	0	100
fixed	2	6	3	257009	6	4	4	1	0	654	1	4	0	64	63	0	0	100
fixed	2	6	4	258385	2	1	1	1	0	636	1	4	0	40	64	0	0	100
fixed	2	6	5	260000	5	3	3	1	0	696	1	4	0	56	65	0	0	100
fixed	2	6	6	261035	6	4	4	1	0	692	1	4	0	64	66	0	0	100
fixed	2	6	7	262227	3	1	1	1	0	641	1	4	0	40	67	0	0	100
fixed	2	6	8	263404	2	3	3	1	0	887	1	4	0	56	68	0	0	100
fixed	2	6	9	265282	3	2	2	1	0	528	1	4	0	48	69	0	0	100
fixed	2	6	10	266790	1	4	4	1	0	679	1	4	0	64	70	0	0	100
fixed	2	6	11	268103	5	2	2	1	0	680	1	4	0	48	71	0	0	100
fixed	2	6	12	269169	4	3	3	1	0	523	1	4	0	56	72	0	0	100
fixed	2	7	1	270268	4	1	1	1	0	716	1	4	0	40	73	0	0	100
fixed	2	7	2	271727	1	2	2	1	0	679	1	4	0	48	74	0	0	100
fixed	2	7	3	272903	6	4	4	1	0	605	1	4	0	64	75	0	0	100
fixed	2	7	4	274446	2	1	1	1	0	563	1	4	0	40	76	0	0	100
fixed	2	7	5	275415	5	3	3	1	0	586	1	4	0	56	77	0	0	100
fixed	2	7	6	276846	6	4	4	1	0	734	1	4	0	64	78	0	0	100
fixed	2	7	7	278308	3	1	1	1	0	640	1	4	0	40	79	0	0	100
fixed	2	7	8	279861	2	3	3	1	0	950	1	4	0	56	80	0	0	100
fixed	2	7	9	281236	3	2	2	1	0	612	1	4	0	48	81	0	0	100
fixed	2	7	10	282608	1	4	4	1	0	634	1	4	0	64	82	0	0	100
fixed	2	7	11	284219	5	2	2	1	0	645	1	4	0	48	83	0	0	100
fixed	2	7	12	285517	4	3	3	1	0	583	1	4	0	56	84	0	0	100
fixed	2	8	1	287093	4	1	1	1	0	796	1	4	0	40	85	0	0	100
fixed	2	8	2	288712	1	2	2	1	0	671	1	4	0	48	86	0	0	100
fixed	2	8	3	290044	6	4	4	1	0	607	1	4	0	64	87	0	0	100
fixed	2	8	4	291394	2	1	1	1	0	534	1	4	0	40	88	0	0	100
fixed	2	8	5	292331	5	3	3	1	0	590	1	4	0	56	89	0	0	100
fixed	2	8	6	293942	6	4	4	1	0	682	1	4	0	64	90	0	0	100
fixed	2	8	7	295501	3	1	1	1	0	608	1	4	0	40	91	0	0	100
fixed	2	8	8	296862	2	3	3	1	0	678	1	4	0	56	92	0	0	100
fixed	2	8	9	297867	3	2	2	1	0	715	1	4	0	48	93	0	0	100
fixed	2	8	10	299059	1	4	4	1	0	609	1	4	0	64	94	0	0	100
fixed	2	8	11	300424	5	2	2	1	0	663	1	4	0	48	95	0	0	100
fixed	2	8	12	301555	4	3	3	1	0	527	1	4	0	56	96	0	0	100
fixed	2	9	1	303216	4	1	1	1	0	721	1	4	0	40	97	0	0	100
fixed	2	9	2	304350	1	2	2	1	0	705	1	4	0	48	98	0	0	100
fixed	2	9	3	305932	6	4	4	1	0	582	1	4	0	64	99	0	0	100
fixed	2	9	4	307032	2	1	1	2	0	615	2	4	0	40	100	0	0	100
fixed	2	9	5	308459	5	3	3	1	0	667	1	4	0	56	101	0	0	100
fixed	2	9	6	309817	6	4	4	1	0	609	1	4	0	64	102	0	0	100
fixed	2	9	7	310864	3	1	1	1	0	613	1	4	0	40	103	0	0	100
fixed	2	9	8	312224	2	3	3	1	0	683	1	4	0	56	104	0	0	100
fixed	2	9	9	313385	3	2	2	1	0	723	1	4	0	48	105	0	0	100
fixed	2	9	10	314769	1	4	4	1	0	624	1	4	0	64	106	0	0	100
fixed	2	9	11	315702	5	2	2	1	0	672	1	4	0	48	107	0	0	100
fixed	2	9	12	316883	4	3	3	1	0	558	1	4	0	56	108	0	0	100
fixed	2	10	1	318403	4	1	1	1	0	718	1	4	0	40	109	0	0	100
fixed	2	10	2	320030	1	2	2	1	0	713	1	4	0	48	110	0	0	100
fixed	2	10	3	321291	6	4	4	1	0	571	1	4	0	64	111	0	0	100
fixed	2	10	4	322312	2	1	1	1	0	696	1	4	0	40	112	0	0	100
fixed	2	10	5	323452	5	3	3	1	0	496	1	4	0	56	113	0	0	100
fixed	2	10	6	324893	6	4	4	1	0	691	1	4	0	64	114	0	0	100
fixed	2	10	7	326152	3	1	1	1	0	773	1	4	0	40	115	0	0	100
fixed	2	10	8	327727	2	3	3	1	0	843	1	4	0	56	116	0	0	100
fixed	2	10	9	329608	3	2	2	1	0	603	1	4	0	48	117	0	0	100
fixed	2	10	10	330828	1	4	4	1	0	584	1	4	0	64	118	0	0	100
fixed	2	10	11	331798	5	2	2	1	0	751	1	4	0	48	119	0	0	100
fixed	2	10	12	332957	4	3	3	1	0	565	1	4	0	56	120	0	0	100
fixed	3	1	1	334507	4	1	1	1	0	867	1	4	0	72	1	0	0	100
fixed	3	1	2	335688	1	2	2	1	0	738	1	4	0	80	2	0	0	100
fixed	3	1	3	336953	6	4	4	1	0	628	1	4	0	96	3	0	0	100
fixed	3	1	4	338369	2	1	1	1	0	568	1	4	0	72	4	0	0	100
fixed	3	1	5	339488	5	3	3	1	0	600	1	4	0	88	5	0	0	100
fixed	3	1	6	340812	6	4	4	1	0	656	1	4	0	96	6	0	0	100
fixed	3	1	7	342112	3	1	1	2	0	649	2	4	0	72	7	0	0	100
fixed	3	1	8	343570	2	3	3	1	0	764	1	4	0	88	8	0	0	100
fixed	3	1	9	344755	3	2	2	1	0	586	1	4	0	80	9	0	0	100
fixed	3	1	10	345803	1	4	4	1	0	581	1	4	0	96	10	0	0	100
fixed	3	1	11	346794	5	2	2	1	0	643	1	4	0	80	11	0	0	100
fixed	3	1	12	348368	4	3	3	1	0	569	1	4	0	88	12	0	0	100
fixed	3	2	1	350181	4	1	1	1	0	772	1	4	0	72	13	0	0	100
fixed	3	2	2	351705	1	2	2	1	0	715	1	4	0	80	14	0	0	100
fixed	3	2	3	353415	6	4	4	1	0	627	1	4	0	96	15	0	0	100
fixed	3	2	4	354984	2	1	1	1	0	536	1	4	0	72	16	0	0	100
fixed	3	2	5	355957	5	3	3	1	0	639	1	4	0	88	17	0	0	100
fixed	3	2	6	356953	6	4	4	1	0	677	1	4	0	96	18	0	0	100
fixed	3	2	7	358467	3	1	1	1	0	621	1	4	0	72	19	0	0	100
fixed	3	2	8	359661	2	3	3	1	0	978	1	4	0	88	20	0	0	100
fixed	3	2	9	361554	3	2	2	1	0	498	1	4	0	80	21	0	0	100
fixed	3	2	10	362796	1	4	4	1	0	613	1	4	0	96	22	0	0	100
fixed	3	2	11	363807	5	2	2	1	0	683	1	4	0	80	23	0	0	100
fixed	3	2	12	364947	4	3	3	1	0	603	1	4	0	88	24	0	0	100
fixed	3	3	1	366287	4	1	1	1	0	713	1	4	0	72	25	0	0	100
fixed	3	3	2	367605	1	2	2	1	0	713	1	4	0	80	26	0	0	100
fixed	3	3	3	369210	6	4	4	1	0	598	1	4	0	96	27	0	0	100
fixed	3	3	4	370686	2	1	1	2	0	655	2	4	0	72	28	0	0	100
fixed	3	3	5	372224	5	3	3	1	0	694	1	4	0	88	29	0	0	100
fixed	3	3	6	373551	6	4	4	1	0	646	1	4	0	96	30	0	0	100
fixed	3	3	7	375190	3	1	1	1	0	600	1	4	0	72	31	0	0	100
fixed	3	3	8	376329	2	3	3	1	0	856	1	4	0	88	32	0	0	100
fixed	3	3	9	377891	3	2	2	2	0	966	2	4	0	80	33	0	0	100
fixed	3	3	10	379840	1	4	4	1	0	627	1	4	0	96	34	0	0	100
fixed	3	3	11	381498	5	2	2	1	0	621	1	4	0	80	35	0	0	100
fixed	3	3	12	383083	4	3	3	1	0	690	1	4	0	88	36	0	0	100
fixed	3	4	1	384966	4	1	1	1	0	682	1	4	0	72	37	0	0	100
fixed	3	4	2	386223	1	2	2	1	0	765	1	4	0	80	38	0	0	100
fixed	3	4	3	387691	6	4	4	1	0	599	1	4	0	96	39	0	0	100
fixed	3	4	4	388654	2	1	1	1	0	718	1	4	0	72	40	0	0	100
fixed	3	4	5	389922	5	3	3	1	0	649	1	4	0	88	41	0	0	100
fixed	3	4	6	391410	6	4	4	1	0	666	1	4	0	96	42	0	0	100
fixed	3	4	7	392430	3	1	1	1	0	591	1	4	0	72	43	0	0	100
fixed	3	4	8	393887	2	3	3	1	0	704	1	4	0	88	44	0	0	100
fixed	3	4	9	395443	3	2	2	1	0	566	1	4	0	80	45	0	0	100
fixed	3	4	10	396999	1	4	4	1	0	653	1	4	0	96	46	0	0	100
fixed	3	4	11	398577	5	2	2	1	0	666	1	4	0	80	47	0	0	100
fixed	3	4	12	399572	4	3	3	1	0	720	1	4	0	88	48	0	0	100
fixed	3	5	1	401540	4	1	1	1	0	660	1	4	0	72	49	0	0	100
fixed	3	5	2	402727	1	2	2	1	0	914	1	4	0	80	50	0	0	100
fixed	3	5	3	404676	6	4	4	1	0	632	1	4	0	96	51	0	0	100
fixed	3	5	4	405719	2	1	1	1	0	787	1	4	0	72	52	0	0	100
fixed	3	5	5	406846	5	3	3	1	0	780	1	4	0	88	53	0	0	100
fixed	3	5	6	408509	6	4	4	1	0	661	1	4	0	96	54	0	0	100
fixed	3	5	7	409920	3	1	1	1	0	626	1	4	0	72	55	0	0	100
fixed	3	5	8	410832	2	3	3	1	0	739	1	4	0	88	56	0	0	100
fixed	3	5	9	412422	3	2	2	1	0	439	1	4	0	80	57	0	0	100
fixed	3	5	10	413480	1	4	4	1	0	587	1	4	0	96	58	0	0	100
fixed	3	5	11	414434	5	2	2	1	0	715	1	4	0	80	59	0	0	100
fixed	3	5	12	415513	4	3	3	1	0	597	1	4	0	88	60	0	0	100
fixed	3	6	1	416945	4	1	1	1	0	856	1	4	0	72	61	0	0	100
fixed	3	6	2	418146	1	2	2	1	0	789	1	4	0	80	62	0	0	100
fixed	3	6	3	419454	6	4	4	1	0	566	1	4	0	96	63	0	0	100
fixed	3	6	4	420970	2	1	1	1	0	669	1	4	0	72	64	0	0	100
fixed	3	6	5	422005	5	3	3	1	0	761	1	4	0	88	65	0	0	100
fixed	3	6	6	423071	6	4	4	1	0	725	1	4	0	96	66	0	0	100
fixed	3	6	7	424607	3	1	1	1	0	620	1	4	0	72	67	0	0	100
fixed	3	6	8	426069	2	3	3	1	0	709	1	4	0	88	68	0	0	100
fixed	3	6	9	427416	3	2	2	1	0	717	1	4	0	80	69	0	0	100
fixed	3	6	10	428840	1	4	4	1	0	656	1	4	0	96	70	0	0	100
fixed	3	6	11	429854	5	2	2	1	0	693	1	4	0	80	71	0	0	100
fixed	3	6	12	431200	4	3	3	1	0	692	1	4	0	88	72	0	0	100
fixed	3	7	1	432851	4	1	1	1	0	646	1	4	0	72	73	0	0	100
fixed	3	7	2	434355	1	2	2	1	0	670	1	4	0	80	74	0	0	100
fixed	3	7	3	435638	6	4	4	1	0	592	1	4	0	96	75	0	0	100
fixed	3	7	4	437145	2	1	1	1	0	656	1	4	0	72	76	0	0	100
fixed	3	7	5	438479	5	3	3	1	0	840	1	4	0	88	77	0	0	100
fixed	3	7	6	440105	6	4	4	1	0	611	1	4	0	96	78	0	0	100
fixed	3	7	7	441608	3	1	1	2	0	1603	2	4	0	72	79	0	0	100
fixed	3	7	8	443862	2	3	3	1	0	780	1	4	0	88	80	0	0	100
fixed	3	7	9	445318	3	2	2	1	0	750	1	4	0	80	81	0	0	100
fixed	3	7	10	446941	1	4	4	1	0	729	1	4	0	96	82	0	0	100
fixed	3	7	11	448187	5	2	2	1	0	828	1	4	0	80	83	0	0	100
fixed	3	7	12	449406	4	3	3	1	0	497	1	4	0	88	84	0	0	100
fixed	3	8	1	450628	4	1	1	1	0	669	1	4	0	72	85	0	0	100
fixed	3	8	2	452255	1	2	2	1	0	784	1	4	0	80	86	0	0	100
fixed	3	8	3	453710	6	4	4	1	0	595	1	4	0	96	87	0	0	100
fixed	3	8	4	455121	2	1	1	1	0	559	1	4	0	72	88	0	0	100
fixed	3	8	5	456571	5	3	3	1	0	834	1	4	0	88	89	0	0	100
fixed	3	8	6	458359	6	4	4	1	0	638	1	4	0	96	90	0	0	100
fixed	3	8	7	459804	3	1	1	1	0	449	1	4	0	72	91	0	0	100
fixed	3	8	8	461129	2	3	3	1	0	817	1	4	0	88	92	0	0	100
fixed	3	8	9	462570	3	2	2	1	0	484	1	4	0	80	93	0	0	100
fixed	3	8	10	463443	1	4	4	1	0	582	1	4	0	96	94	0	0	100
fixed	3	8	11	464460	5	2	2	1	0	675	1	4	0	80	95	0	0	100
fixed	3	8	12	465533	4	3	3	1	0	598	1	4	0	88	96	0	0	100
fixed	3	9	1	466700	4	1	1	1	0	716	1	4	0	72	97	0	0	100
fixed	3	9	2	467786	1	2	2	1	0	686	1	4	0	80	98	0	0	100
fixed	3	9	3	469387	6	4	4	1	0	611	1	4	0	96	99	0	0	100
fixed	3	9	4	470669	2	1	1	1	0	581	1	4	0	72	100	0	0	100
fixed	3	9	5	471712	5	3	3	1	0	592	1	4	0	88	101	0	0	100
fixed	3	9	6	473048	6	4	4	1	0	623	1	4	0	96	102	0	0	100
fixed	3	9	7	474508	3	1	1	1	0	602	1	4	0	72	103	0	0	100
fixed	3	9	8	475506	2	3	3	1	0	799	1	4	0	88	104	0	0	100
fixed	3	9	9	476732	3	2	2	1	0	596	1	4	0	80	105	0	0	100
fixed	3	9	10	477978	1	4	4	1	0	695	1	4	0	96	106	0	0	100
fixed	3	9	11	478971	5	2	2	1	0	845	1	4	0	80	107	0	0	100
fixed	3	9	12	480780	4	3	3	1	0	768	1	4	0	88	108	0	0	100
fixed	3	10	1	482272	4	1	1	1	0	641	1	4	0	72	109	0	0	100
fixed	3	10	2	483215	1	2	2	1	0	825	1	4	0	80	110	0	0	100
fixed	3	10	3	484986	6	4	4	1	0	630	1	4	0	96	111	0	0	100
fixed	3	10	4	486437	2	1	1	1	0	529	1	4	0	72	112	0	0	100
fixed	3	10	5	487716	5	3	3	1	0	730	1	4	0	88	113	0	0	100
fixed	3	10	6	489319	6	4	4	1	0	655	1	4	0	96	114	0	0	100
fixed	3	10	7	490545	3	1	1	1	0	626	1	4	0	72	115	0	0	100
fixed	3	10	8	491675	2	3	3	1	0	787	1	4	0	88	116	0	0	100
fixed	3	10	9	493016	3	2	2	1	0	570	1	4	0	80	117	0	0	100
fixed	3	10	10	494438	1	4	4	1	0	678	1	4	0	96	118	0	0	100
fixed	3	10	11	495812	5	2	2	1	0	660	1	4	0	80	119	0	0	100
fixed	3	10	12	497380	4	3	3	1	0	553	1	4	0	88	120	0	0	100
fixed	4	1	1	604135	4	1	1	1	0	967	1	4	0	104	1	0	0	100
fixed	4	1	2	605782	1	2	2	1	0	1082	1	4	0	112	2	0	0	100
fixed	4	1	3	607648	6	4	4	1	0	602	1	4	0	128	3	0	0	100
fixed	4	1	4	609110	2	1	1	1	0	693	1	4	0	104	4	0	0	100
fixed	4	1	5	610597	5	3	3	1	0	718	1	4	0	120	5	0	0	100
fixed	4	1	6	611819	6	4	4	1	0	858	1	4	0	128	6	0	0	100
fixed	4	1	7	613644	3	1	1	1	0	668	1	4	0	104	7	0	0	100
fixed	4	1	8	615174	2	3	3	1	0	812	1	4	0	120	8	0	0	100
fixed	4	1	9	616342	3	2	2	1	0	690	1	4	0	112	9	0	0	100
fixed	4	1	10	617504	1	4	4	1	0	537	1	4	0	128	10	0	0	100
fixed	4	1	11	618410	5	2	2	1	0	843	1	4	0	112	11	0	0	100
fixed	4	1	12	619591	4	3	3	1	0	544	1	4	0	120	12	0	0	100
fixed	4	2	1	620895	4	1	1	1	0	761	1	4	0	104	13	0	0	100
fixed	4	2	2	622168	1	2	2	1	0	811	1	4	0	112	14	0	0	100
fixed	4	2	3	623584	6	4	4	1	0	631	1	4	0	128	15	0	0	100
fixed	4	2	4	625053	2	1	1	1	0	537	1	4	0	104	16	0	0	100
fixed	4	2	5	626305	5	3	3	1	0	421	1	4	0	120	17	0	0	100
fixed	4	2	6	627154	6	4	4	1	0	649	1	4	0	128	18	0	0	100
fixed	4	2	7	628407	3	1	1	1	0	611	1	4	0	104	19	0	0	100
fixed	4	2	8	629419	2	3	3	1	0	808	1	4	0	120	20	0	0	100
fixed	4	2	9	631021	3	2	2	1	0	644	1	4	0	112	21	0	0	100
fixed	4	2	10	632693	1	4	4	1	0	734	1	4	0	128	22	0	0	100
fixed	4	2	11	634073	5	2	2	1	0	668	1	4	0	112	23	0	0	100
fixed	4	2	12	635616	4	3	3	1	0	570	1	4	0	120	24	0	0	100
fixed	4	3	1	636868	4	1	1	1	0	741	1	4	0	104	25	0	0	100
fixed	4	3	2	638653	1	2	2	1	0	681	1	4	0	112	26	0	0	100
fixed	4	3	3	640007	6	4	4	1	0	632	1	4	0	128	27	0	0	100
fixed	4	3	4	641476	2	1	1	1	0	618	1	4	0	104	28	0	0	100
fixed	4	3	5	642532	5	3	3	1	0	653	1	4	0	120	29	0	0	100
fixed	4	3	6	644125	6	4	4	1	0	722	1	4	0	128	30	0	0	100
fixed	4	3	7	645269	3	1	1	1	0	553	1	4	0	104	31	0	0	100
fixed	4	3	8	646657	2	3	3	1	0	910	1	4	0	120	32	0	0	100
fixed	4	3	9	648538	3	2	2	1	0	599	1	4	0	112	33	0	0	100
fixed	4	3	10	649651	1	4	4	1	0	591	1	4	0	128	34	0	0	100
fixed	4	3	11	651092	5	2	2	1	0	658	1	4	0	112	35	0	0	100
fixed	4	3	12	652607	4	3	3	1	0	586	1	4	0	120	36	0	0	100
fixed	4	4	1	654027	4	1	1	1	0	822	1	4	0	104	37	0	0	100
fixed	4	4	2	655866	1	2	2	1	0	672	1	4	0	112	38	0	0	100
fixed	4	4	3	657318	6	4	4	1	0	634	1	4	0	128	39	0	0	100
fixed	4	4	4	658419	2	1	1	1	0	700	1	4	0	104	40	0	0	100
fixed	4	4	5	659509	5	3	3	1	0	806	1	4	0	120	41	0	0	100
fixed	4	4	6	660987	6	4	4	1	0	655	1	4	0	128	42	0	0	100
fixed	4	4	7	662274	3	1	1	1	0	657	1	4	0	104	43	0	0	100
fixed	4	4	8	663259	2	3	3	1	0	1087	1	4	0	120	44	0	0	100
fixed	4	4	9	665141	3	2	2	1	0	607	1	4	0	112	45	0	0	100
fixed	4	4	10	666172	1	4	4	1	0	603	1	4	0	128	46	0	0	100
fixed	4	4	11	667230	5	2	2	1	0	767	1	4	0	112	47	0	0	100
fixed	4	4	12	668835	4	3	3	1	0	635	1	4	0	120	48	0	0	100
fixed	4	5	1	670601	4	1	1	1	0	664	1	4	0	104	49	0	0	100
fixed	4	5	2	671650	1	2	2	1	0	972	1	4	0	112	50	0	0	100
fixed	4	5	3	672950	6	4	4	1	0	597	1	4	0	128	51	0	0	100
fixed	4	5	4	674543	2	1	1	1	0	825	1	4	0	104	52	0	0	100
fixed	4	5	5	676130	5	3	3	1	0	742	1	4	0	120	53	0	0	100
fixed	4	5	6	677181	6	4	4	1	0	657	1	4	0	128	54	0	0	100
fixed	4	5	7	678382	3	1	1	1	0	615	1	4	0	104	55	0	0	100
fixed	4	5	8	679541	2	3	3	1	0	733	1	4	0	120	56	0	0	100
fixed	4	5	9	680819	3	2	2	2	0	1016	2	4	0	112	57	0	0	100
fixed	4	5	10	682344	1	4	4	1	0	662	1	4	0	128	58	0	0	100
fixed	4	5	11	683562	5	2	2	1	0	731	1	4	0	112	59	0	0	100
fixed	4	5	12	684681	4	3	3	1	0	740	1	4	0	120	60	0	0	100
fixed	4	6	1	686490	4	1	1	1	0	655	1	4	0	104	61	0	0	100
fixed	4	6	2	688179	1	2	2	1	0	743	1	4	0	112	62	0	0	100
fixed	4	6	3	689818	6	4	4	1	0	602	1	4	0	128	63	0	0	100
fixed	4	6	4	691267	2	1	1	1	0	541	1	4	0	104	64	0	0	100
fixed	4	6	5	692510	5	3	3	1	0	352	1	4	0	120	65	0	0	100
fixed	4	6	6	693189	6	4	4	1	0	835	1	4	0	128	66	0	0	100
fixed	4	6	7	694863	3	1	1	1	0	804	1	4	0	104	67	0	0	100
fixed	4	6	8	696008	2	3	3	1	0	812	1	4	0	120	68	0	0	100
fixed	4	6	9	697223	3	2	2	1	0	697	1	4	0	112	69	0	0	100
fixed	4	6	10	698806	1	4	4	1	0	645	1	4	0	128	70	0	0	100
fixed	4	6	11	700133	5	2	2	1	0	653	1	4	0	112	71	0	0	100
fixed	4	6	12	701672	4	3	3	1	0	676	1	4	0	120	72	0	0	100
fixed	4	7	1	703348	4	1	1	1	0	669	1	4	0	104	73	0	0	100
fixed	4	7	2	704329	1	2	2	2	0	1244	2	4	0	112	74	0	0	100
fixed	4	7	3	706593	6	4	4	1	0	652	1	4	0	128	75	0	0	100
fixed	4	7	4	708184	2	1	1	1	0	800	1	4	0	104	76	0	0	100
fixed	4	7	5	709270	5	3	3	1	0	770	1	4	0	120	77	0	0	100
fixed	4	7	6	710703	6	4	4	1	0	661	1	4	0	128	78	0	0	100
fixed	4	7	7	711814	3	1	1	1	0	791	1	4	0	104	79	0	0	100
fixed	4	7	8	713569	2	3	3	1	0	876	1	4	0	120	80	0	0	100
fixed	4	7	9	715143	3	2	2	1	0	601	1	4	0	112	81	0	0	100
fixed	4	7	10	716467	1	4	4	1	0	601	1	4	0	128	82	0	0	100
fixed	4	7	11	717462	5	2	2	1	0	752	1	4	0	112	83	0	0	100
fixed	4	7	12	718736	4	3	3	1	0	641	1	4	0	120	84	0	0	100
fixed	4	8	1	720657	4	1	1	1	0	672	1	4	0	104	85	0	0	100
fixed	4	8	2	721919	1	2	2	1	0	763	1	4	0	112	86	0	0	100
fixed	4	8	3	723550	6	4	4	1	0	637	1	4	0	128	87	0	0	100
fixed	4	8	4	724585	2	1	1	1	0	577	1	4	0	104	88	0	0	100
fixed	4	8	5	725786	5	3	3	1	0	686	1	4	0	120	89	0	0	100
fixed	4	8	6	727196	6	4	4	1	0	659	1	4	0	128	90	0	0	100
fixed	4	8	7	728857	3	1	1	1	0	685	1	4	0	104	91	0	0	100
fixed	4	8	8	730552	2	3	3	1	0	765	1	4	0	120	92	0	0	100
fixed	4	8	9	731666	3	2	2	1	0	661	1	4	0	112	93	0	0	100
fixed	4	8	10	732664	1	4	4	1	0	692	1	4	0	128	94	0	0	100
fixed	4	8	11	733880	5	2	2	1	0	904	1	4	0	112	95	0	0	100
fixed	4	8	12	735337	4	3	3	1	0	562	1	4	0	120	96	0	0	100
fixed	4	9	1	737064	4	1	1	1	0	553	1	4	0	104	97	0	0	100
fixed	4	9	2	738355	1	2	2	1	0	722	1	4	0	112	98	0	0	100
fixed	4	9	3	739574	6	4	4	1	0	655	1	4	0	128	99	0	0	100
fixed	4	9	4	740754	2	1	1	1	0	604	1	4	0	104	100	0	0	100
fixed	4	9	5	742196	5	3	3	1	0	648	1	4	0	120	101	0	0	100
fixed	4	9	6	743495	6	4	4	1	0	616	1	4	0	128	102	0	0	100
fixed	4	9	7	744655	3	1	1	1	0	631	1	4	0	104	103	0	0	100
fixed	4	9	8	746268	2	3	3	1	0	923	1	4	0	120	104	0	0	100
fixed	4	9	9	747987	3	2	2	1	0	579	1	4	0	112	105	0	0	100
fixed	4	9	10	748966	1	4	4	1	0	673	1	4	0	128	106	0	0	100
fixed	4	9	11	750589	5	2	2	1	0	756	1	4	0	112	107	0	0	100
fixed	4	9	12	752242	4	3	3	1	0	614	1	4	0	120	108	0	0	100
fixed	4	10	1	754089	4	1	1	1	0	952	1	4	0	104	109	0	0	100
fixed	4	10	2	755951	1	2	2	1	0	697	1	4	0	112	110	0	0	100
fixed	4	10	3	756981	6	4	4	1	0	613	1	4	0	128	111	0	0	100
fixed	4	10	4	758526	2	1	1	1	0	596	1	4	0	104	112	0	0	100
fixed	4	10	5	759698	5	3	3	1	0	683	1	4	0	120	113	0	0	100
fixed	4	10	6	761111	6	4	4	1	0	702	1	4	0	128	114	0	0	100
fixed	4	10	7	762756	3	1	1	1	0	689	1	4	0	104	115	0	0	100
fixed	4	10	8	764472	2	3	3	1	0	800	1	4	0	120	116	0	0	100
fixed	4	10	9	766075	3	2	2	1	0	636	1	4	0	112	117	0	0	100
fixed	4	10	10	767059	1	4	4	1	0	675	1	4	0	128	118	0	0	100
fixed	4	10	11	768759	5	2	2	1	0	722	1	4	0	112	119	0	0	100
fixed	4	10	12	769928	4	3	3	1	0	601	1	4	0	120	120	0	0	100
fixed	5	1	1	771613	4	1	1	1	0	833	1	4	0	136	1	0	0	100
fixed	5	1	2	773158	1	2	2	1	0	688	1	4	0	144	2	0	0	100
fixed	5	1	3	774531	6	4	4	1	0	598	1	4	0	160	3	0	0	100
fixed	5	1	4	775589	2	1	1	1	0	617	1	4	0	136	4	0	0	100
fixed	5	1	5	776899	5	3	3	1	0	698	1	4	0	152	5	0	0	100
fixed	5	1	6	778616	6	4	4	1	0	649	1	4	0	160	6	0	0	100
fixed	5	1	7	780006	3	1	1	1	0	638	1	4	0	136	7	0	0	100
fixed	5	1	8	781199	2	3	3	1	0	868	1	4	0	152	8	0	0	100
fixed	5	1	9	782918	3	2	2	1	0	707	1	4	0	144	9	0	0	100
fixed	5	1	10	784335	1	4	4	1	0	567	1	4	0	160	10	0	0	100
fixed	5	1	11	785662	5	2	2	1	0	719	1	4	0	144	11	0	0	100
fixed	5	1	12	786712	4	3	3	1	0	1618	1	4	0	152	12	0	0	100
fixed	5	2	1	788908	4	1	1	1	0	773	1	4	0	136	13	0	0	100
fixed	5	2	2	790009	1	2	2	1	0	974	1	4	0	144	14	0	0	100
fixed	5	2	3	792009	6	4	4	1	0	618	1	4	0	160	15	0	0	100
fixed	5	2	4	793016	2	1	1	1	0	591	1	4	0	136	16	0	0	100
fixed	5	2	5	794626	5	3	3	1	0	699	1	4	0	152	17	0	0	100
fixed	5	2	6	796222	6	4	4	1	0	656	1	4	0	160	18	0	0	100
fixed	5	2	7	797780	3	1	1	1	0	605	1	4	0	136	19	0	0	100
fixed	5	2	8	798960	2	3	3	1	0	788	1	4	0	152	20	0	0	100
fixed	5	2	9	800402	3	2	2	1	0	590	1	4	0	144	21	0	0	100
fixed	5	2	10	801901	1	4	4	1	0	631	1	4	0	160	22	0	0	100
fixed	5	2	11	803323	5	2	2	1	0	754	1	4	0	144	23	0	0	100
fixed	5	2	12	804936	4	3	3	1	0	806	1	4	0	152	24	0	0	100
fixed	5	3	1	806468	4	1	1	1	0	733	1	4	0	136	25	0	0	100
fixed	5	3	2	807993	1	2	2	1	0	677	1	4	0	144	26	0	0	100
fixed	5	3	3	809158	6	4	4	1	0	667	1	4	0	160	27	0	0	100
fixed	5	3	4	810599	2	1	1	1	0	566	1	4	0	136	28	0	0	100
fixed	5	3	5	811926	5	3	3	1	0	678	1	4	0	152	29	0	0	100
fixed	5	3	6	813006	6	4	4	1	0	672	1	4	0	160	30	0	0	100
fixed	5	3	7	814373	3	1	1	1	0	462	1	4	0	136	31	0	0	100
fixed	5	3	8	815468	2	3	3	1	0	720	1	4	0	152	32	0	0	100
fixed	5	3	9	817064	3	2	2	1	0	541	1	4	0	144	33	0	0	100
fixed	5	3	10	818475	1	4	4	1	0	649	1	4	0	160	34	0	0	100
fixed	5	3	11	819602	5	2	2	1	0	697	1	4	0	144	35	0	0	100
fixed	5	3	12	820803	4	3	3	1	0	654	1	4	0	152	36	0	0	100
fixed	5	4	1	822039	4	1	1	1	0	682	1	4	0	136	37	0	0	100
fixed	5	4	2	823404	1	2	2	1	0	776	1	4	0	144	38	0	0	100
fixed	5	4	3	824631	6	4	4	1	0	548	1	4	0	160	39	0	0	100
fixed	5	4	4	826020	2	1	1	1	0	617	1	4	0	136	40	0	0	100
fixed	5	4	5	826934	5	3	3	1	0	690	1	4	0	152	41	0	0	100
fixed	5	4	6	828062	6	4	4	1	0	563	1	4	0	160	42	0	0	100
fixed	5	4	7	828912	3	1	1	1	0	607	1	4	0	136	43	0	0	100
fixed	5	4	8	830387	2	3	3	1	0	736	1	4	0	152	44	0	0	100
fixed	5	4	9	831414	3	2	2	1	0	741	1	4	0	144	45	0	0	100
fixed	5	4	10	832608	1	4	4	1	0	754	1	4	0	160	46	0	0	100
fixed	5	4	11	834156	5	2	2	2	0	801	2	4	0	144	47	0	0	100
fixed	5	4	12	835532	4	3	3	1	0	846	1	4	0	152	48	0	0	100
fixed	5	5	1	837327	4	1	1	1	0	778	1	4	0	136	49	0	0	100
fixed	5	5	2	839139	1	2	2	1	0	686	1	4	0	144	50	0	0	100
fixed	5	5	3	840345	6	4	4	1	0	563	1	4	0	160	51	0	0	100
fixed	5	5	4	841764	2	1	1	1	0	751	1	4	0	136	52	0	0	100
fixed	5	5	5	843384	5	3	3	1	0	946	1	4	0	152	53	0	0	100
fixed	5	5	6	844692	6	4	4	1	0	746	1	4	0	160	54	0	0	100
fixed	5	5	7	846349	3	1	1	1	0	876	1	4	0	136	55	0	0	100
fixed	5	5	8	847703	2	3	3	1	0	843	1	4	0	152	56	0	0	100
fixed	5	5	9	849254	3	2	2	1	0	601	1	4	0	144	57	0	0	100
fixed	5	5	10	850417	1	4	4	1	0	552	1	4	0	160	58	0	0	100
fixed	5	5	11	851791	5	2	2	1	0	758	1	4	0	144	59	0	0	100
fixed	5	5	12	853286	4	3	3	1	0	614	1	4	0	152	60	0	0	100
fixed	5	6	1	854937	4	1	1	1	0	736	1	4	0	136	61	0	0	100
fixed	5	6	2	856063	1	2	2	1	0	817	1	4	0	144	62	0	0	100
fixed	5	6	3	857737	6	4	4	1	0	586	1	4	0	160	63	0	0	100
fixed	5	6	4	859027	2	1	1	1	0	579	1	4	0	136	64	0	0	100
fixed	5	6	5	860010	5	3	3	1	0	698	1	4	0	152	65	0	0	100
fixed	5	6	6	861735	6	4	4	1	0	640	1	4	0	160	66	0	0	100
fixed	5	6	7	863214	3	1	1	1	0	514	1	4	0	136	67	0	0	100
fixed	5	6	8	864443	2	3	3	1	0	750	1	4	0	152	68	0	0	100
fixed	5	6	9	866201	3	2	2	1	0	619	1	4	0	144	69	0	0	100
fixed	5	6	10	867473	1	4	4	1	0	645	1	4	0	160	70	0	0	100
fixed	5	6	11	868420	5	2	2	1	0	861	1	4	0	144	71	0	0	100
fixed	5	6	12	869756	4	3	3	1	0	604	1	4	0	152	72	0	0	100
fixed	5	7	1	870942	4	1	1	1	0	618	1	4	0	136	73	0	0	100
fixed	5	7	2	871970	1	2	2	1	0	847	1	4	0	144	74	0	0	100
fixed	5	7	3	873143	6	4	4	1	0	590	1	4	0	160	75	0	0	100
fixed	5	7	4	874347	2	1	1	1	0	587	1	4	0	136	76	0	0	100
fixed	5	7	5	875516	5	3	3	1	0	721	1	4	0	152	77	0	0	100
fixed	5	7	6	876642	6	4	4	1	0	641	1	4	0	160	78	0	0	100
fixed	5	7	7	877653	3	1	1	1	0	654	1	4	0	136	79	0	0	100
fixed	5	7	8	879123	2	3	3	1	0	760	1	4	0	152	80	0	0	100
fixed	5	7	9	880462	3	2	2	1	0	696	1	4	0	144	81	0	0	100
fixed	5	7	10	881489	1	4	4	1	0	756	1	4	0	160	82	0	0	100
fixed	5	7	11	883252	5	2	2	1	0	777	1	4	0	144	83	0	0	100
fixed	5	7	12	884973	4	3	3	1	0	689	1	4	0	152	84	0	0	100
fixed	5	8	1	886731	4	1	1	1	0	789	1	4	0	136	85	0	0	100
fixed	5	8	2	888506	1	2	2	1	0	642	1	4	0	144	86	0	0	100
fixed	5	8	3	889686	6	4	4	1	0	560	1	4	0	160	87	0	0	100
fixed	5	8	4	890578	2	1	1	1	0	771	1	4	0	136	88	0	0	100
fixed	5	8	5	892019	5	3	3	1	0	662	1	4	0	152	89	0	0	100
fixed	5	8	6	893552	6	4	4	1	0	605	1	4	0	160	90	0	0	100
fixed	5	8	7	894597	3	1	1	1	0	617	1	4	0	136	91	0	0	100
fixed	5	8	8	895565	2	3	3	1	0	824	1	4	0	152	92	0	0	100
fixed	5	8	9	897187	3	2	2	1	0	674	1	4	0	144	93	0	0	100
fixed	5	8	10	898784	1	4	4	1	0	647	1	4	0	160	94	0	0	100
fixed	5	8	11	899755	5	2	2	1	0	766	1	4	0	144	95	0	0	100
fixed	5	8	12	901336	4	3	3	1	0	683	1	4	0	152	96	0	0	100
fixed	5	9	1	902971	4	1	1	1	0	686	1	4	0	136	97	0	0	100
fixed	5	9	2	904707	1	2	2	1	0	812	1	4	0	144	98	0	0	100
fixed	5	9	3	906183	6	4	4	1	0	574	1	4	0	160	99	0	0	100
fixed	5	9	4	907549	2	1	1	1	0	540	1	4	0	136	100	0	0	100
fixed	5	9	5	908570	5	3	3	1	0	689	1	4	0	152	101	0	0	100
fixed	5	9	6	909875	6	4	4	1	0	625	1	4	0	160	102	0	0	100
fixed	5	9	7	911189	3	1	1	1	0	577	1	4	0	136	103	0	0	100
fixed	5	9	8	912420	2	3	3	1	0	758	1	4	0	152	104	0	0	100
fixed	5	9	9	913500	3	2	2	1	0	744	1	4	0	144	105	0	0	100
fixed	5	9	10	914752	1	4	4	1	0	547	1	4	0	160	106	0	0	100
fixed	5	9	11	915881	5	2	2	1	0	707	1	4	0	144	107	0	0	100
fixed	5	9	12	917606	4	3	3	2	0	1090	2	4	0	152	108	0	0	100
fixed	5	10	1	919428	4	1	1	1	0	741	1	4	0	136	109	0	0	100
fixed	5	10	2	921123	1	2	2	1	0	733	1	4	0	144	110	0	0	100
fixed	5	10	3	922666	6	4	4	1	0	668	1	4	0	160	111	0	0	100
fixed	5	10	4	923993	2	1	1	1	0	579	1	4	0	136	112	0	0	100
fixed	5	10	5	925149	5	3	3	1	0	635	1	4	0	152	113	0	0	100
fixed	5	10	6	926115	6	4	4	1	0	634	1	4	0	160	114	0	0	100
fixed	5	10	7	927128	3	1	1	1	0	582	1	4	0	136	115	0	0	100
fixed	5	10	8	928710	2	3	3	1	0	684	1	4	0	152	116	0	0	100
fixed	5	10	9	930412	3	2	2	1	0	716	1	4	0	144	117	0	0	100
fixed	5	10	10	931572	1	4	4	1	0	634	1	4	0	160	118	0	0	100
fixed	5	10	11	932844	5	2	2	1	0	684	1	4	0	144	119	0	0	100
fixed	5	10	12	934051	4	3	3	1	0	673	1	4	0	152	120	0	0	100
random	6	1	1	1069628	6	1	1	1	0	1067	1	4	0	168	1	0	0	100
random	6	1	2	1071341	4	4	4	1	0	723	1	4	0	192	2	0	0	100
random	6	1	3	1072993	2	2	2	1	0	773	1	4	0	176	3	0	0	100
random	6	1	4	1074178	3	3	3	1	0	482	1	4	0	184	4	0	0	100
random	6	1	5	1075015	5	2	2	1	0	839	1	4	0	176	5	0	0	100
random	6	1	6	1076289	1	4	4	1	0	497	1	4	0	192	6	0	0	100
random	6	1	7	1077486	6	1	1	1	0	462	1	4	0	168	7	0	0	100
random	6	1	8	1078468	2	3	3	1	0	684	1	4	0	184	8	0	0	100
random	6	1	9	1079636	4	2	2	1	0	499	1	4	0	176	9	0	0	100
random	6	1	10	1080797	1	1	1	1	0	962	1	4	0	168	10	0	0	100
random	6	1	11	1082701	5	4	4	1	0	633	1	4	0	192	11	0	0	100
random	6	1	12	1084245	3	3	3	1	0	848	1	4	0	184	12	0	0	100
random	6	1	13	1085953	5	2	2	1	0	999	1	4	0	176	13	0	0	100
random	6	1	14	1087435	1	4	4	1	0	769	1	4	0	192	14	0	0	100
random	6	1	15	1089013	3	1	1	1	0	582	1	4	0	168	15	0	0	100
random	6	1	16	1090469	4	3	3	1	0	864	1	4	0	184	16	0	0	100
random	6	1	17	1092159	6	4	4	1	0	649	1	4	0	192	17	0	0	100
random	6	1	18	1093440	2	1	1	1	0	483	1	4	0	168	18	0	0	100
random	6	1	19	1094518	5	3	3	1	0	781	1	4	0	184	19	0	0	100
random	6	1	20	1095860	2	2	2	1	0	660	1	4	0	176	20	0	0	100
random	6	1	21	1097303	3	3	3	1	0	743	1	4	0	184	21	0	0	100
random	6	1	22	1098857	6	1	1	2	0	1205	2	4	0	168	22	0	0	100
random	6	1	23	1100762	4	2	2	2	0	740	2	4	0	176	23	0	0	100
random	6	1	24	1102116	1	4	4	1	0	579	1	4	0	192	24	0	0	100
random	6	1	25	1103496	4	3	3	1	0	912	1	4	0	184	25	0	0	100
random	6	1	26	1105159	2	1	1	1	0	682	1	4	0	168	26	0	0	100
random	6	1	27	1106806	5	2	2	1	0	708	1	4	0	176	27	0	0	100
random	6	1	28	1108104	6	4	4	1	0	734	1	4	0	192	28	0	0	100
random	6	1	29	1109724	1	3	3	1	0	817	1	4	0	184	29	0	0	100
random	6	1	30	1111336	5	2	2	1	0	668	1	4	0	176	30	0	0	100
random	6	1	31	1113022	2	1	1	1	0	773	1	4	0	168	31	0	0	100
random	6	1	32	1114305	3	3	3	2	0	894	2	4	0	184	32	0	0	100
random	6	1	33	1115826	6	4	4	1	0	670	1	4	0	192	33	0	0	100
random	6	1	34	1117371	4	2	2	1	0	749	1	4	0	176	34	0	0	100
random	6	1	35	1119015	3	4	4	1	0	687	1	4	0	192	35	0	0	100
random	6	1	36	1120627	1	1	1	1	0	667	1	4	0	168	36	0	0	100
random	6	1	37	1121875	3	4	4	1	0	1054	1	4	0	192	37	0	0	100
random	6	1	38	1123542	5	3	3	1	0	848	1	4	0	184	38	0	0	100
random	6	1	39	1125066	6	1	1	1	0	791	1	4	0	168	39	0	0	100
random	6	1	40	1126586	1	2	2	1	0	750	1	4	0	176	40	0	0	100
random	6	1	41	1127643	2	3	3	1	0	818	1	4	0	184	41	0	0	100
random	6	1	42	1129315	4	4	4	1	0	683	1	4	0	192	42	0	0	100
random	6	1	43	1130675	1	2	2	1	0	786	1	4	0	176	43	0	0	100
random	6	1	44	1131831	6	3	3	1	0	616	1	4	0	184	44	0	0	100
random	6	1	45	1133202	3	1	1	1	0	798	1	4	0	168	45	0	0	100
random	6	1	46	1134447	4	4	4	1	0	618	1	4	0	192	46	0	0	100
random	6	1	47	1135538	2	2	2	1	0	780	1	4	0	176	47	0	0	100
random	6	1	48	1136693	5	1	1	1	0	730	1	4	0	168	48	0	0	100
random	6	1	49	1138165	2	3	3	1	0	964	1	4	0	184	49	0	0	100
random	6	1	50	1140038	3	1	1	1	0	797	1	4	0	168	50	0	0	100
random	6	1	51	1141210	1	4	4	1	0	659	1	4	0	192	51	0	0	100
random	6	1	52	1142606	5	3	3	1	0	760	1	4	0	184	52	0	0	100
random	6	1	53	1144276	3	2	2	1	0	610	1	4	0	176	53	0	0	100
random	6	1	54	1145365	6	4	4	1	0	683	1	4	0	192	54	0	0	100
random	6	1	55	1146644	4	2	2	1	0	925	1	4	0	176	55	0	0	100
random	6	1	56	1148098	1	1	1	1	0	743	1	4	0	168	56	0	0	100
random	6	1	57	1149555	5	4	4	1	0	634	1	4	0	192	57	0	0	100
random	6	1	58	1150601	2	1	1	1	0	733	1	4	0	168	58	0	0	100
random	6	1	59	1151849	6	2	2	1	0	792	1	4	0	176	59	0	0	100
random	6	1	60	1152979	4	3	3	1	0	601	1	4	0	184	60	0	0	100
random	6	1	61	1154739	1	2	2	1	0	934	1	4	0	176	61	0	0	100
random	6	1	62	1156156	6	4	4	1	0	722	1	4	0	192	62	0	0	100
random	6	1	63	1157201	4	1	1	1	0	902	1	4	0	168	63	0	0	100
random	6	1	64	1158541	2	2	2	1	0	693	1	4	0	176	64	0	0	100
random	6	1	65	1159960	4	3	3	1	0	641	1	4	0	184	65	0	0	100
random	6	1	66	1160977	3	1	1	1	0	622	1	4	0	168	66	0	0	100
random	6	1	67	1162341	1	3	3	1	0	828	1	4	0	184	67	0	0	100
random	6	1	68	1163961	5	4	4	1	0	583	1	4	0	192	68	0	0	100
random	6	1	69	1165128	2	2	2	1	0	662	1	4	0	176	69	0	0	100
random	6	1	70	1166142	3	1	1	1	0	747	1	4	0	168	70	0	0	100
random	6	1	71	1167287	5	4	4	1	0	698	1	4	0	192	71	0	0	100
random	6	1	72	1168370	6	3	3	2	0	1164	2	4	0	184	72	0	0	100
random	6	1	73	1170093	2	1	1	1	0	876	1	4	0	168	73	0	0	100
random	6	1	74	1171424	5	3	3	1	0	804	1	4	0	184	74	0	0	100
random	6	1	75	1173061	1	4	4	1	0	638	1	4	0	192	75	0	0	100
random	6	1	76	1174657	6	2	2	1	0	738	1	4	0	176	76	0	0	100
random	6	1	77	1175977	2	1	1	1	0	730	1	4	0	168	77	0	0	100
random	6	1	78	1177651	4	4	4	1	0	716	1	4	0	192	78	0	0	100
random	6	1	79	1178859	3	2	2	1	0	689	1	4	0	176	79	0	0	100
random	6	1	80	1180354	4	3	3	1	0	761	1	4	0	184	80	0	0	100
random	6	1	81	1181487	1	4	4	1	0	665	1	4	0	192	81	0	0	100
random	6	1	82	1183190	5	1	1	1	0	617	1	4	0	168	82	0	0	100
random	6	1	83	1184748	3	2	2	1	0	719	1	4	0	176	83	0	0	100
random	6	1	84	1185863	6	3	3	1	0	656	1	4	0	184	84	0	0	100
random	6	1	85	1187703	3	2	2	1	0	810	1	4	0	176	85	0	0	100
random	6	1	86	1188911	1	3	3	1	0	695	1	4	0	184	86	0	0	100
random	6	1	87	1189935	4	4	4	1	0	700	1	4	0	192	87	0	0	100
random	6	1	88	1191447	2	1	1	1	0	619	1	4	0	168	88	0	0	100
random	6	1	89	1192489	6	4	4	1	0	823	1	4	0	192	89	0	0	100
random	6	1	90	1193766	3	3	3	1	0	873	1	4	0	184	90	0	0	100
random	6	1	91	1195670	5	4	4	1	0	641	1	4	0	192	91	0	0	100
random	6	1	92	1196927	1	2	2	1	0	651	1	4	0	176	92	0	0	100
random	6	1	93	1198432	5	1	1	1	0	747	1	4	0	168	93	0	0	100
random	6	1	94	1199589	4	3	3	1	0	987	1	4	0	184	94	0	0	100
random	6	1	95	1201420	6	1	1	1	0	853	1	4	0	168	95	0	0	100
random	6	1	96	1202808	2	2	2	1	0	754	1	4	0	176	96	0	0	100
random	6	1	97	1204578	4	3	3	1	0	879	1	4	0	184	97	0	0	100
random	6	1	98	1206398	3	2	2	1	0	642	1	4	0	176	98	0	0	100
random	6	1	99	1207624	6	3	3	1	0	726	1	4	0	184	99	0	0	100
random	6	1	100	1208728	1	4	4	1	0	743	1	4	0	192	100	0	0	100
random	6	1	101	1210366	4	1	1	1	0	818	1	4	0	168	101	0	0	100
random	6	1	102	1212104	5	2	2	1	0	760	1	4	0	176	102	0	0	100
random	6	1	103	1213523	2	4	4	1	0	660	1	4	0	192	103	0	0	100
random	6	1	104	1215206	3	1	1	1	0	733	1	4	0	168	104	0	0	100
random	6	1	105	1216717	1	3	3	1	0	717	1	4	0	184	105	0	0	100
random	6	1	106	1218183	2	2	2	1	0	623	1	4	0	176	106	0	0	100
random	6	1	107	1219157	5	4	4	1	0	574	1	4	0	192	107	0	0	100
random	6	1	108	1220023	6	1	1	1	0	649	1	4	0	168	108	0	0	100
random	6	1	109	1221770	5	4	4	1	0	911	1	4	0	192	109	0	0	100
random	6	1	110	1223588	6	3	3	1	0	850	1	4	0	184	110	0	0	100
random	6	1	111	1225004	2	2	2	1	0	486	1	4	0	176	111	0	0	100
random	6	1	112	1226368	3	1	1	1	0	772	1	4	0	168	112	0	0	100
random	6	1	113	1227892	1	2	2	1	0	660	1	4	0	176	113	0	0	100
random	6	1	114	1229552	2	3	3	1	0	654	1	4	0	184	114	0	0	100
random	6	1	115	1230532	3	1	1	1	0	668	1	4	0	168	115	0	0	100
random	6	1	116	1232214	4	4	4	1	0	628	1	4	0	192	116	0	0	100
random	6	1	117	1233517	6	1	1	1	0	901	1	4	0	168	117	0	0	100
random	6	1	118	1234857	5	3	3	1	0	725	1	4	0	184	118	0	0	100
random	6	1	119	1236030	1	4	4	1	0	739	1	4	0	192	119	0	0	100
random	6	1	120	1237428	4	2	2	1	0	672	1	4	0	176	120	0	0	100
fixed	7	1	1	1238926	4	1	1	1	0	752	1	4	0	200	1	0	0	100
fixed	7	1	2	1240394	1	2	2	1	0	954	1	4	0	208	2	0	0	100
fixed	7	1	3	1241641	6	4	4	1	0	773	1	4	0	224	3	0	0	100
fixed	7	1	4	1243321	2	1	1	1	0	1206	1	4	0	200	4	0	0	100
fixed	7	1	5	1245159	5	3	3	1	0	1040	1	4	0	216	5	0	0	100
fixed	7	1	6	1246760	6	4	4	1	0	645	1	4	0	224	6	0	0	100
fixed	7	1	7	1248018	3	1	1	1	0	647	1	4	0	200	7	0	0	100
fixed	7	1	8	1249592	2	3	3	1	0	860	1	4	0	216	8	0	0	100
fixed	7	1	9	1250872	3	2	2	1	0	502	1	4	0	208	9	0	0	100
fixed	7	1	10	1251858	1	4	4	1	0	604	1	4	0	224	10	0	0	100
fixed	7	1	11	1253398	5	2	2	1	0	947	1	4	0	208	11	0	0	100
fixed	7	1	12	1255105	4	3	3	1	0	699	1	4	0	216	12	0	0	100
fixed	7	2	1	1256973	4	1	1	1	0	684	1	4	0	200	1	0	0	8
fixed	7	2	2	1258576	1	2	2	1	0	736	1	4	0	208	2	0	0	14
fixed	7	2	3	1259683	6	4	4	1	0	689	1	4	0	224	3	0	0	20
fixed	7	2	4	1261208	2	1	1	1	0	617	1	4	0	200	4	0	0	25
fixed	7	2	5	1262698	5	3	3	1	0	602	1	4	0	216	5	0	0	29
fixed	7	2	6	1263706	6	4	4	1	0	614	1	4	0	224	6	0	0	33
fixed	7	2	7	1264966	3	1	1	1	0	689	1	4	0	200	7	0	0	37
fixed	7	2	8	1266288	2	3	3	1	0	705	1	4	0	216	8	0	0	40
fixed	7	2	9	1267666	3	2	2	1	0	503	1	4	0	208	9	0	0	43
fixed	7	2	10	1269199	1	4	4	1	0	590	1	4	0	224	10	0	0	45
fixed	7	2	11	1270294	5	2	2	1	0	912	1	4	0	208	11	0	0	48
fixed	7	2	12	1271901	4	3	3	1	0	580	1	4	0	216	12	0	0	50
fixed	7	3	1	1273179	4	1	1	1	0	709	1	4	0	200	1	0	0	4
fixed	7	3	2	1274484	1	2	2	1	0	734	1	4	0	208	2	0	0	8
fixed	7	3	3	1275695	6	4	4	1	0	563	1	4	0	224	3	0	0	11
fixed	7	3	4	1277161	2	1	1	1	0	565	1	4	0	200	4	0	0	14
fixed	7	3	5	1278445	5	3	3	1	0	734	1	4	0	216	5	0	0	17
fixed	7	3	6	1279798	6	4	4	1	0	629	1	4	0	224	6	0	0	20
fixed	7	3	7	1280953	3	1	1	1	0	636	1	4	0	200	7	0	0	23
fixed	7	3	8	1282522	2	3	3	1	0	850	1	4	0	216	8	0	0	25
fixed	7	3	9	1283825	3	2	2	1	0	554	1	4	0	208	9	0	0	27
fixed	7	3	10	1284838	1	4	4	1	0	648	1	4	0	224	10	0	0	29
fixed	7	3	11	1286045	5	2	2	1	0	772	1	4	0	208	11	0	0	31
fixed	7	3	12	1287227	4	3	3	1	0	651	1	4	0	216	12	0	0	33
fixed	7	4	1	1289002	4	1	1	1	0	663	1	4	0	200	1	0	0	3
fixed	7	4	2	1290068	1	2	2	1	0	706	1	4	0	208	2	0	0	5
fixed	7	4	3	1291104	6	4	4	1	0	614	1	4	0	224	3	0	0	8
fixed	7	4	4	1292410	2	1	1	1	0	599	1	4	0	200	4	0	0	10
fixed	7	4	5	1293612	5	3	3	1	0	716	1	4	0	216	5	0	0	12
fixed	7	4	6	1294617	6	4	4	1	0	737	1	4	0	224	6	0	0	14
fixed	7	4	7	1295951	3	1	1	1	0	681	1	4	0	200	7	0	0	16
fixed	7	4	8	1297669	2	3	3	1	0	713	1	4	0	216	8	0	0	18
fixed	7	4	9	1298854	3	2	2	1	0	518	1	4	0	208	9	0	0	20
fixed	7	4	10	1299852	1	4	4	1	0	580	1	4	0	224	10	0	0	22
fixed	7	4	11	1300937	5	2	2	1	0	942	1	4	0	208	11	0	0	23
fixed	7	4	12	1302177	4	3	3	1	0	673	1	4	0	216	12	0	0	25
fixed	7	5	1	1303704	4	1	1	1	0	624	1	4	0	200	1	0	0	2
fixed	7	5	2	1304723	1	2	2	1	0	757	1	4	0	208	2	0	0	4
fixed	7	5	3	1306191	6	4	4	1	0	599	1	4	0	224	3	0	0	6
fixed	7	5	4	1307519	2	1	1	1	0	647	1	4	0	200	4	0	0	8
fixed	7	5	5	1308721	5	3	3	1	0	876	1	4	0	216	5	0	0	9
fixed	7	5	6	1310091	6	4	4	1	0	690	1	4	0	224	6	0	0	11
fixed	7	5	7	1311539	3	1	1	1	0	620	1	4	0	200	7	0	0	13
fixed	7	5	8	1312958	2	3	3	1	0	808	1	4	0	216	8	0	0	14
fixed	7	5	9	1314712	3	2	2	1	0	614	1	4	0	208	9	0	0	16
fixed	7	5	10	1316150	1	4	4	1	0	617	1	4	0	224	10	0	0	17
fixed	7	5	11	1317277	5	2	2	1	0	1274	1	4	0	208	11	0	0	19
fixed	7	5	12	1318934	4	3	3	1	0	908	1	4	0	216	12	0	0	20
fixed	7	6	1	1320863	4	1	1	1	0	762	1	4	0	200	1	0	0	2
fixed	7	6	2	1322332	1	2	2	1	0	779	1	4	0	208	2	0	0	3
fixed	7	6	3	1323723	6	4	4	1	0	609	1	4	0	224	3	0	0	5
fixed	7	6	4	1324893	2	1	1	1	0	671	1	4	0	200	4	0	0	6
fixed	7	6	5	1326074	5	3	3	1	0	693	1	4	0	216	5	0	0	8
fixed	7	6	6	1327662	6	4	4	1	0	674	1	4	0	224	6	0	0	9
fixed	7	6	7	1329318	3	1	1	1	0	691	1	4	0	200	7	0	0	10
fixed	7	6	8	1330461	2	3	3	1	0	659	1	4	0	216	8	0	0	12
fixed	7	6	9	1331789	3	2	2	2	0	1099	2	4	0	208	9	0	0	13
fixed	7	6	10	1333757	1	4	4	1	0	608	1	4	0	224	10	0	0	14
fixed	7	6	11	1334848	5	2	2	1	0	793	1	4	0	208	11	0	0	15
fixed	7	6	12	1336652	4	3	3	1	0	693	1	4	0	216	12	0	0	17
fixed	7	7	1	1338105	4	1	1	1	0	815	1	4	0	200	1	0	0	1
fixed	7	7	2	1339284	1	2	2	1	0	694	1	4	0	208	2	0	0	3
fixed	7	7	3	1340316	6	4	4	1	0	578	1	4	0	224	3	0	0	4
fixed	7	7	4	1341768	2	1	1	1	0	484	1	4	0	200	4	0	0	5
fixed	7	7	5	1343046	5	3	3	1	0	662	1	4	0	216	5	0	0	6
fixed	7	7	6	1344090	6	4	4	1	0	626	1	4	0	224	6	0	0	8
fixed	7	7	7	1345094	3	1	1	1	0	743	1	4	0	200	7	0	0	9
fixed	7	7	8	1346322	2	3	3	1	0	884	1	4	0	216	8	0	0	10
fixed	7	7	9	1348138	3	2	2	1	0	519	1	4	0	208	9	0	0	11
fixed	7	7	10	1349238	1	4	4	1	0	640	1	4	0	224	10	0	0	12
fixed	7	7	11	1350782	5	2	2	1	0	791	1	4	0	208	11	0	0	13
fixed	7	7	12	1352353	4	3	3	1	0	612	1	4	0	216	12	0	0	14
fixed	7	8	1	1354011	4	1	1	1	0	686	1	4	0	200	1	0	0	1
fixed	7	8	2	1355715	1	2	2	1	0	765	1	4	0	208	2	0	0	2
fixed	7	8	3	1357329	6	4	4	1	0	713	1	4	0	224	3	0	0	3
fixed	7	8	4	1358851	2	1	1	1	0	1537	1	4	0	200	4	0	0	5
fixed	7	8	5	1360758	5	3	3	1	0	792	1	4	0	216	5	0	0	6
fixed	7	8	6	1362590	6	4	4	1	0	651	1	4	0	224	6	0	0	7
fixed	7	8	7	1363593	3	1	1	1	0	1160	1	4	0	200	7	0	0	8
fixed	7	8	8	1365154	2	3	3	1	0	654	1	4	0	216	8	0	0	9
fixed	7	8	9	1366512	3	2	2	1	0	652	1	4	0	208	9	0	0	10
fixed	7	8	10	1368094	1	4	4	1	0	657	1	4	0	224	10	0	0	11
fixed	7	8	11	1369689	5	2	2	1	0	806	1	4	0	208	11	0	0	12
fixed	7	8	12	1371160	4	3	3	1	0	687	1	4	0	216	12	0	0	13
fixed	7	9	1	1372690	4	1	1	1	0	806	1	4	0	200	1	0	0	1
fixed	7	9	2	1373947	1	2	2	1	0	673	1	4	0	208	2	0	0	2
fixed	7	9	3	1375203	6	4	4	1	0	580	1	4	0	224	3	0	0	3
fixed	7	9	4	1376716	2	1	1	1	0	532	1	4	0	200	4	0	0	4
fixed	7	9	5	1377726	5	3	3	1	0	689	1	4	0	216	5	0	0	5
fixed	7	9	6	1379273	6	4	4	1	0	568	1	4	0	224	6	0	0	6
fixed	7	9	7	1380160	3	1	1	1	0	754	1	4	0	200	7	0	0	7
fixed	7	9	8	1381469	2	3	3	1	0	1019	1	4	0	216	8	0	0	8
fixed	7	9	9	1383470	3	2	2	1	0	462	1	4	0	208	9	0	0	9
fixed	7	9	10	1384705	1	4	4	1	0	602	1	4	0	224	10	0	0	9
fixed	7	9	11	1386322	5	2	2	1	0	701	1	4	0	208	11	0	0	10
fixed	7	9	12	1387907	4	3	3	1	0	738	1	4	0	216	12	0	0	11
fixed	7	10	1	1389699	4	1	1	1	0	758	1	4	0	200	1	0	0	1
fixed	7	10	2	1391457	1	2	2	1	0	676	1	4	0	208	2	0	0	2
fixed	7	10	3	1392553	6	4	4	1	0	605	1	4	0	224	3	0	0	3
fixed	7	10	4	1394007	2	1	1	1	0	543	1	4	0	200	4	0	0	4
fixed	7	10	5	1395399	5	3	3	1	0	653	1	4	0	216	5	0	0	4
fixed	7	10	6	1396859	6	4	4	1	0	567	1	4	0	224	6	0	0	5
fixed	7	10	7	1398124	3	1	1	1	0	513	1	4	0	200	7	0	0	6
fixed	7	10	8	1399304	2	3	3	1	0	703	1	4	0	216	8	0	0	7
fixed	7	10	9	1400325	3	2	2	1	0	588	1	4	0	208	9	0	0	8
fixed	7	10	10	1401498	1	4	4	1	0	626	1	4	0	224	10	0	0	8
fixed	7	10	11	1402926	5	2	2	1	0	638	1	4	0	208	11	0	0	9
fixed	7	10	12	1404071	4	3	3	1	0	653	1	4	0	216	12	0	0	10
