type	block	sequ.	trial	time	Pos.	Color	Button	NumRsp	Resp_1	RT_1	R_Code	Resp_2	RT_2	Trigg.	n_hit	n_inc	n_miss	score_%

random	1	1	1	7094	6	1	1	1	0	1392	1	4	0	8	1	0	0	100
random	1	1	2	8963	4	4	4	1	0	1001	1	4	0	32	2	0	0	100
random	1	1	3	10284	2	2	2	1	0	1265	1	4	0	16	3	0	0	100
random	1	1	4	12478	3	3	0	1	2	0	3	4	0	24	3	0	1	75
random	1	1	5	15846	5	2	2	1	0	1598	1	4	0	16	4	0	1	80
random	1	1	6	18451	1	4	4	1	0	791	1	4	0	32	5	0	1	83
random	1	1	7	20077	6	1	1	1	0	1042	1	4	0	8	6	0	1	86
random	1	1	8	21970	2	3	3	1	0	738	1	4	0	24	7	0	1	88
random	1	1	9	23646	4	2	2	1	0	1147	1	4	0	16	8	0	1	89
random	1	1	10	25230	1	1	1	1	0	960	1	4	0	8	9	0	1	90
random	1	1	11	27044	5	4	4	1	0	619	1	4	0	32	10	0	1	91
random	1	1	12	28447	3	3	3	1	0	1271	1	4	0	24	11	0	1	92
random	1	1	13	30636	5	2	2	2	0	1587	2	4	0	16	12	0	1	92
random	1	1	14	32591	1	4	4	1	0	928	1	4	0	32	13	0	1	93
random	1	1	15	34045	3	1	1	1	0	1378	1	4	0	8	14	0	1	93
random	1	1	16	36289	4	3	3	2	0	1851	2	4	0	24	15	0	1	94
random	1	1	17	38870	6	4	4	1	0	1670	1	4	0	32	16	0	1	94
random	1	1	18	41441	2	1	1	1	0	1066	1	4	0	8	17	0	1	94
random	1	1	19	43465	5	3	3	1	0	1540	1	4	0	24	18	0	1	95
random	1	1	20	45854	2	2	2	1	0	711	1	4	0	16	19	0	1	95
random	1	1	21	47307	3	3	3	1	0	1073	1	4	0	24	20	0	1	95
random	1	1	22	49268	6	1	1	1	0	862	1	4	0	8	21	0	1	95
random	1	1	23	50631	4	2	2	2	0	1420	2	4	0	16	22	0	1	96
random	1	1	24	52918	1	4	4	1	0	795	1	4	0	32	23	0	1	96
random	1	1	25	54913	4	3	3	1	0	1494	1	4	0	24	24	0	1	96
random	1	1	26	56936	2	1	1	1	0	769	1	4	0	8	25	0	1	96
random	1	1	27	58023	5	2	2	1	0	1275	1	4	0	16	26	0	1	96
random	1	1	28	59880	6	4	4	1	0	524	1	4	0	32	27	0	1	96
random	1	1	29	61397	1	3	3	1	0	1732	1	4	0	24	28	0	1	97
random	1	1	30	64141	5	2	2	1	0	1056	1	4	0	16	29	0	1	97
random	1	1	31	65820	2	1	1	1	0	833	1	4	0	8	30	0	1	97
random	1	1	32	67257	3	3	3	1	0	1276	1	4	0	24	31	0	1	97
random	1	1	33	69229	6	4	4	1	0	745	1	4	0	32	32	0	1	97
random	1	1	34	70389	4	2	2	1	0	1591	1	4	0	16	33	0	1	97
random	1	1	35	72906	3	4	4	1	0	724	1	4	0	32	34	0	1	97
random	1	1	36	74221	1	1	1	1	0	749	1	4	0	8	35	0	1	97
random	1	1	37	75982	3	4	4	1	0	874	1	4	0	32	36	0	1	97
random	1	1	38	77812	5	3	3	1	0	1085	1	4	0	24	37	0	1	97
random	1	1	39	79346	6	1	1	1	0	635	1	4	0	8	38	0	1	97
random	1	1	40	80314	1	2	2	1	0	867	1	4	0	16	39	0	1	98
random	1	1	41	82072	2	3	3	1	0	856	1	4	0	24	40	0	1	98
random	1	1	42	83459	4	4	4	1	0	670	1	4	0	32	41	0	1	98
random	1	1	43	85023	1	2	2	1	0	947	1	4	0	16	42	0	1	98
random	1	1	44	86676	6	3	3	1	0	1085	1	4	0	24	43	0	1	98
random	1	1	45	88740	3	1	1	1	0	846	1	4	0	8	44	0	1	98
random	1	1	46	90497	4	4	4	1	0	524	1	4	0	32	45	0	1	98
random	1	1	47	91867	2	2	2	1	0	978	1	4	0	16	46	0	1	98
random	1	1	48	93563	5	1	1	1	0	794	1	4	0	8	47	0	1	98
random	1	1	49	94962	2	3	3	1	0	1086	1	4	0	24	48	0	1	98
random	1	1	50	96697	3	1	1	2	0	1125	2	4	0	8	49	0	1	98
random	1	1	51	98793	1	4	4	1	0	796	1	4	0	32	50	0	1	98
random	1	1	52	100603	5	3	3	1	0	1200	1	4	0	24	51	0	1	98
random	1	1	53	102091	3	2	2	1	0	1073	1	4	0	16	52	0	1	98
random	1	1	54	103555	6	4	4	1	0	762	1	4	0	32	53	0	1	98
random	1	1	55	105143	4	2	2	1	0	1167	1	4	0	16	54	0	1	98
random	1	1	56	106617	1	1	1	1	0	697	1	4	0	8	55	0	1	98
random	1	1	57	108126	5	4	4	1	0	569	1	4	0	32	56	0	1	98
random	1	1	58	109412	2	1	1	1	0	1050	1	4	0	8	57	0	1	98
random	1	1	59	110761	6	2	2	1	0	1097	1	4	0	16	58	0	1	98
random	1	1	60	112341	4	3	3	1	0	806	1	4	0	24	59	0	1	98
random	1	1	61	114376	1	2	2	1	0	1064	1	4	0	16	60	0	1	98
random	1	1	62	115961	6	4	4	1	0	645	1	4	0	32	61	0	1	98
random	1	1	63	117619	4	1	1	1	0	751	1	4	0	8	62	0	1	98
random	1	1	64	118968	2	2	2	1	0	981	1	4	0	16	63	0	1	98
random	1	1	65	120923	4	3	3	1	0	1267	1	4	0	24	64	0	1	98
random	1	1	66	122764	3	1	1	1	0	685	1	4	0	8	65	0	1	98
random	1	1	67	124464	1	3	3	1	0	1101	1	4	0	24	66	0	1	99
random	1	1	68	125970	5	4	4	1	0	765	1	4	0	32	67	0	1	99
random	1	1	69	127487	2	2	2	1	0	885	1	4	0	16	68	0	1	99
random	1	1	70	128769	3	1	1	1	0	879	1	4	0	8	69	0	1	99
random	1	1	71	130561	5	4	4	1	0	691	1	4	0	32	70	0	1	99
random	1	1	72	132061	6	3	3	1	0	979	1	4	0	24	71	0	1	99
random	1	1	73	133707	2	1	1	1	0	853	1	4	0	8	72	0	1	99
random	1	1	74	135306	5	3	3	1	0	818	1	4	0	24	73	0	1	99
random	1	1	75	136664	1	4	4	1	0	664	1	4	0	32	74	0	1	99
random	1	1	76	138196	6	2	2	1	0	711	1	4	0	16	75	0	1	99
random	1	1	77	139264	2	1	1	1	0	978	1	4	0	8	76	0	1	99
random	1	1	78	140671	4	4	4	1	0	639	1	4	0	32	77	0	1	99
random	1	1	79	142095	3	2	2	1	0	954	1	4	0	16	78	0	1	99
random	1	1	80	144028	4	3	3	1	0	632	1	4	0	24	79	0	1	99
random	1	1	81	145093	1	4	4	1	0	947	1	4	0	32	80	0	1	99
random	1	1	82	147022	5	1	1	1	0	809	1	4	0	8	81	0	1	99
random	1	1	83	148805	3	2	2	1	0	1006	1	4	0	16	82	0	1	99
random	1	1	84	150785	6	3	3	1	0	794	1	4	0	24	83	0	1	99
random	1	1	85	152336	3	2	2	1	0	960	1	4	0	16	84	0	1	99
random	1	1	86	153923	1	3	3	1	0	837	1	4	0	24	85	0	1	99
random	1	1	87	155580	4	4	4	1	0	711	1	4	0	32	86	0	1	99
random	1	1	88	157068	2	1	1	1	0	528	1	4	0	8	87	0	1	99
random	1	1	89	158202	6	4	4	1	0	672	1	4	0	32	88	0	1	99
random	1	1	90	159440	3	3	3	1	0	1059	1	4	0	24	89	0	1	99
random	1	1	91	161259	5	4	4	1	0	942	1	4	0	32	90	0	1	99
random	1	1	92	163227	1	2	2	1	0	899	1	4	0	16	91	0	1	99
random	1	1	93	164853	5	1	1	1	0	622	1	4	0	8	92	0	1	99
random	1	1	94	165972	4	3	3	1	0	951	1	4	0	24	93	0	1	99
random	1	1	95	167251	6	1	1	1	0	777	1	4	0	8	94	0	1	99
random	1	1	96	168673	2	2	2	1	0	789	1	4	0	16	95	0	1	99
random	1	1	97	170247	4	3	3	1	0	1033	1	4	0	24	96	0	1	99
random	1	1	98	171991	3	2	2	2	0	1080	2	4	0	16	97	0	1	99
random	1	1	99	173709	6	3	3	1	0	1191	1	4	0	24	98	0	1	99
random	1	1	100	175851	1	4	4	1	0	644	1	4	0	32	99	0	1	99
random	1	1	101	177475	4	1	1	1	0	912	1	4	0	8	100	0	1	99
random	1	1	102	179248	5	2	2	1	0	1165	1	4	0	16	101	0	1	99
random	1	1	103	180863	2	4	4	1	0	608	1	4	0	32	102	0	1	99
random	1	1	104	182484	3	1	1	1	0	843	1	4	0	8	103	0	1	99
random	1	1	105	184332	1	3	3	1	0	1029	1	4	0	24	104	0	1	99
random	1	1	106	185818	2	2	2	1	0	694	1	4	0	16	105	0	1	99
random	1	1	107	187509	5	4	4	1	0	807	1	4	0	32	106	0	1	99
random	1	1	108	188626	6	1	1	1	0	839	1	4	0	8	107	0	1	99
random	1	1	109	190446	5	4	4	1	0	1218	1	4	0	32	108	0	1	99
random	1	1	110	192158	6	3	3	1	0	890	1	4	0	24	109	0	1	99
random	1	1	111	194000	2	2	2	1	0	948	1	4	0	16	110	0	1	99
random	1	1	112	195852	3	1	1	1	0	597	1	4	0	8	111	0	1	99
random	1	1	113	197345	1	2	2	1	0	1070	1	4	0	16	112	0	1	99
random	1	1	114	199269	2	3	3	1	0	572	1	4	0	24	113	0	1	99
random	1	1	115	200797	3	1	1	1	0	668	1	4	0	8	114	0	1	99
random	1	1	116	202058	4	4	4	1	0	542	1	4	0	32	115	0	1	99
random	1	1	117	203419	6	1	1	1	0	1253	1	4	0	8	116	0	1	99
random	1	1	118	205050	5	3	3	1	0	935	1	4	0	24	117	0	1	99
random	1	1	119	206906	1	4	4	1	0	689	1	4	0	32	118	0	1	99
random	1	1	120	208417	4	2	2	1	0	1401	1	4	0	16	119	0	1	99
fixed	2	1	1	210928	4	1	1	1	0	910	1	4	0	40	1	0	0	100
fixed	2	1	2	212566	1	2	2	1	0	1033	1	4	0	48	2	0	0	100
fixed	2	1	3	214169	6	4	4	1	0	701	1	4	0	64	3	0	0	100
fixed	2	1	4	215577	2	1	1	1	0	730	1	4	0	40	4	0	0	100
fixed	2	1	5	216755	5	3	3	1	0	736	1	4	0	56	5	0	0	100
fixed	2	1	6	218056	6	4	4	1	0	745	1	4	0	64	6	0	0	100
fixed	2	1	7	219430	3	1	1	1	0	999	1	4	0	40	7	0	0	100
fixed	2	1	8	221414	2	3	3	1	0	1131	1	4	0	56	8	0	0	100
fixed	2	1	9	223188	3	2	2	1	0	816	1	4	0	48	9	0	0	100
fixed	2	1	10	224624	1	4	4	1	0	683	1	4	0	64	10	0	0	100
fixed	2	1	11	225936	5	2	2	1	0	1123	1	4	0	48	11	0	0	100
fixed	2	1	12	227464	4	3	3	1	0	850	1	4	0	56	12	0	0	100
fixed	2	2	1	229242	4	1	1	1	0	719	1	4	0	40	13	0	0	100
fixed	2	2	2	230686	1	2	2	1	0	866	1	4	0	48	14	0	0	100
fixed	2	2	3	232434	6	4	4	1	0	583	1	4	0	64	15	0	0	100
fixed	2	2	4	233840	2	1	1	1	0	788	1	4	0	40	16	0	0	100
fixed	2	2	5	235045	5	3	3	1	0	745	1	4	0	56	17	0	0	100
fixed	2	2	6	236375	6	4	4	1	0	792	1	4	0	64	18	0	0	100
fixed	2	2	7	237722	3	1	1	1	0	1224	1	4	0	40	19	0	0	100
fixed	2	2	8	239466	2	3	3	1	0	1382	1	4	0	56	20	0	0	100
fixed	2	2	9	241321	3	2	2	1	0	583	1	4	0	48	21	0	0	100
fixed	2	2	10	242304	1	4	4	1	0	582	1	4	0	64	22	0	0	100
fixed	2	2	11	243504	5	2	2	1	0	947	1	4	0	48	23	0	0	100
fixed	2	2	12	245416	4	3	3	1	0	770	1	4	0	56	24	0	0	100
fixed	2	3	1	246851	4	1	1	1	0	893	1	4	0	40	25	0	0	100
fixed	2	3	2	248070	1	2	2	1	0	1177	1	4	0	48	26	0	0	100
fixed	2	3	3	250257	6	4	4	1	0	660	1	4	0	64	27	0	0	100
fixed	2	3	4	251520	2	1	1	1	0	799	1	4	0	40	28	0	0	100
fixed	2	3	5	252826	5	3	3	2	0	1360	2	4	0	56	29	0	0	100
fixed	2	3	6	254899	6	4	4	1	0	888	1	4	0	64	30	0	0	100
fixed	2	3	7	256395	3	1	1	1	0	745	1	4	0	40	31	0	0	100
fixed	2	3	8	257450	2	3	3	1	0	1124	1	4	0	56	32	0	0	100
fixed	2	3	9	259422	3	2	0	0	2	0	3	4	0	48	32	0	1	97
fixed	2	3	10	262799	1	4	4	1	0	698	1	4	0	64	33	0	1	97
fixed	2	3	11	264286	5	2	2	1	0	907	1	4	0	48	34	0	1	97
fixed	2	3	12	266098	4	3	3	1	0	558	1	4	0	56	35	0	1	97
fixed	2	4	1	267519	4	1	1	1	0	665	1	4	0	40	36	0	1	97
fixed	2	4	2	269214	1	2	2	1	0	1106	1	4	0	48	37	0	1	97
fixed	2	4	3	270986	6	4	4	1	0	719	1	4	0	64	38	0	1	97
fixed	2	4	4	272517	2	1	1	1	0	694	1	4	0	40	39	0	1	98
fixed	2	4	5	273868	5	3	3	1	0	1052	1	4	0	56	40	0	1	98
fixed	2	4	6	275309	6	4	4	1	0	840	1	4	0	64	41	0	1	98
fixed	2	4	7	276593	3	1	1	1	0	521	1	4	0	40	42	0	1	98
fixed	2	4	8	278078	2	3	3	1	0	954	1	4	0	56	43	0	1	98
fixed	2	4	9	279713	3	2	2	1	0	661	1	4	0	48	44	0	1	98
fixed	2	4	10	280692	1	4	4	1	0	652	1	4	0	64	45	0	1	98
fixed	2	4	11	281869	5	2	2	1	0	1210	1	4	0	48	46	0	1	98
fixed	2	4	12	283515	4	3	3	1	0	652	1	4	0	56	47	0	1	98
fixed	2	5	1	284978	4	1	1	1	0	782	1	4	0	40	48	0	1	98
fixed	2	5	2	286133	1	2	2	1	0	965	1	4	0	48	49	0	1	98
fixed	2	5	3	287614	6	4	4	1	0	679	1	4	0	64	50	0	1	98
fixed	2	5	4	289267	2	1	1	1	0	905	1	4	0	40	51	0	1	98
fixed	2	5	5	290911	5	3	3	1	0	979	1	4	0	56	52	0	1	98
fixed	2	5	6	292712	6	4	4	1	0	854	1	4	0	64	53	0	1	98
fixed	2	5	7	294211	3	1	1	1	0	847	1	4	0	40	54	0	1	98
fixed	2	5	8	296087	2	3	3	1	0	1111	1	4	0	56	55	0	1	98
fixed	2	5	9	297509	3	2	2	1	0	771	1	4	0	48	56	0	1	98
fixed	2	5	10	299062	1	4	4	1	0	521	1	4	0	64	57	0	1	98
fixed	2	5	11	299921	5	2	2	1	0	1165	1	4	0	48	58	0	1	98
fixed	2	5	12	301671	4	3	3	1	0	1011	1	4	0	56	59	0	1	98
fixed	2	6	1	303574	4	1	1	1	0	1186	1	4	0	40	60	0	1	98
fixed	2	6	2	305619	1	2	2	1	0	1068	1	4	0	48	61	0	1	98
fixed	2	6	3	307259	6	4	4	1	0	687	1	4	0	64	62	0	1	98
fixed	2	6	4	308868	2	1	1	1	0	898	1	4	0	40	63	0	1	98
fixed	2	6	5	310228	5	3	3	1	0	1417	1	4	0	56	64	0	1	98
fixed	2	6	6	312516	6	4	4	1	0	808	1	4	0	64	65	0	1	98
fixed	2	6	7	313963	3	1	1	1	0	795	1	4	0	40	66	0	1	99
fixed	2	6	8	315633	2	3	3	1	0	1180	1	4	0	56	67	0	1	99
fixed	2	6	9	317334	3	2	2	1	0	628	1	4	0	48	68	0	1	99
fixed	2	6	10	318599	1	4	4	1	0	702	1	4	0	64	69	0	1	99
fixed	2	6	11	319705	5	2	2	1	0	1151	1	4	0	48	70	0	1	99
fixed	2	6	12	321446	4	3	3	1	0	998	1	4	0	56	71	0	1	99
fixed	2	7	1	323456	4	1	1	1	0	736	1	4	0	40	72	0	1	99
fixed	2	7	2	325023	1	2	2	1	0	1006	1	4	0	48	73	0	1	99
fixed	2	7	3	326825	6	4	4	1	0	826	1	4	0	64	74	0	1	99
fixed	2	7	4	328276	2	1	1	1	0	852	1	4	0	40	75	0	1	99
fixed	2	7	5	329893	5	3	3	1	0	928	1	4	0	56	76	0	1	99
fixed	2	7	6	331822	6	4	4	1	0	710	1	4	0	64	77	0	1	99
fixed	2	7	7	333048	3	1	1	1	0	842	1	4	0	40	78	0	1	99
fixed	2	7	8	334459	2	3	3	1	0	1351	1	4	0	56	79	0	1	99
fixed	2	7	9	336580	3	2	2	1	0	669	1	4	0	48	80	0	1	99
fixed	2	7	10	337942	1	4	4	1	0	603	1	4	0	64	81	0	1	99
fixed	2	7	11	339109	5	2	2	1	0	1193	1	4	0	48	82	0	1	99
fixed	2	7	12	340686	4	3	3	1	0	863	1	4	0	56	83	0	1	99
fixed	2	8	1	342687	4	1	1	1	0	890	1	4	0	40	84	0	1	99
fixed	2	8	2	344115	1	2	2	1	0	1270	1	4	0	48	85	0	1	99
fixed	2	8	3	346185	6	4	4	1	0	614	1	4	0	64	86	0	1	99
fixed	2	8	4	347507	2	1	1	1	0	942	1	4	0	40	87	0	1	99
fixed	2	8	5	348933	5	3	3	1	0	1081	1	4	0	56	88	0	1	99
fixed	2	8	6	350736	6	4	4	1	0	661	1	4	0	64	89	0	1	99
fixed	2	8	7	352316	3	1	1	1	0	954	1	4	0	40	90	0	1	99
fixed	2	8	8	353700	2	3	3	1	0	1327	1	4	0	56	91	0	1	99
fixed	2	8	9	355451	3	2	2	1	0	621	1	4	0	48	92	0	1	99
fixed	2	8	10	356901	1	4	4	1	0	664	1	4	0	64	93	0	1	99
fixed	2	8	11	358357	5	2	2	1	0	954	1	4	0	48	94	0	1	99
fixed	2	8	12	359883	4	3	3	1	0	602	1	4	0	56	95	0	1	99
fixed	2	9	1	361767	4	1	1	1	0	666	1	4	0	40	96	0	1	99
fixed	2	9	2	362847	1	2	2	1	0	1244	1	4	0	48	97	0	1	99
fixed	2	9	3	365014	6	4	4	1	0	728	1	4	0	64	98	0	1	99
fixed	2	9	4	366119	2	1	1	1	0	946	1	4	0	40	99	0	1	99
fixed	2	9	5	367743	5	3	3	1	0	1205	1	4	0	56	100	0	1	99
fixed	2	9	6	369973	6	4	4	1	0	678	1	4	0	64	101	0	1	99
fixed	2	9	7	371329	3	1	1	1	0	805	1	4	0	40	102	0	1	99
fixed	2	9	8	373006	2	3	3	1	0	1262	1	4	0	56	103	0	1	99
fixed	2	9	9	374984	3	2	2	1	0	682	1	4	0	48	104	0	1	99
fixed	2	9	10	376418	1	4	4	1	0	613	1	4	0	64	105	0	1	99
fixed	2	9	11	377639	5	2	2	1	0	993	1	4	0	48	106	0	1	99
fixed	2	9	12	379616	4	3	3	1	0	470	1	4	0	56	107	0	1	99
fixed	2	10	1	380997	4	1	1	1	0	675	1	4	0	40	108	0	1	99
fixed	2	10	2	382167	1	2	2	1	0	858	1	4	0	48	109	0	1	99
fixed	2	10	3	383678	6	4	4	1	0	706	1	4	0	64	110	0	1	99
fixed	2	10	4	384958	2	1	1	1	0	779	1	4	0	40	111	0	1	99
fixed	2	10	5	386300	5	3	3	1	0	1187	1	4	0	56	112	0	1	99
fixed	2	10	6	387811	6	4	4	1	0	779	1	4	0	64	113	0	1	99
fixed	2	10	7	389385	3	1	1	1	0	976	1	4	0	40	114	0	1	99
fixed	2	10	8	391059	2	3	3	1	0	1129	1	4	0	56	115	0	1	99
fixed	2	10	9	392509	3	2	2	1	0	891	1	4	0	48	116	0	1	99
fixed	2	10	10	394306	1	4	4	1	0	792	1	4	0	64	117	0	1	99
fixed	2	10	11	395972	5	2	2	1	0	993	1	4	0	48	118	0	1	99
fixed	2	10	12	397922	4	3	3	1	0	1085	1	4	0	56	119	0	1	99
fixed	3	1	1	399874	4	1	1	1	0	763	1	4	0	72	1	0	0	100
fixed	3	1	2	400949	1	2	2	1	0	1158	1	4	0	80	2	0	0	100
fixed	3	1	3	402524	6	4	4	1	0	652	1	4	0	96	3	0	0	100
fixed	3	1	4	404171	2	1	1	1	0	718	1	4	0	72	4	0	0	100
fixed	3	1	5	405875	5	3	3	1	0	1013	1	4	0	88	5	0	0	100
fixed	3	1	6	407611	6	4	4	1	0	796	1	4	0	96	6	0	0	100
fixed	3	1	7	409405	3	1	1	1	0	904	1	4	0	72	7	0	0	100
fixed	3	1	8	411034	2	3	3	1	0	1059	1	4	0	88	8	0	0	100
fixed	3	1	9	412736	3	2	2	1	0	835	1	4	0	80	9	0	0	100
fixed	3	1	10	414440	1	4	4	1	0	923	1	4	0	96	10	0	0	100
fixed	3	1	11	415823	5	2	2	2	0	1904	2	4	0	80	11	0	0	100
fixed	3	1	12	418306	4	3	3	1	0	1271	1	4	0	88	12	0	0	100
fixed	3	2	1	420695	4	1	1	1	0	746	1	4	0	72	13	0	0	100
fixed	3	2	2	422245	1	2	2	1	0	1129	1	4	0	80	14	0	0	100
fixed	3	2	3	423860	6	4	4	1	0	652	1	4	0	96	15	0	0	100
fixed	3	2	4	424897	2	1	1	1	0	776	1	4	0	72	16	0	0	100
fixed	3	2	5	426034	5	3	3	1	0	856	1	4	0	88	17	0	0	100
fixed	3	2	6	427622	6	4	4	1	0	837	1	4	0	96	18	0	0	100
fixed	3	2	7	429398	3	1	1	1	0	705	1	4	0	72	19	0	0	100
fixed	3	2	8	431044	2	3	3	2	0	1404	2	4	0	88	20	0	0	100
fixed	3	2	9	432984	3	2	2	1	0	1130	1	4	0	80	21	0	0	100
fixed	3	2	10	435068	1	4	4	1	0	617	1	4	0	96	22	0	0	100
fixed	3	2	11	436414	5	2	2	1	0	968	1	4	0	80	23	0	0	100
fixed	3	2	12	438393	4	3	3	1	0	476	1	4	0	88	24	0	0	100
fixed	3	3	1	439892	4	1	1	1	0	733	1	4	0	72	25	0	0	100
fixed	3	3	2	440931	1	2	2	1	0	1137	1	4	0	80	26	0	0	100
fixed	3	3	3	442611	6	4	4	1	0	714	1	4	0	96	27	0	0	100
fixed	3	3	4	443890	2	1	1	1	0	699	1	4	0	72	28	0	0	100
fixed	3	3	5	444950	5	3	3	1	0	1463	1	4	0	88	29	0	0	100
fixed	3	3	6	446968	6	4	4	1	0	913	1	4	0	96	30	0	0	100
fixed	3	3	7	448671	3	1	1	1	0	825	1	4	0	72	31	0	0	100
fixed	3	3	8	450359	2	3	3	1	0	1186	1	4	0	88	32	0	0	100
fixed	3	3	9	451949	3	2	2	1	0	542	1	4	0	80	33	0	0	100
fixed	3	3	10	453423	1	4	4	1	0	887	1	4	0	96	34	0	0	100
fixed	3	3	11	454684	5	2	2	1	0	954	1	4	0	80	35	0	0	100
fixed	3	3	12	456680	4	3	3	1	0	1182	1	4	0	88	36	0	0	100
fixed	3	4	1	459056	4	1	1	1	0	673	1	4	0	72	37	0	0	100
fixed	3	4	2	460489	1	2	2	1	0	909	1	4	0	80	38	0	0	100
fixed	3	4	3	461864	6	4	4	1	0	594	1	4	0	96	39	0	0	100
fixed	3	4	4	463393	2	1	1	1	0	754	1	4	0	72	40	0	0	100
fixed	3	4	5	464558	5	3	3	1	0	1072	1	4	0	88	41	0	0	100
fixed	3	4	6	466024	6	4	4	1	0	818	1	4	0	96	42	0	0	100
fixed	3	4	7	467697	3	1	1	1	0	683	1	4	0	72	43	0	0	100
fixed	3	4	8	468846	2	3	3	1	0	1402	1	4	0	88	44	0	0	100
fixed	3	4	9	470741	3	2	2	1	0	618	1	4	0	80	45	0	0	100
fixed	3	4	10	471979	1	4	4	1	0	598	1	4	0	96	46	0	0	100
fixed	3	4	11	473586	5	2	2	1	0	1098	1	4	0	80	47	0	0	100
fixed	3	4	12	475143	4	3	3	1	0	751	1	4	0	88	48	0	0	100
fixed	3	5	1	477116	4	1	1	1	0	716	1	4	0	72	49	0	0	100
fixed	3	5	2	478461	1	2	2	1	0	939	1	4	0	80	50	0	0	100
fixed	3	5	3	480163	6	4	4	1	0	603	1	4	0	96	51	0	0	100
fixed	3	5	4	481238	2	1	1	1	0	726	1	4	0	72	52	0	0	100
fixed	3	5	5	482983	5	3	3	1	0	1019	1	4	0	88	53	0	0	100
fixed	3	5	6	484983	6	4	4	1	0	639	1	4	0	96	54	0	0	100
fixed	3	5	7	486152	3	1	1	1	0	966	1	4	0	72	55	0	0	100
fixed	3	5	8	487545	2	3	3	1	0	1594	1	4	0	88	56	0	0	100
fixed	3	5	9	489635	3	2	2	1	0	618	1	4	0	80	57	0	0	100
fixed	3	5	10	490781	1	4	4	1	0	641	1	4	0	96	58	0	0	100
fixed	3	5	11	492304	5	2	2	1	0	1001	1	4	0	80	59	0	0	100
fixed	3	5	12	493962	4	3	3	1	0	715	1	4	0	88	60	0	0	100
fixed	3	6	1	495411	4	1	1	1	0	717	1	4	0	72	61	0	0	100
fixed	3	6	2	496497	1	2	2	1	0	1311	1	4	0	80	62	0	0	100
fixed	3	6	3	498675	6	4	4	1	0	667	1	4	0	96	63	0	0	100
fixed	3	6	4	500182	2	1	1	1	0	795	1	4	0	72	64	0	0	100
fixed	3	6	5	501299	5	3	3	1	0	900	1	4	0	88	65	0	0	100
fixed	3	6	6	502713	6	4	4	1	0	656	1	4	0	96	66	0	0	100
fixed	3	6	7	504188	3	1	1	1	0	1073	1	4	0	72	67	0	0	100
fixed	3	6	8	506259	2	3	3	1	0	1362	1	4	0	88	68	0	0	100
fixed	3	6	9	508433	3	2	2	1	0	598	1	4	0	80	69	0	0	100
fixed	3	6	10	509771	1	4	4	1	0	549	1	4	0	96	70	0	0	100
fixed	3	6	11	510943	5	2	2	1	0	1180	1	4	0	80	71	0	0	100
fixed	3	6	12	512767	4	3	3	1	0	870	1	4	0	88	72	0	0	100
fixed	3	7	1	514308	4	1	1	1	0	693	1	4	0	72	73	0	0	100
fixed	3	7	2	515376	1	2	2	1	0	1191	1	4	0	80	74	0	0	100
fixed	3	7	3	516972	6	4	4	1	0	660	1	4	0	96	75	0	0	100
fixed	3	7	4	518036	2	1	1	1	0	687	1	4	0	72	76	0	0	100
fixed	3	7	5	519189	5	3	3	1	0	1350	1	4	0	88	77	0	0	100
fixed	3	7	6	521430	6	4	4	1	0	703	1	4	0	96	78	0	0	100
fixed	3	7	7	522860	3	1	1	1	0	802	1	4	0	72	79	0	0	100
fixed	3	7	8	524382	2	3	3	1	0	1226	1	4	0	88	80	0	0	100
fixed	3	7	9	526535	3	2	2	1	0	679	1	4	0	80	81	0	0	100
fixed	3	7	10	528159	1	4	4	1	0	658	1	4	0	96	82	0	0	100
fixed	3	7	11	529848	5	2	2	1	0	1178	1	4	0	80	83	0	0	100
fixed	3	7	12	532040	4	3	3	1	0	374	1	4	0	88	84	0	0	100
fixed	3	8	1	533572	4	1	1	1	0	605	1	4	0	72	85	0	0	100
fixed	3	8	2	534490	1	2	2	1	0	1174	1	4	0	80	86	0	0	100
fixed	3	8	3	536194	6	4	4	1	0	638	1	4	0	96	87	0	0	100
fixed	3	8	4	537204	2	1	1	1	0	915	1	4	0	72	88	0	0	100
fixed	3	8	5	539100	5	3	3	1	0	1306	1	4	0	88	89	0	0	100
fixed	3	8	6	541227	6	4	4	1	0	721	1	4	0	96	90	0	0	100
fixed	3	8	7	542606	3	1	1	1	0	871	1	4	0	72	91	0	0	100
fixed	3	8	8	544355	2	3	3	1	0	1148	1	4	0	88	92	0	0	100
fixed	3	8	9	545921	3	2	2	1	0	642	1	4	0	80	93	0	0	100
fixed	3	8	10	546895	1	4	4	1	0	657	1	4	0	96	94	0	0	100
fixed	3	8	11	548481	5	2	2	1	0	821	1	4	0	80	95	0	0	100
fixed	3	8	12	549682	4	3	3	1	0	1074	1	4	0	88	96	0	0	100
fixed	3	9	1	551733	4	1	1	1	0	635	1	4	0	72	97	0	0	100
fixed	3	9	2	553123	1	2	2	1	0	1153	1	4	0	80	98	0	0	100
fixed	3	9	3	554998	6	4	4	1	0	601	1	4	0	96	99	0	0	100
fixed	3	9	4	556630	2	1	1	1	0	772	1	4	0	72	100	0	0	100
fixed	3	9	5	558417	5	3	3	1	0	744	1	4	0	88	101	0	0	100
fixed	3	9	6	559688	6	4	4	1	0	659	1	4	0	96	102	0	0	100
fixed	3	9	7	560903	3	1	1	1	0	695	1	4	0	72	103	0	0	100
fixed	3	9	8	562184	2	3	3	1	0	1153	1	4	0	88	104	0	0	100
fixed	3	9	9	563751	3	2	2	1	0	663	1	4	0	80	105	0	0	100
fixed	3	9	10	565179	1	4	4	1	0	674	1	4	0	96	106	0	0	100
fixed	3	9	11	566566	5	2	2	1	0	1104	1	4	0	80	107	0	0	100
fixed	3	9	12	568421	4	3	3	1	0	865	1	4	0	88	108	0	0	100
fixed	3	10	1	570278	4	1	1	1	0	634	1	4	0	72	109	0	0	100
fixed	3	10	2	571447	1	2	2	1	0	1088	1	4	0	80	110	0	0	100
fixed	3	10	3	573013	6	4	4	1	0	639	1	4	0	96	111	0	0	100
fixed	3	10	4	574059	2	1	1	1	0	874	1	4	0	72	112	0	0	100
fixed	3	10	5	575787	5	3	3	1	0	969	1	4	0	88	113	0	0	100
fixed	3	10	6	577070	6	4	4	1	0	667	1	4	0	96	114	0	0	100
fixed	3	10	7	578096	3	1	1	1	0	983	1	4	0	72	115	0	0	100
fixed	3	10	8	580067	2	3	3	1	0	1171	1	4	0	88	116	0	0	100
fixed	3	10	9	581543	3	2	2	1	0	693	1	4	0	80	117	0	0	100
fixed	3	10	10	582587	1	4	4	1	0	817	1	4	0	96	118	0	0	100
fixed	3	10	11	584268	5	2	2	1	0	1010	1	4	0	80	119	0	0	100
fixed	3	10	12	586032	4	3	3	1	0	631	1	4	0	88	120	0	0	100
fixed	4	1	1	698674	4	1	1	1	0	852	1	4	0	104	1	0	0	100
fixed	4	1	2	700382	1	2	2	1	0	771	1	4	0	112	2	0	0	100
fixed	4	1	3	701883	6	4	4	1	0	636	1	4	0	128	3	0	0	100
fixed	4	1	4	703319	2	1	1	1	0	615	1	4	0	104	4	0	0	100
fixed	4	1	5	704832	5	3	3	1	0	871	1	4	0	120	5	0	0	100
fixed	4	1	6	706447	6	4	4	1	0	747	1	4	0	128	6	0	0	100
fixed	4	1	7	707545	3	1	1	1	0	532	1	4	0	104	7	0	0	100
fixed	4	1	8	708988	2	3	0	1	2	0	3	4	0	120	7	0	1	88
fixed	4	1	9	711779	3	2	0	1	2	0	3	4	0	112	7	0	2	78
fixed	4	1	10	714786	1	4	4	1	0	641	1	4	0	128	8	0	2	80
fixed	4	1	11	716303	5	2	2	1	0	1057	1	4	0	112	9	0	2	82
fixed	4	1	12	717669	4	3	3	1	0	648	1	4	0	120	10	0	2	83
fixed	4	2	1	719444	4	1	1	1	0	668	1	4	0	104	11	0	2	85
fixed	4	2	2	720843	1	2	2	1	0	1089	1	4	0	112	12	0	2	86
fixed	4	2	3	722228	6	4	4	1	0	742	1	4	0	128	13	0	2	87
fixed	4	2	4	723851	2	1	1	1	0	738	1	4	0	104	14	0	2	88
fixed	4	2	5	724988	5	3	3	1	0	1074	1	4	0	120	15	0	2	88
fixed	4	2	6	726423	6	4	4	1	0	757	1	4	0	128	16	0	2	89
fixed	4	2	7	727632	3	1	1	1	0	793	1	4	0	104	17	0	2	89
fixed	4	2	8	728922	2	3	3	1	0	1187	1	4	0	120	18	0	2	90
fixed	4	2	9	731074	3	2	2	1	0	687	1	4	0	112	19	0	2	90
fixed	4	2	10	732512	1	4	4	1	0	627	1	4	0	128	20	0	2	91
fixed	4	2	11	733568	5	2	2	1	0	1014	1	4	0	112	21	0	2	91
fixed	4	2	12	734965	4	3	3	1	0	587	1	4	0	120	22	0	2	92
fixed	4	3	1	736185	4	1	1	1	0	559	1	4	0	104	23	0	2	92
fixed	4	3	2	737733	1	2	2	1	0	1022	1	4	0	112	24	0	2	92
fixed	4	3	3	739490	6	4	4	1	0	667	1	4	0	128	25	0	2	93
fixed	4	3	4	741078	2	1	1	1	0	776	1	4	0	104	26	0	2	93
fixed	4	3	5	742724	5	3	3	1	0	674	1	4	0	120	27	0	2	93
fixed	4	3	6	743939	6	4	4	1	0	798	1	4	0	128	28	0	2	93
fixed	4	3	7	745216	3	1	1	1	0	729	1	4	0	104	29	0	2	94
fixed	4	3	8	746404	2	3	3	1	0	1302	1	4	0	120	30	0	2	94
fixed	4	3	9	748475	3	2	2	1	0	559	1	4	0	112	31	0	2	94
fixed	4	3	10	750028	1	4	4	1	0	741	1	4	0	128	32	0	2	94
fixed	4	3	11	751603	5	2	2	1	0	850	1	4	0	112	33	0	2	94
fixed	4	3	12	753217	4	3	3	1	0	550	1	4	0	120	34	0	2	94
fixed	4	4	1	754965	4	1	1	1	0	667	1	4	0	104	35	0	2	95
fixed	4	4	2	756213	1	2	2	1	0	887	1	4	0	112	36	0	2	95
fixed	4	4	3	757890	6	4	4	1	0	688	1	4	0	128	37	0	2	95
fixed	4	4	4	759407	2	1	1	1	0	1239	1	4	0	104	38	0	2	95
fixed	4	4	5	761341	5	3	3	1	0	1326	1	4	0	120	39	0	2	95
fixed	4	4	6	763280	6	4	4	1	0	684	1	4	0	128	40	0	2	95
fixed	4	4	7	764523	3	1	1	1	0	687	1	4	0	104	41	0	2	95
fixed	4	4	8	765856	2	3	3	1	0	1102	1	4	0	120	42	0	2	95
fixed	4	4	9	767568	3	2	2	1	0	606	1	4	0	112	43	0	2	96
fixed	4	4	10	768891	1	4	4	1	0	670	1	4	0	128	44	0	2	96
fixed	4	4	11	769892	5	2	2	1	0	956	1	4	0	112	45	0	2	96
fixed	4	4	12	771219	4	3	3	1	0	595	1	4	0	120	46	0	2	96
fixed	4	5	1	772859	4	1	1	1	0	678	1	4	0	104	47	0	2	96
fixed	4	5	2	773841	1	2	2	1	0	1092	1	4	0	112	48	0	2	96
fixed	4	5	3	775470	6	4	4	1	0	647	1	4	0	128	49	0	2	96
fixed	4	5	4	776776	2	1	1	1	0	936	1	4	0	104	50	0	2	96
fixed	4	5	5	778612	5	3	3	1	0	1066	1	4	0	120	51	0	2	96
fixed	4	5	6	780646	6	4	4	1	0	700	1	4	0	128	52	0	2	96
fixed	4	5	7	781683	3	1	1	1	0	712	1	4	0	104	53	0	2	96
fixed	4	5	8	782902	2	3	3	1	0	1052	1	4	0	120	54	0	2	96
fixed	4	5	9	784896	3	2	2	1	0	544	1	4	0	112	55	0	2	96
fixed	4	5	10	785843	1	4	4	1	0	624	1	4	0	128	56	0	2	97
fixed	4	5	11	786846	5	2	2	1	0	1181	1	4	0	112	57	0	2	97
fixed	4	5	12	788718	4	3	3	1	0	382	1	4	0	120	58	0	2	97
fixed	4	6	1	789884	4	1	1	1	0	628	1	4	0	104	59	0	2	97
fixed	4	6	2	791304	1	2	2	1	0	1112	1	4	0	112	60	0	2	97
fixed	4	6	3	792970	6	4	4	1	0	602	1	4	0	128	61	0	2	97
fixed	4	6	4	794026	2	1	1	1	0	829	1	4	0	104	62	0	2	97
fixed	4	6	5	795540	5	3	3	1	0	925	1	4	0	120	63	0	2	97
fixed	4	6	6	797019	6	4	4	1	0	718	1	4	0	128	64	0	2	97
fixed	4	6	7	798725	3	1	1	1	0	782	1	4	0	104	65	0	2	97
fixed	4	6	8	799946	2	3	3	1	0	1002	1	4	0	120	66	0	2	97
fixed	4	6	9	801787	3	2	2	1	0	901	1	4	0	112	67	0	2	97
fixed	4	6	10	803378	1	4	4	1	0	681	1	4	0	128	68	0	2	97
fixed	4	6	11	805011	5	2	2	1	0	940	1	4	0	112	69	0	2	97
fixed	4	6	12	806608	4	3	3	1	0	624	1	4	0	120	70	0	2	97
fixed	4	7	1	808045	4	1	1	1	0	651	1	4	0	104	71	0	2	97
fixed	4	7	2	809077	1	2	2	1	0	1016	1	4	0	112	72	0	2	97
fixed	4	7	3	810426	6	4	4	1	0	815	1	4	0	128	73	0	2	97
fixed	4	7	4	811641	2	1	1	1	0	699	1	4	0	104	74	0	2	97
fixed	4	7	5	812772	5	3	3	1	0	1011	1	4	0	120	75	0	2	97
fixed	4	7	6	814142	6	4	4	1	0	769	1	4	0	128	76	0	2	97
fixed	4	7	7	815541	3	1	1	1	0	710	1	4	0	104	77	0	2	97
fixed	4	7	8	816836	2	3	3	1	0	991	1	4	0	120	78	0	2	98
fixed	4	7	9	818139	3	2	2	1	0	560	1	4	0	112	79	0	2	98
fixed	4	7	10	819109	1	4	4	1	0	695	1	4	0	128	80	0	2	98
fixed	4	7	11	820147	5	2	2	1	0	979	1	4	0	112	81	0	2	98
fixed	4	7	12	821832	4	3	3	1	0	691	1	4	0	120	82	0	2	98
fixed	4	8	1	823383	4	1	1	1	0	786	1	4	0	104	83	0	2	98
fixed	4	8	2	825020	1	2	2	1	0	852	1	4	0	112	84	0	2	98
fixed	4	8	3	826717	6	4	4	1	0	661	1	4	0	128	85	0	2	98
fixed	4	8	4	827997	2	1	1	1	0	734	1	4	0	104	86	0	2	98
fixed	4	8	5	829087	5	3	3	1	0	736	1	4	0	120	87	0	2	98
fixed	4	8	6	830227	6	4	4	1	0	736	1	4	0	128	88	0	2	98
fixed	4	8	7	831876	3	1	1	1	0	1010	1	4	0	104	89	0	2	98
fixed	4	8	8	833893	2	3	3	1	0	1204	1	4	0	120	90	0	2	98
fixed	4	8	9	835936	3	2	2	1	0	790	1	4	0	112	91	0	2	98
fixed	4	8	10	837182	1	4	4	1	0	673	1	4	0	128	92	0	2	98
fixed	4	8	11	838596	5	2	2	1	0	822	1	4	0	112	93	0	2	98
fixed	4	8	12	840051	4	3	3	1	0	656	1	4	0	120	94	0	2	98
fixed	4	9	1	841594	4	1	1	1	0	590	1	4	0	104	95	0	2	98
fixed	4	9	2	842608	1	2	2	1	0	1068	1	4	0	112	96	0	2	98
fixed	4	9	3	844382	6	4	4	1	0	640	1	4	0	128	97	0	2	98
fixed	4	9	4	845973	2	1	1	1	0	781	1	4	0	104	98	0	2	98
fixed	4	9	5	847598	5	3	3	1	0	1144	1	4	0	120	99	0	2	98
fixed	4	9	6	849738	6	4	4	1	0	742	1	4	0	128	100	0	2	98
fixed	4	9	7	851121	3	1	1	1	0	707	1	4	0	104	101	0	2	98
fixed	4	9	8	852744	2	3	3	1	0	1158	1	4	0	120	102	0	2	98
fixed	4	9	9	854891	3	2	2	1	0	563	1	4	0	112	103	0	2	98
fixed	4	9	10	855771	1	4	4	1	0	830	1	4	0	128	104	0	2	98
fixed	4	9	11	857106	5	2	2	1	0	958	1	4	0	112	105	0	2	98
fixed	4	9	12	858910	4	3	3	1	0	433	1	4	0	120	106	0	2	98
fixed	4	10	1	860557	4	1	1	1	0	667	1	4	0	104	107	0	2	98
fixed	4	10	2	861925	1	2	2	1	0	1106	1	4	0	112	108	0	2	98
fixed	4	10	3	863635	6	4	4	1	0	625	1	4	0	128	109	0	2	98
fixed	4	10	4	864623	2	1	1	1	0	759	1	4	0	104	110	0	2	98
fixed	4	10	5	866223	5	3	3	1	0	1171	1	4	0	120	111	0	2	98
fixed	4	10	6	868126	6	4	4	1	0	770	1	4	0	128	112	0	2	98
fixed	4	10	7	869201	3	1	1	1	0	1341	1	4	0	104	113	0	2	98
fixed	4	10	8	870949	2	3	3	1	0	1163	1	4	0	120	114	0	2	98
fixed	4	10	9	873148	3	2	2	1	0	710	1	4	0	112	115	0	2	98
fixed	4	10	10	874333	1	4	4	1	0	692	1	4	0	128	116	0	2	98
fixed	4	10	11	876052	5	2	2	1	0	1195	1	4	0	112	117	0	2	98
fixed	4	10	12	878043	4	3	3	1	0	839	1	4	0	120	118	0	2	98
fixed	5	1	1	880236	4	1	1	1	0	633	1	4	0	136	1	0	0	100
fixed	5	1	2	881232	1	2	2	1	0	1216	1	4	0	144	2	0	0	100
fixed	5	1	3	883123	6	4	4	1	0	736	1	4	0	160	3	0	0	100
fixed	5	1	4	884185	2	1	1	1	0	746	1	4	0	136	4	0	0	100
fixed	5	1	5	885541	5	3	3	1	0	985	1	4	0	152	5	0	0	100
fixed	5	1	6	887324	6	4	4	1	0	701	1	4	0	160	6	0	0	100
fixed	5	1	7	888789	3	1	1	1	0	984	1	4	0	136	7	0	0	100
fixed	5	1	8	890520	2	3	3	1	0	1134	1	4	0	152	8	0	0	100
fixed	5	1	9	892623	3	2	2	1	0	653	1	4	0	144	9	0	0	100
fixed	5	1	10	894005	1	4	4	1	0	762	1	4	0	160	10	0	0	100
fixed	5	1	11	895346	5	2	2	1	0	1026	1	4	0	144	11	0	0	100
fixed	5	1	12	897076	4	3	3	1	0	761	1	4	0	152	12	0	0	100
fixed	5	2	1	898734	4	1	1	1	0	674	1	4	0	136	13	0	0	100
fixed	5	2	2	899857	1	2	2	1	0	1211	1	4	0	144	14	0	0	100
fixed	5	2	3	901379	6	4	4	1	0	650	1	4	0	160	15	0	0	100
fixed	5	2	4	903058	2	1	1	1	0	763	1	4	0	136	16	0	0	100
fixed	5	2	5	904152	5	3	3	1	0	1061	1	4	0	152	17	0	0	100
fixed	5	2	6	906160	6	4	4	1	0	696	1	4	0	160	18	0	0	100
fixed	5	2	7	907883	3	1	1	1	0	767	1	4	0	136	19	0	0	100
fixed	5	2	8	909658	2	3	3	1	0	1308	1	4	0	152	20	0	0	100
fixed	5	2	9	911860	3	2	2	1	0	855	1	4	0	144	21	0	0	100
fixed	5	2	10	913399	1	4	4	1	0	861	1	4	0	160	22	0	0	100
fixed	5	2	11	914799	5	2	2	1	0	1090	1	4	0	144	23	0	0	100
fixed	5	2	12	916526	4	3	3	1	0	768	1	4	0	152	24	0	0	100
fixed	5	3	1	917948	4	1	1	1	0	692	1	4	0	136	25	0	0	100
fixed	5	3	2	919627	1	2	2	1	0	1181	1	4	0	144	26	0	0	100
fixed	5	3	3	921541	6	4	4	1	0	708	1	4	0	160	27	0	0	100
fixed	5	3	4	922658	2	1	1	1	0	693	1	4	0	136	28	0	0	100
fixed	5	3	5	924005	5	3	3	2	0	1236	2	4	0	152	29	0	0	100
fixed	5	3	6	926128	6	4	4	1	0	1050	1	4	0	160	30	0	0	100
fixed	5	3	7	927798	3	1	1	1	0	772	1	4	0	136	31	0	0	100
fixed	5	3	8	929283	2	3	3	1	0	916	1	4	0	152	32	0	0	100
fixed	5	3	9	930753	3	2	2	1	0	606	1	4	0	144	33	0	0	100
fixed	5	3	10	932101	1	4	4	1	0	709	1	4	0	160	34	0	0	100
fixed	5	3	11	933172	5	2	2	1	0	968	1	4	0	144	35	0	0	100
fixed	5	3	12	934692	4	3	3	1	0	615	1	4	0	152	36	0	0	100
fixed	5	4	1	936009	4	1	1	1	0	703	1	4	0	136	37	0	0	100
fixed	5	4	2	937440	1	2	2	1	0	1227	1	4	0	144	38	0	0	100
fixed	5	4	3	939157	6	4	4	1	0	802	1	4	0	160	39	0	0	100
fixed	5	4	4	940296	2	1	1	1	0	1194	1	4	0	136	40	0	0	100
fixed	5	4	5	941805	5	3	3	1	0	1170	1	4	0	152	41	0	0	100
fixed	5	4	6	943373	6	4	4	1	0	856	1	4	0	160	42	0	0	100
fixed	5	4	7	945188	3	1	1	1	0	723	1	4	0	136	43	0	0	100
fixed	5	4	8	946655	2	3	3	1	0	1205	1	4	0	152	44	0	0	100
fixed	5	4	9	948903	3	2	2	1	0	966	1	4	0	144	45	0	0	100
fixed	5	4	10	950483	1	4	4	1	0	843	1	4	0	160	46	0	0	100
fixed	5	4	11	952036	5	2	2	1	0	1009	1	4	0	144	47	0	0	100
fixed	5	4	12	953664	4	3	3	1	0	652	1	4	0	152	48	0	0	100
fixed	5	5	1	954955	4	1	1	1	0	669	1	4	0	136	49	0	0	100
fixed	5	5	2	956530	1	2	2	1	0	1122	1	4	0	144	50	0	0	100
fixed	5	5	3	957982	6	4	4	1	0	661	1	4	0	160	51	0	0	100
fixed	5	5	4	959061	2	1	1	1	0	711	1	4	0	136	52	0	0	100
fixed	5	5	5	960566	5	3	3	1	0	1048	1	4	0	152	53	0	0	100
fixed	5	5	6	962286	6	4	4	1	0	647	1	4	0	160	54	0	0	100
fixed	5	5	7	963382	3	1	1	1	0	800	1	4	0	136	55	0	0	100
fixed	5	5	8	964633	2	3	3	1	0	1035	1	4	0	152	56	0	0	100
fixed	5	5	9	966434	3	2	2	1	0	799	1	4	0	144	57	0	0	100
fixed	5	5	10	967840	1	4	4	1	0	683	1	4	0	160	58	0	0	100
fixed	5	5	11	968959	5	2	2	1	0	956	1	4	0	144	59	0	0	100
fixed	5	5	12	970426	4	3	3	1	0	517	1	4	0	152	60	0	0	100
fixed	5	6	1	972098	4	1	1	1	0	695	1	4	0	136	61	0	0	100
fixed	5	6	2	973694	1	2	2	1	0	1140	1	4	0	144	62	0	0	100
fixed	5	6	3	975828	6	4	4	1	0	585	1	4	0	160	63	0	0	100
fixed	5	6	4	976713	2	1	1	1	0	795	1	4	0	136	64	0	0	100
fixed	5	6	5	978378	5	3	3	1	0	1109	1	4	0	152	65	0	0	100
fixed	5	6	6	980341	6	4	4	1	0	706	1	4	0	160	66	0	0	100
fixed	5	6	7	981522	3	1	1	1	0	904	1	4	0	136	67	0	0	100
fixed	5	6	8	983122	2	3	3	1	0	1244	1	4	0	152	68	0	0	100
fixed	5	6	9	985278	3	2	2	1	0	752	1	4	0	144	69	0	0	100
fixed	5	6	10	986793	1	4	4	1	0	713	1	4	0	160	70	0	0	100
fixed	5	6	11	988310	5	2	2	1	0	1048	1	4	0	144	71	0	0	100
fixed	5	6	12	989884	4	3	3	1	0	494	1	4	0	152	72	0	0	100
fixed	5	7	1	991194	4	1	1	1	0	662	1	4	0	136	73	0	0	100
fixed	5	7	2	992853	1	2	2	1	0	1240	1	4	0	144	74	0	0	100
fixed	5	7	3	994818	6	4	4	1	0	620	1	4	0	160	75	0	0	100
fixed	5	7	4	996223	2	1	1	1	0	593	1	4	0	136	76	0	0	100
fixed	5	7	5	997259	5	3	3	1	0	861	1	4	0	152	77	0	0	100
fixed	5	7	6	998895	6	4	4	1	0	656	1	4	0	160	78	0	0	100
fixed	5	7	7	1000255	3	1	1	1	0	902	1	4	0	136	79	0	0	100
fixed	5	7	8	1002008	2	3	3	1	0	1124	1	4	0	152	80	0	0	100
fixed	5	7	9	1003860	3	2	2	1	0	685	1	4	0	144	81	0	0	100
fixed	5	7	10	1005533	1	4	4	1	0	639	1	4	0	160	82	0	0	100
fixed	5	7	11	1006867	5	2	2	1	0	1126	1	4	0	144	83	0	0	100
fixed	5	7	12	1008334	4	3	3	1	0	440	1	4	0	152	84	0	0	100
fixed	5	8	1	1009423	4	1	1	1	0	490	1	4	0	136	85	0	0	100
fixed	5	8	2	1010342	1	2	2	1	0	1179	1	4	0	144	86	0	0	100
fixed	5	8	3	1011976	6	4	4	1	0	606	1	4	0	160	87	0	0	100
fixed	5	8	4	1013220	2	1	1	1	0	889	1	4	0	136	88	0	0	100
fixed	5	8	5	1014996	5	3	3	1	0	806	1	4	0	152	89	0	0	100
fixed	5	8	6	1016354	6	4	4	1	0	788	1	4	0	160	90	0	0	100
fixed	5	8	7	1017844	3	1	1	1	0	645	1	4	0	136	91	0	0	100
fixed	5	8	8	1019498	2	3	3	1	0	1111	1	4	0	152	92	0	0	100
fixed	5	8	9	1021224	3	2	2	1	0	582	1	4	0	144	93	0	0	100
fixed	5	8	10	1022561	1	4	4	1	0	750	1	4	0	160	94	0	0	100
fixed	5	8	11	1023870	5	2	2	1	0	1014	1	4	0	144	95	0	0	100
fixed	5	8	12	1025509	4	3	3	1	0	369	1	4	0	152	96	0	0	100
fixed	5	9	1	1026882	4	1	1	1	0	550	1	4	0	136	97	0	0	100
fixed	5	9	2	1028096	1	2	2	1	0	1067	1	4	0	144	98	0	0	100
fixed	5	9	3	1029606	6	4	4	1	0	555	1	4	0	160	99	0	0	100
fixed	5	9	4	1030520	2	1	1	1	0	973	1	4	0	136	100	0	0	100
fixed	5	9	5	1031937	5	3	3	1	0	1385	1	4	0	152	101	0	0	100
fixed	5	9	6	1033945	6	4	4	1	0	652	1	4	0	160	102	0	0	100
fixed	5	9	7	1035427	3	1	1	1	0	917	1	4	0	136	103	0	0	100
fixed	5	9	8	1037156	2	3	3	1	0	1195	1	4	0	152	104	0	0	100
fixed	5	9	9	1038860	3	2	2	1	0	563	1	4	0	144	105	0	0	100
fixed	5	9	10	1040193	1	4	4	1	0	699	1	4	0	160	106	0	0	100
fixed	5	9	11	1041295	5	2	2	1	0	1140	1	4	0	144	107	0	0	100
fixed	5	9	12	1043301	4	3	3	1	0	319	1	4	0	152	108	0	0	100
fixed	5	10	1	1044843	4	1	1	1	0	422	1	4	0	136	109	0	0	100
fixed	5	10	2	1045751	1	2	2	1	0	1263	1	4	0	144	110	0	0	100
fixed	5	10	3	1047767	6	4	4	1	0	594	1	4	0	160	111	0	0	100
fixed	5	10	4	1049055	2	1	1	1	0	739	1	4	0	136	112	0	0	100
fixed	5	10	5	1050752	5	3	3	1	0	956	1	4	0	152	113	0	0	100
fixed	5	10	6	1052102	6	4	4	1	0	826	1	4	0	160	114	0	0	100
fixed	5	10	7	1053392	3	1	1	1	0	652	1	4	0	136	115	0	0	100
fixed	5	10	8	1054816	2	3	3	1	0	1071	1	4	0	152	116	0	0	100
fixed	5	10	9	1056930	3	2	2	1	0	382	1	4	0	144	117	0	0	100
fixed	5	10	10	1057610	1	4	4	1	0	697	1	4	0	160	118	0	0	100
fixed	5	10	11	1059256	5	2	2	1	0	836	1	4	0	144	119	0	0	100
fixed	5	10	12	1060793	4	3	3	1	0	659	1	4	0	152	120	0	0	100
random	6	1	1	1282891	6	1	1	1	0	771	1	4	0	168	1	0	0	100
random	6	1	2	1284267	4	4	4	1	0	769	1	4	0	192	2	0	0	100
random	6	1	3	1285755	2	2	2	1	0	1074	1	4	0	176	3	0	0	100
random	6	1	4	1287655	3	3	3	1	0	545	1	4	0	184	4	0	0	100
random	6	1	5	1288976	5	2	2	1	0	817	1	4	0	176	5	0	0	100
random	6	1	6	1290653	1	4	4	1	0	739	1	4	0	192	6	0	0	100
random	6	1	7	1292065	6	1	1	1	0	918	1	4	0	168	7	0	0	100
random	6	1	8	1293851	2	3	3	1	0	1179	1	4	0	184	8	0	0	100
random	6	1	9	1295960	4	2	2	1	0	978	1	4	0	176	9	0	0	100
random	6	1	10	1297914	1	1	1	1	0	767	1	4	0	168	10	0	0	100
random	6	1	11	1299255	5	4	4	1	0	734	1	4	0	192	11	0	0	100
random	6	1	12	1300778	3	3	3	1	0	1126	1	4	0	184	12	0	0	100
random	6	1	13	1302491	5	2	2	1	0	1069	1	4	0	176	13	0	0	100
random	6	1	14	1303855	1	4	4	1	0	739	1	4	0	192	14	0	0	100
random	6	1	15	1305503	3	1	1	1	0	837	1	4	0	168	15	0	0	100
random	6	1	16	1307160	4	3	3	2	0	1199	2	4	0	184	16	0	0	100
random	6	1	17	1308700	6	4	4	1	0	822	1	4	0	192	17	0	0	100
random	6	1	18	1310244	2	1	1	1	0	820	1	4	0	168	18	0	0	100
random	6	1	19	1311738	5	3	3	1	0	925	1	4	0	184	19	0	0	100
random	6	1	20	1313666	2	2	2	1	0	916	1	4	0	176	20	0	0	100
random	6	1	21	1315464	3	3	3	1	0	1224	1	4	0	184	21	0	0	100
random	6	1	22	1317219	6	1	1	1	0	933	1	4	0	168	22	0	0	100
random	6	1	23	1318465	4	2	2	1	0	1072	1	4	0	176	23	0	0	100
random	6	1	24	1320065	1	4	4	1	0	693	1	4	0	192	24	0	0	100
random	6	1	25	1321505	4	3	3	1	0	1015	1	4	0	184	25	0	0	100
random	6	1	26	1323524	2	1	1	1	0	786	1	4	0	168	26	0	0	100
random	6	1	27	1324950	5	2	2	1	0	1078	1	4	0	176	27	0	0	100
random	6	1	28	1326326	6	4	4	1	0	756	1	4	0	192	28	0	0	100
random	6	1	29	1327893	1	3	3	1	0	1081	1	4	0	184	29	0	0	100
random	6	1	30	1329911	5	2	2	1	0	748	1	4	0	176	30	0	0	100
random	6	1	31	1331652	2	1	1	1	0	794	1	4	0	168	31	0	0	100
random	6	1	32	1333111	3	3	3	1	0	1060	1	4	0	184	32	0	0	100
random	6	1	33	1335115	6	4	4	1	0	783	1	4	0	192	33	0	0	100
random	6	1	34	1336327	4	2	2	1	0	1116	1	4	0	176	34	0	0	100
random	6	1	35	1338056	3	4	4	1	0	739	1	4	0	192	35	0	0	100
random	6	1	36	1339780	1	1	1	1	0	697	1	4	0	168	36	0	0	100
random	6	1	37	1341237	3	4	4	1	0	764	1	4	0	192	37	0	0	100
random	6	1	38	1342820	5	3	3	1	0	857	1	4	0	184	38	0	0	100
random	6	1	39	1344688	6	1	1	1	0	1354	1	4	0	168	39	0	0	100
random	6	1	40	1346862	1	2	2	1	0	966	1	4	0	176	40	0	0	100
random	6	1	41	1348492	2	3	3	1	0	497	1	4	0	184	41	0	0	100
random	6	1	42	1349790	4	4	4	1	0	569	1	4	0	192	42	0	0	100
random	6	1	43	1351371	1	2	2	1	0	839	1	4	0	176	43	0	0	100
random	6	1	44	1353234	6	3	3	1	0	416	1	4	0	184	44	0	0	100
random	6	1	45	1354640	3	1	1	1	0	836	1	4	0	168	45	0	0	100
random	6	1	46	1356476	4	4	4	1	0	462	1	4	0	192	46	0	0	100
random	6	1	47	1357308	2	2	2	1	0	843	1	4	0	176	47	0	0	100
random	6	1	48	1358734	5	1	1	1	0	935	1	4	0	168	48	0	0	100
random	6	1	49	1360551	2	3	3	1	0	1106	1	4	0	184	49	0	0	100
random	6	1	50	1362524	3	1	1	1	0	806	1	4	0	168	50	0	0	100
random	6	1	51	1364041	1	4	4	1	0	630	1	4	0	192	51	0	0	100
random	6	1	52	1365109	5	3	3	2	0	1569	2	4	0	184	52	0	0	100
random	6	1	53	1367059	3	2	2	1	0	846	1	4	0	176	53	0	0	100
random	6	1	54	1368375	6	4	4	1	0	703	1	4	0	192	54	0	0	100
random	6	1	55	1369774	4	2	2	1	0	947	1	4	0	176	55	0	0	100
random	6	1	56	1371048	1	1	1	1	0	757	1	4	0	168	56	0	0	100
random	6	1	57	1372187	5	4	4	1	0	701	1	4	0	192	57	0	0	100
random	6	1	58	1373532	2	1	1	1	0	988	1	4	0	168	58	0	0	100
random	6	1	59	1375117	6	2	2	1	0	1361	1	4	0	176	59	0	0	100
random	6	1	60	1377296	4	3	3	1	0	509	1	4	0	184	60	0	0	100
random	6	1	61	1378528	1	2	2	1	0	1064	1	4	0	176	61	0	0	100
random	6	1	62	1380280	6	4	4	1	0	718	1	4	0	192	62	0	0	100
random	6	1	63	1381297	4	1	1	1	0	667	1	4	0	168	63	0	0	100
random	6	1	64	1382414	2	2	2	1	0	868	1	4	0	176	64	0	0	100
random	6	1	65	1383661	4	3	3	1	0	663	1	4	0	184	65	0	0	100
random	6	1	66	1385307	3	1	1	1	0	770	1	4	0	168	66	0	0	100
random	6	1	67	1386525	1	3	3	1	0	910	1	4	0	184	67	0	0	100
random	6	1	68	1388450	5	4	4	1	0	748	1	4	0	192	68	0	0	100
random	6	1	69	1389773	2	2	2	1	0	980	1	4	0	176	69	0	0	100
random	6	1	70	1391650	3	1	1	1	0	813	1	4	0	168	70	0	0	100
random	6	1	71	1393004	5	4	4	1	0	691	1	4	0	192	71	0	0	100
random	6	1	72	1394164	6	3	3	1	0	1051	1	4	0	184	72	0	0	100
random	6	1	73	1395871	2	1	1	1	0	746	1	4	0	168	73	0	0	100
random	6	1	74	1397073	5	3	3	1	0	999	1	4	0	184	74	0	0	100
random	6	1	75	1399097	1	4	4	1	0	769	1	4	0	192	75	0	0	100
random	6	1	76	1400808	6	2	2	1	0	913	1	4	0	176	76	0	0	100
random	6	1	77	1402669	2	1	1	1	0	714	1	4	0	168	77	0	0	100
random	6	1	78	1404022	4	4	4	1	0	600	1	4	0	192	78	0	0	100
random	6	1	79	1405262	3	2	2	1	0	1180	1	4	0	176	79	0	0	100
random	6	1	80	1407270	4	3	3	1	0	495	1	4	0	184	80	0	0	100
random	6	1	81	1408585	1	4	4	1	0	687	1	4	0	192	81	0	0	100
random	6	1	82	1410313	5	1	1	1	0	678	1	4	0	168	82	0	0	100
random	6	1	83	1411671	3	2	2	1	0	1021	1	4	0	176	83	0	0	100
random	6	1	84	1413550	6	3	3	1	0	645	1	4	0	184	84	0	0	100
random	6	1	85	1414767	3	2	2	1	0	1001	1	4	0	176	85	0	0	100
random	6	1	86	1416799	1	3	3	1	0	620	1	4	0	184	86	0	0	100
random	6	1	87	1418149	4	4	4	1	0	962	1	4	0	192	87	0	0	100
random	6	1	88	1419853	2	1	1	1	0	490	1	4	0	168	88	0	0	100
random	6	1	89	1421376	6	4	4	1	0	730	1	4	0	192	89	0	0	100
random	6	1	90	1423066	3	3	3	2	0	1874	2	4	0	184	90	0	0	100
random	6	1	91	1425321	5	4	4	1	0	843	1	4	0	192	91	0	0	100
random	6	1	92	1426918	1	2	2	1	0	807	1	4	0	176	92	0	0	100
random	6	1	93	1428136	5	1	1	1	0	771	1	4	0	168	93	0	0	100
random	6	1	94	1429683	4	3	3	1	0	1090	1	4	0	184	94	0	0	100
random	6	1	95	1431374	6	1	1	1	0	1146	1	4	0	168	95	0	0	100
random	6	1	96	1433512	2	2	2	1	0	871	1	4	0	176	96	0	0	100
random	6	1	97	1435334	4	3	3	1	0	898	1	4	0	184	97	0	0	100
random	6	1	98	1436870	3	2	2	1	0	1097	1	4	0	176	98	0	0	100
random	6	1	99	1438887	6	3	3	1	0	964	1	4	0	184	99	0	0	100
random	6	1	100	1440257	1	4	4	1	0	714	1	4	0	192	100	0	0	100
random	6	1	101	1441857	4	1	1	1	0	470	1	4	0	168	101	0	0	100
random	6	1	102	1443353	5	2	2	1	0	999	1	4	0	176	102	0	0	100
random	6	1	103	1444752	2	4	4	1	0	716	1	4	0	192	103	0	0	100
random	6	1	104	1446438	3	1	1	1	0	764	1	4	0	168	104	0	0	100
random	6	1	105	1448080	1	3	3	1	0	1150	1	4	0	184	105	0	0	100
random	6	1	106	1449717	2	2	2	1	0	713	1	4	0	176	106	0	0	100
random	6	1	107	1451084	5	4	4	1	0	776	1	4	0	192	107	0	0	100
random	6	1	108	1452764	6	1	1	1	0	608	1	4	0	168	108	0	0	100
random	6	1	109	1454431	5	4	4	1	0	785	1	4	0	192	109	0	0	100
random	6	1	110	1455640	6	3	3	1	0	814	1	4	0	184	110	0	0	100
random	6	1	111	1457347	2	2	2	1	0	806	1	4	0	176	111	0	0	100
random	6	1	112	1458887	3	1	1	1	0	829	1	4	0	168	112	0	0	100
random	6	1	113	1460739	1	2	2	1	0	983	1	4	0	176	113	0	0	100
random	6	1	114	1462046	2	3	3	1	0	599	1	4	0	184	114	0	0	100
random	6	1	115	1462989	3	1	1	1	0	831	1	4	0	168	115	0	0	100
random	6	1	116	1464521	4	4	4	1	0	694	1	4	0	192	116	0	0	100
random	6	1	117	1466003	6	1	1	1	0	800	1	4	0	168	117	0	0	100
random	6	1	118	1467646	5	3	3	1	0	858	1	4	0	184	118	0	0	100
random	6	1	119	1469530	1	4	4	1	0	786	1	4	0	192	119	0	0	100
random	6	1	120	1470985	4	2	2	1	0	941	1	4	0	176	120	0	0	100
fixed	7	1	1	1472824	4	1	1	1	0	878	1	4	0	200	1	0	0	100
fixed	7	1	2	1474017	1	2	2	1	0	812	1	4	0	208	2	0	0	100
fixed	7	1	3	1475582	6	4	4	1	0	625	1	4	0	224	3	0	0	100
fixed	7	1	4	1477247	2	1	1	1	0	795	1	4	0	200	4	0	0	100
fixed	7	1	5	1478430	5	3	3	1	0	1137	1	4	0	216	5	0	0	100
fixed	7	1	6	1480592	6	4	4	1	0	678	1	4	0	224	6	0	0	100
fixed	7	1	7	1481911	3	1	1	1	0	814	1	4	0	200	7	0	0	100
fixed	7	1	8	1483644	2	3	3	1	0	1188	1	4	0	216	8	0	0	100
fixed	7	1	9	1485167	3	2	2	1	0	628	1	4	0	208	9	0	0	100
fixed	7	1	10	1486129	1	4	4	1	0	659	1	4	0	224	10	0	0	100
fixed	7	1	11	1487314	5	2	2	1	0	937	1	4	0	208	11	0	0	100
fixed	7	1	12	1489175	4	3	3	1	0	722	1	4	0	216	12	0	0	100
fixed	7	2	1	1490904	4	1	1	1	0	601	1	4	0	200	1	0	0	8
fixed	7	2	2	1492232	1	2	2	1	0	913	1	4	0	208	2	0	0	14
fixed	7	2	3	1493962	6	4	4	1	0	663	1	4	0	224	3	0	0	20
fixed	7	2	4	1495188	2	1	1	1	0	715	1	4	0	200	4	0	0	25
fixed	7	2	5	1496468	5	3	3	1	0	1237	1	4	0	216	5	0	0	29
fixed	7	2	6	1498250	6	4	4	1	0	674	1	4	0	224	6	0	0	33
fixed	7	2	7	1499757	3	1	1	1	0	609	1	4	0	200	7	0	0	37
fixed	7	2	8	1500952	2	3	3	1	0	879	1	4	0	216	8	0	0	40
fixed	7	2	9	1502826	3	2	2	1	0	888	1	4	0	208	9	0	0	43
fixed	7	2	10	1504246	1	4	4	1	0	748	1	4	0	224	10	0	0	45
fixed	7	2	11	1505580	5	2	2	1	0	891	1	4	0	208	11	0	0	48
fixed	7	2	12	1507284	4	3	3	1	0	787	1	4	0	216	12	0	0	50
fixed	7	3	1	1508982	4	1	1	1	0	619	1	4	0	200	1	0	0	4
fixed	7	3	2	1510443	1	2	2	1	0	853	1	4	0	208	2	0	0	8
fixed	7	3	3	1512003	6	4	4	1	0	899	1	4	0	224	3	0	0	11
fixed	7	3	4	1513282	2	1	1	1	0	741	1	4	0	200	4	0	0	14
fixed	7	3	5	1514449	5	3	3	1	0	939	1	4	0	216	5	0	0	17
fixed	7	3	6	1516131	6	4	4	1	0	636	1	4	0	224	6	0	0	20
fixed	7	3	7	1517234	3	1	1	1	0	933	1	4	0	200	7	0	0	23
fixed	7	3	8	1518461	2	3	3	1	0	1114	1	4	0	216	8	0	0	25
fixed	7	3	9	1520261	3	2	2	1	0	597	1	4	0	208	9	0	0	27
fixed	7	3	10	1521518	1	4	4	1	0	680	1	4	0	224	10	0	0	29
fixed	7	3	11	1522786	5	2	2	1	0	938	1	4	0	208	11	0	0	31
fixed	7	3	12	1524041	4	3	3	1	0	565	1	4	0	216	12	0	0	33
fixed	7	4	1	1525672	4	1	1	1	0	488	1	4	0	200	1	0	0	3
fixed	7	4	2	1526574	1	2	2	1	0	1066	1	4	0	208	2	0	0	5
fixed	7	4	3	1528522	6	4	4	1	0	632	1	4	0	224	3	0	0	8
fixed	7	4	4	1529482	2	1	1	1	0	823	1	4	0	200	4	0	0	10
fixed	7	4	5	1531089	5	3	3	1	0	1187	1	4	0	216	5	0	0	12
fixed	7	4	6	1533044	6	4	4	1	0	760	1	4	0	224	6	0	0	14
fixed	7	4	7	1534334	3	1	1	1	0	833	1	4	0	200	7	0	0	16
fixed	7	4	8	1535476	2	3	3	1	0	1017	1	4	0	216	8	0	0	18
fixed	7	4	9	1537216	3	2	2	1	0	615	1	4	0	208	9	0	0	20
fixed	7	4	10	1538188	1	4	4	1	0	678	1	4	0	224	10	0	0	22
fixed	7	4	11	1539431	5	2	2	1	0	897	1	4	0	208	11	0	0	23
fixed	7	4	12	1541088	4	3	3	1	0	307	1	4	0	216	12	0	0	25
fixed	7	5	1	1542531	4	1	1	1	0	430	1	4	0	200	1	0	0	2
fixed	7	5	2	1543878	1	2	2	1	0	1021	1	4	0	208	2	0	0	4
fixed	7	5	3	1545518	6	4	4	1	0	648	1	4	0	224	3	0	0	6
fixed	7	5	4	1546713	2	1	1	2	0	1301	2	4	0	200	4	0	0	8
fixed	7	5	5	1548919	5	3	3	1	0	1248	1	4	0	216	5	0	0	9
fixed	7	5	6	1550773	6	4	4	1	0	649	1	4	0	224	6	0	0	11
fixed	7	5	7	1551739	3	1	1	1	0	672	1	4	0	200	7	0	0	13
fixed	7	5	8	1552850	2	3	3	1	0	1257	1	4	0	216	8	0	0	14
fixed	7	5	9	1555043	3	2	2	1	0	556	1	4	0	208	9	0	0	16
fixed	7	5	10	1556369	1	4	4	1	0	660	1	4	0	224	10	0	0	17
fixed	7	5	11	1557497	5	2	2	1	0	949	1	4	0	208	11	0	0	19
fixed	7	5	12	1559292	4	3	3	1	0	344	1	4	0	216	12	0	0	20
fixed	7	6	1	1560926	4	1	1	1	0	483	1	4	0	200	1	0	0	2
fixed	7	6	2	1562300	1	2	2	1	0	881	1	4	0	208	2	0	0	3
fixed	7	6	3	1563823	6	4	4	1	0	584	1	4	0	224	3	0	0	5
fixed	7	6	4	1564822	2	1	1	1	0	726	1	4	0	200	4	0	0	6
fixed	7	6	5	1565929	5	3	3	1	0	1119	1	4	0	216	5	0	0	8
fixed	7	6	6	1567783	6	4	4	1	0	745	1	4	0	224	6	0	0	9
fixed	7	6	7	1569548	3	1	1	1	0	806	1	4	0	200	7	0	0	10
fixed	7	6	8	1571024	2	3	3	1	0	1175	1	4	0	216	8	0	0	12
fixed	7	6	9	1572955	3	2	2	1	0	805	1	4	0	208	9	0	0	13
fixed	7	6	10	1574158	1	4	4	1	0	738	1	4	0	224	10	0	0	14
fixed	7	6	11	1575652	5	2	2	1	0	987	1	4	0	208	11	0	0	15
fixed	7	6	12	1577042	4	3	3	1	0	577	1	4	0	216	12	0	0	17
fixed	7	7	1	1578552	4	1	1	1	0	480	1	4	0	200	1	0	0	1
fixed	7	7	2	1579919	1	2	2	1	0	871	1	4	0	208	2	0	0	3
fixed	7	7	3	1581746	6	4	4	1	0	705	1	4	0	224	3	0	0	4
fixed	7	7	4	1583490	2	1	1	1	0	735	1	4	0	200	4	0	0	5
fixed	7	7	5	1584788	5	3	3	1	0	1144	1	4	0	216	5	0	0	6
fixed	7	7	6	1586499	6	4	4	1	0	640	1	4	0	224	6	0	0	8
fixed	7	7	7	1588129	3	1	1	1	0	779	1	4	0	200	7	0	0	9
fixed	7	7	8	1589382	2	3	3	1	0	1046	1	4	0	216	8	0	0	10
fixed	7	7	9	1590897	3	2	2	1	0	597	1	4	0	208	9	0	0	11
fixed	7	7	10	1592447	1	4	4	1	0	724	1	4	0	224	10	0	0	12
fixed	7	7	11	1594070	5	2	2	1	0	903	1	4	0	208	11	0	0	13
fixed	7	7	12	1595617	4	3	3	1	0	726	1	4	0	216	12	0	0	14
fixed	7	8	1	1597332	4	1	1	1	0	701	1	4	0	200	1	0	0	1
fixed	7	8	2	1598693	1	2	2	1	0	795	1	4	0	208	2	0	0	2
fixed	7	8	3	1599916	6	4	4	1	0	712	1	4	0	224	3	0	0	3
fixed	7	8	4	1601569	2	1	1	1	0	770	1	4	0	200	4	0	0	5
fixed	7	8	5	1603372	5	3	3	1	0	773	1	4	0	216	5	0	0	6
fixed	7	8	6	1604564	6	4	4	1	0	794	1	4	0	224	6	0	0	7
fixed	7	8	7	1605684	3	1	1	1	0	691	1	4	0	200	7	0	0	8
fixed	7	8	8	1607345	2	3	3	1	0	1053	1	4	0	216	8	0	0	9
fixed	7	8	9	1609152	3	2	2	1	0	720	1	4	0	208	9	0	0	10
fixed	7	8	10	1610542	1	4	4	1	0	718	1	4	0	224	10	0	0	11
fixed	7	8	11	1611967	5	2	2	1	0	913	1	4	0	208	11	0	0	12
fixed	7	8	12	1613560	4	3	3	1	0	694	1	4	0	216	12	0	0	13
fixed	7	9	1	1615409	4	1	1	1	0	719	1	4	0	200	1	0	0	1
fixed	7	9	2	1616855	1	2	2	1	0	930	1	4	0	208	2	0	0	2
fixed	7	9	3	1618127	6	4	4	1	0	620	1	4	0	224	3	0	0	3
fixed	7	9	4	1619104	2	1	1	1	0	787	1	4	0	200	4	0	0	4
fixed	7	9	5	1620598	5	3	3	1	0	996	1	4	0	216	5	0	0	5
fixed	7	9	6	1622575	6	4	4	1	0	743	1	4	0	224	6	0	0	6
fixed	7	9	7	1624357	3	1	1	1	0	684	1	4	0	200	7	0	0	7
fixed	7	9	8	1625909	2	3	3	1	0	1331	1	4	0	216	8	0	0	8
fixed	7	9	9	1628101	3	2	2	1	0	566	1	4	0	208	9	0	0	9
fixed	7	9	10	1629264	1	4	4	1	0	660	1	4	0	224	10	0	0	9
fixed	7	9	11	1630716	5	2	2	1	0	1063	1	4	0	208	11	0	0	10
fixed	7	9	12	1632121	4	3	3	1	0	643	1	4	0	216	12	0	0	11
fixed	7	10	1	1633320	4	1	1	1	0	360	1	4	0	200	1	0	0	1
fixed	7	10	2	1634194	1	2	2	1	0	1100	1	4	0	208	2	0	0	2
fixed	7	10	3	1635752	6	4	4	1	0	538	1	4	0	224	3	0	0	3
fixed	7	10	4	1636748	2	1	1	1	0	687	1	4	0	200	4	0	0	4
fixed	7	10	5	1638005	5	3	3	1	0	994	1	4	0	216	5	0	0	4
fixed	7	10	6	1639920	6	4	4	1	0	937	1	4	0	224	6	0	0	5
fixed	7	10	7	1641685	3	1	1	1	0	847	1	4	0	200	7	0	0	6
fixed	7	10	8	1643163	2	3	3	1	0	968	1	4	0	216	8	0	0	7
fixed	7	10	9	1645009	3	2	2	1	0	394	1	4	0	208	9	0	0	8
fixed	7	10	10	1645983	1	4	4	1	0	736	1	4	0	224	10	0	0	8
fixed	7	10	11	1647644	5	2	2	1	0	898	1	4	0	208	11	0	0	9
fixed	7	10	12	1649191	4	3	3	1	0	296	1	4	0	216	12	0	0	10
