type	block	sequ.	trial	time	Pos.	Color	Button	NumRsp	Resp_1	RT_1	R_Code	Resp_2	RT_2	Trigg.	n_hit	n_inc	n_miss	score_%

random	1	1	1	3172	6	1	1	1	0	665	1	4	0	8	1	0	0	100
random	1	1	2	4178	4	4	4	1	0	615	1	4	0	32	2	0	0	100
random	1	1	3	5187	2	2	2	1	0	980	1	4	0	16	3	0	0	100
random	1	1	4	7006	3	3	3	1	0	519	1	4	0	24	4	0	0	100
random	1	1	5	8347	5	2	2	1	0	951	1	4	0	16	5	0	0	100
random	1	1	6	10155	1	4	4	1	0	682	1	4	0	32	6	0	0	100
random	1	1	7	11320	6	1	1	1	0	641	1	4	0	8	7	0	0	100
random	1	1	8	12875	2	3	3	1	0	895	1	4	0	24	8	0	0	100
random	1	1	9	14342	4	2	2	1	0	792	1	4	0	16	9	0	0	100
random	1	1	10	16024	1	1	1	1	0	649	1	4	0	8	10	0	0	100
random	1	1	11	17372	5	4	4	1	0	600	1	4	0	32	11	0	0	100
random	1	1	12	18767	3	3	3	1	0	1229	1	4	0	24	12	0	0	100
random	1	1	13	20884	5	2	2	1	0	1035	1	4	0	16	13	0	0	100
random	1	1	14	22681	1	4	4	1	0	679	1	4	0	32	14	0	0	100
random	1	1	15	24243	3	1	1	1	0	669	1	4	0	8	15	0	0	100
random	1	1	16	25582	4	3	3	1	0	1084	1	4	0	24	16	0	0	100
random	1	1	17	27501	6	4	4	1	0	755	1	4	0	32	17	0	0	100
random	1	1	18	28844	2	1	1	1	0	482	1	4	0	8	18	0	0	100
random	1	1	19	29680	5	3	3	1	0	1303	1	4	0	24	19	0	0	100
random	1	1	20	31659	2	2	2	1	0	707	1	4	0	16	20	0	0	100
random	1	1	21	32673	3	3	3	1	0	784	1	4	0	24	21	0	0	100
random	1	1	22	33763	6	1	1	1	0	762	1	4	0	8	22	0	0	100
random	1	1	23	35362	4	2	2	1	0	1054	1	4	0	16	23	0	0	100
random	1	1	24	37086	1	4	4	1	0	749	1	4	0	32	24	0	0	100
random	1	1	25	38495	4	3	3	1	0	1105	1	4	0	24	25	0	0	100
random	1	1	26	40267	2	1	1	1	0	766	1	4	0	8	26	0	0	100
random	1	1	27	41722	5	2	2	1	0	1009	1	4	0	16	27	0	0	100
random	1	1	28	43080	6	4	4	1	0	647	1	4	0	32	28	0	0	100
random	1	1	29	44250	1	3	3	1	0	870	1	4	0	24	29	0	0	100
random	1	1	30	46108	5	2	2	1	0	663	1	4	0	16	30	0	0	100
random	1	1	31	47366	2	1	1	1	0	665	1	4	0	8	31	0	0	100
random	1	1	32	48800	3	3	3	1	0	1045	1	4	0	24	32	0	0	100
random	1	1	33	50633	6	4	4	1	0	615	1	4	0	32	33	0	0	100
random	1	1	34	52150	4	2	2	1	0	783	1	4	0	16	34	0	0	100
random	1	1	35	53626	3	4	4	1	0	673	1	4	0	32	35	0	0	100
random	1	1	36	55179	1	1	1	1	0	535	1	4	0	8	36	0	0	100
random	1	1	37	56873	3	4	4	1	0	823	1	4	0	32	37	0	0	100
random	1	1	38	58321	5	3	3	1	0	1138	1	4	0	24	38	0	0	100
random	1	1	39	59807	6	1	1	1	0	667	1	4	0	8	39	0	0	100
random	1	1	40	61138	1	2	2	1	0	786	1	4	0	16	40	0	0	100
random	1	1	41	62658	2	3	3	1	0	802	1	4	0	24	41	0	0	100
random	1	1	42	63768	4	4	4	1	0	819	1	4	0	32	42	0	0	100
random	1	1	43	65345	1	2	2	1	0	976	1	4	0	16	43	0	0	100
random	1	1	44	67157	6	3	3	1	0	772	1	4	0	24	44	0	0	100
random	1	1	45	68351	3	1	1	1	0	689	1	4	0	8	45	0	0	100
random	1	1	46	69399	4	4	4	1	0	549	1	4	0	32	46	0	0	100
random	1	1	47	70949	2	2	2	1	0	875	1	4	0	16	47	0	0	100
random	1	1	48	72118	5	1	1	1	0	745	1	4	0	8	48	0	0	100
random	1	1	49	74015	2	3	3	1	0	1161	1	4	0	24	49	0	0	100
random	1	1	50	75976	3	1	1	1	0	686	1	4	0	8	50	0	0	100
random	1	1	51	77174	1	4	4	1	0	451	1	4	0	32	51	0	0	100
random	1	1	52	78464	5	3	3	1	0	1165	1	4	0	24	52	0	0	100
random	1	1	53	80406	3	2	2	1	0	778	1	4	0	16	53	0	0	100
random	1	1	54	81745	6	4	4	1	0	834	1	4	0	32	54	0	0	100
random	1	1	55	82968	4	2	2	1	0	941	1	4	0	16	55	0	0	100
random	1	1	56	84524	1	1	1	1	0	644	1	4	0	8	56	0	0	100
random	1	1	57	85622	5	4	4	1	0	750	1	4	0	32	57	0	0	100
random	1	1	58	87387	2	1	1	2	0	1059	2	4	0	8	58	0	0	100
random	1	1	59	89354	6	2	2	1	0	823	1	4	0	16	59	0	0	100
random	1	1	60	90811	4	3	3	1	0	762	1	4	0	24	60	0	0	100
random	1	1	61	92644	1	2	2	1	0	1068	1	4	0	16	61	0	0	100
random	1	1	62	94253	6	4	4	1	0	648	1	4	0	32	62	0	0	100
random	1	1	63	95728	4	1	1	1	0	506	1	4	0	8	63	0	0	100
random	1	1	64	96654	2	2	2	1	0	1202	1	4	0	16	64	0	0	100
random	1	1	65	98423	4	3	3	1	0	607	1	4	0	24	65	0	0	100
random	1	1	66	99688	3	1	1	1	0	682	1	4	0	8	66	0	0	100
random	1	1	67	100660	1	3	3	1	0	1121	1	4	0	24	67	0	0	100
random	1	1	68	102196	5	4	4	1	0	1128	1	4	0	32	68	0	0	100
random	1	1	69	104062	2	2	2	1	0	872	1	4	0	16	69	0	0	100
random	1	1	70	105833	3	1	1	1	0	661	1	4	0	8	70	0	0	100
random	1	1	71	107412	5	4	4	1	0	586	1	4	0	32	71	0	0	100
random	1	1	72	108909	6	3	3	1	0	963	1	4	0	24	72	0	0	100
random	1	1	73	111006	2	1	1	1	0	914	1	4	0	8	73	0	0	100
random	1	1	74	112769	5	3	3	1	0	976	1	4	0	24	74	0	0	100
random	1	1	75	114562	1	4	4	1	0	691	1	4	0	32	75	0	0	100
random	1	1	76	115776	6	2	2	1	0	872	1	4	0	16	76	0	0	100
random	1	1	77	117620	2	1	1	1	0	730	1	4	0	8	77	0	0	100
random	1	1	78	119221	4	4	4	1	0	447	1	4	0	32	78	0	0	100
random	1	1	79	120318	3	2	2	1	0	856	1	4	0	16	79	0	0	100
random	1	1	80	122029	4	3	3	1	0	504	1	4	0	24	80	0	0	100
random	1	1	81	122965	1	4	4	1	0	712	1	4	0	32	81	0	0	100
random	1	1	82	124247	5	1	1	1	0	514	1	4	0	8	82	0	0	100
random	1	1	83	125583	3	2	2	1	0	921	1	4	0	16	83	0	0	100
random	1	1	84	126856	6	3	3	1	0	587	1	4	0	24	84	0	0	100
random	1	1	85	128382	3	2	2	1	0	922	1	4	0	16	85	0	0	100
random	1	1	86	129735	1	3	3	1	0	489	1	4	0	24	86	0	0	100
random	1	1	87	130539	4	4	4	1	0	895	1	4	0	32	87	0	0	100
random	1	1	88	131871	2	1	1	1	0	527	1	4	0	8	88	0	0	100
random	1	1	89	132992	6	4	4	1	0	1119	1	4	0	32	89	0	0	100
random	1	1	90	134781	3	3	3	1	0	931	1	4	0	24	90	0	0	100
random	1	1	91	136261	5	4	4	1	0	909	1	4	0	32	91	0	0	100
random	1	1	92	137750	1	2	2	1	0	1126	1	4	0	16	92	0	0	100
random	1	1	93	139298	5	1	1	1	0	676	1	4	0	8	93	0	0	100
random	1	1	94	140991	4	3	3	1	0	956	1	4	0	24	94	0	0	100
random	1	1	95	142281	6	1	1	1	0	805	1	4	0	8	95	0	0	100
random	1	1	96	144102	2	2	2	2	0	1168	2	4	0	16	96	0	0	100
random	1	1	97	146543	4	3	3	1	0	1065	1	4	0	24	97	0	0	100
random	1	1	98	148117	3	2	2	1	0	798	1	4	0	16	98	0	0	100
random	1	1	99	149254	6	3	3	1	0	926	1	4	0	24	99	0	0	100
random	1	1	100	151072	1	4	4	1	0	649	1	4	0	32	100	0	0	100
random	1	1	101	152038	4	1	1	1	0	552	1	4	0	8	101	0	0	100
random	1	1	102	153022	5	2	2	1	0	1023	1	4	0	16	102	0	0	100
random	1	1	103	154394	2	4	4	1	0	644	1	4	0	32	103	0	0	100
random	1	1	104	155635	3	1	1	2	0	1088	2	4	0	8	104	0	0	100
random	1	1	105	157286	1	3	3	2	0	1826	2	4	0	24	105	0	0	100
random	1	1	106	160131	2	2	2	1	0	1025	1	4	0	16	106	0	0	100
random	1	1	107	162176	5	4	4	1	0	867	1	4	0	32	107	0	0	100
random	1	1	108	163916	6	1	1	1	0	650	1	4	0	8	108	0	0	100
random	1	1	109	165423	5	4	4	1	0	1217	1	4	0	32	109	0	0	100
random	1	1	110	167120	6	3	3	1	0	1378	1	4	0	24	110	0	0	100
random	1	1	111	169319	2	2	2	1	0	1028	1	4	0	16	111	0	0	100
random	1	1	112	170974	3	1	1	1	0	774	1	4	0	8	112	0	0	100
random	1	1	113	172660	1	2	2	1	0	1119	1	4	0	16	113	0	0	100
random	1	1	114	174323	2	3	3	1	0	665	1	4	0	24	114	0	0	100
random	1	1	115	175735	3	1	1	1	0	773	1	4	0	8	115	0	0	100
random	1	1	116	176811	4	4	4	1	0	631	1	4	0	32	116	0	0	100
random	1	1	117	178130	6	1	1	1	0	751	1	4	0	8	117	0	0	100
random	1	1	118	179763	5	3	3	1	0	938	1	4	0	24	118	0	0	100
random	1	1	119	181140	1	4	4	1	0	792	1	4	0	32	119	0	0	100
random	1	1	120	182322	4	2	2	1	0	782	1	4	0	16	120	0	0	100
fixed	2	1	1	184501	4	1	1	1	0	769	1	4	0	40	1	0	0	100
fixed	2	1	2	185595	1	2	2	1	0	1011	1	4	0	48	2	0	0	100
fixed	2	1	3	187230	6	4	4	1	0	614	1	4	0	64	3	0	0	100
fixed	2	1	4	188411	2	1	1	1	0	755	1	4	0	40	4	0	0	100
fixed	2	1	5	189465	5	3	3	1	0	943	1	4	0	56	5	0	0	100
fixed	2	1	6	191096	6	4	4	1	0	986	1	4	0	64	6	0	0	100
fixed	2	1	7	192392	3	1	1	1	0	947	1	4	0	40	7	0	0	100
fixed	2	1	8	193908	2	3	3	1	0	1107	1	4	0	56	8	0	0	100
fixed	2	1	9	195443	3	2	2	1	0	826	1	4	0	48	9	0	0	100
fixed	2	1	10	196871	1	4	4	1	0	797	1	4	0	64	10	0	0	100
fixed	2	1	11	198491	5	2	2	1	0	945	1	4	0	48	11	0	0	100
fixed	2	1	12	200248	4	3	3	1	0	454	1	4	0	56	12	0	0	100
fixed	2	2	1	201645	4	1	1	1	0	603	1	4	0	40	13	0	0	100
fixed	2	2	2	202601	1	2	2	1	0	1043	1	4	0	48	14	0	0	100
fixed	2	2	3	203985	6	4	4	1	0	624	1	4	0	64	15	0	0	100
fixed	2	2	4	205098	2	1	1	1	0	825	1	4	0	40	16	0	0	100
fixed	2	2	5	206332	5	3	3	1	0	997	1	4	0	56	17	0	0	100
fixed	2	2	6	208161	6	4	4	1	0	711	1	4	0	64	18	0	0	100
fixed	2	2	7	209164	3	1	1	1	0	781	1	4	0	40	19	0	0	100
fixed	2	2	8	210262	2	3	3	1	0	1055	1	4	0	56	20	0	0	100
fixed	2	2	9	212005	3	2	2	1	0	620	1	4	0	48	21	0	0	100
fixed	2	2	10	212965	1	4	4	1	0	748	1	4	0	64	22	0	0	100
fixed	2	2	11	214048	5	2	2	1	0	886	1	4	0	48	23	0	0	100
fixed	2	2	12	215718	4	3	3	1	0	847	1	4	0	56	24	0	0	100
fixed	2	3	1	217133	4	1	1	1	0	731	1	4	0	40	25	0	0	100
fixed	2	3	2	218244	1	2	2	1	0	996	1	4	0	48	26	0	0	100
fixed	2	3	3	219899	6	4	4	1	0	526	1	4	0	64	27	0	0	100
fixed	2	3	4	221263	2	1	1	1	0	724	1	4	0	40	28	0	0	100
fixed	2	3	5	222885	5	3	3	1	0	1008	1	4	0	56	29	0	0	100
fixed	2	3	6	224826	6	4	4	1	0	621	1	4	0	64	30	0	0	100
fixed	2	3	7	225906	3	1	1	1	0	711	1	4	0	40	31	0	0	100
fixed	2	3	8	227332	2	3	3	1	0	1043	1	4	0	56	32	0	0	100
fixed	2	3	9	229007	3	2	2	1	0	653	1	4	0	48	33	0	0	100
fixed	2	3	10	230208	1	4	4	1	0	866	1	4	0	64	34	0	0	100
fixed	2	3	11	231389	5	2	2	1	0	1143	1	4	0	48	35	0	0	100
fixed	2	3	12	232838	4	3	3	1	0	906	1	4	0	56	36	0	0	100
fixed	2	4	1	234660	4	1	1	1	0	757	1	4	0	40	37	0	0	100
fixed	2	4	2	236139	1	2	2	1	0	958	1	4	0	48	38	0	0	100
fixed	2	4	3	237586	6	4	4	1	0	697	1	4	0	64	39	0	0	100
fixed	2	4	4	239068	2	1	1	1	0	746	1	4	0	40	40	0	0	100
fixed	2	4	5	240309	5	3	3	1	0	941	1	4	0	56	41	0	0	100
fixed	2	4	6	241618	6	4	4	1	0	694	1	4	0	64	42	0	0	100
fixed	2	4	7	242804	3	1	1	1	0	772	1	4	0	40	43	0	0	100
fixed	2	4	8	244222	2	3	3	1	0	1120	1	4	0	56	44	0	0	100
fixed	2	4	9	245853	3	2	2	1	0	634	1	4	0	48	45	0	0	100
fixed	2	4	10	247074	1	4	4	1	0	631	1	4	0	64	46	0	0	100
fixed	2	4	11	248468	5	2	2	1	0	964	1	4	0	48	47	0	0	100
fixed	2	4	12	250138	4	3	3	1	0	613	1	4	0	56	48	0	0	100
fixed	2	5	1	251735	4	1	1	1	0	641	1	4	0	40	49	0	0	100
fixed	2	5	2	252732	1	2	2	1	0	1168	1	4	0	48	50	0	0	100
fixed	2	5	3	254922	6	4	4	1	0	691	1	4	0	64	51	0	0	100
fixed	2	5	4	256213	2	1	1	1	0	708	1	4	0	40	52	0	0	100
fixed	2	5	5	257221	5	3	3	1	0	937	1	4	0	56	53	0	0	100
fixed	2	5	6	258706	6	4	4	1	0	778	1	4	0	64	54	0	0	100
fixed	2	5	7	260124	3	1	1	1	0	590	1	4	0	40	55	0	0	100
fixed	2	5	8	261218	2	3	3	1	0	1136	1	4	0	56	56	0	0	100
fixed	2	5	9	263333	3	2	2	1	0	694	1	4	0	48	57	0	0	100
fixed	2	5	10	264796	1	4	4	1	0	665	1	4	0	64	58	0	0	100
fixed	2	5	11	265941	5	2	2	1	0	823	1	4	0	48	59	0	0	100
fixed	2	5	12	267707	4	3	3	1	0	877	1	4	0	56	60	0	0	100
fixed	2	6	1	269579	4	1	1	1	0	566	1	4	0	40	61	0	0	100
fixed	2	6	2	271180	1	2	2	1	0	1034	1	4	0	48	62	0	0	100
fixed	2	6	3	273221	6	4	4	1	0	603	1	4	0	64	63	0	0	100
fixed	2	6	4	274376	2	1	1	1	0	715	1	4	0	40	64	0	0	100
fixed	2	6	5	275806	5	3	3	1	0	950	1	4	0	56	65	0	0	100
fixed	2	6	6	277572	6	4	4	1	0	779	1	4	0	64	66	0	0	100
fixed	2	6	7	278646	3	1	1	1	0	606	1	4	0	40	67	0	0	100
fixed	2	6	8	280192	2	3	3	1	0	1148	1	4	0	56	68	0	0	100
fixed	2	6	9	281803	3	2	2	1	0	576	1	4	0	48	69	0	0	100
fixed	2	6	10	282856	1	4	4	1	0	612	1	4	0	64	70	0	0	100
fixed	2	6	11	284441	5	2	2	1	0	937	1	4	0	48	71	0	0	100
fixed	2	6	12	285786	4	3	3	1	0	695	1	4	0	56	72	0	0	100
fixed	2	7	1	287356	4	1	1	1	0	573	1	4	0	40	73	0	0	100
fixed	2	7	2	288488	1	2	2	1	0	1077	1	4	0	48	74	0	0	100
fixed	2	7	3	290551	6	4	4	1	0	597	1	4	0	64	75	0	0	100
fixed	2	7	4	291633	2	1	1	1	0	664	1	4	0	40	76	0	0	100
fixed	2	7	5	293276	5	3	3	1	0	842	1	4	0	56	77	0	0	100
fixed	2	7	6	294473	6	4	4	1	0	711	1	4	0	64	78	0	0	100
fixed	2	7	7	295688	3	1	1	1	0	556	1	4	0	40	79	0	0	100
fixed	2	7	8	296800	2	3	3	2	0	1221	2	4	0	56	80	0	0	100
fixed	2	7	9	299019	3	2	2	1	0	679	1	4	0	48	81	0	0	100
fixed	2	7	10	300128	1	4	4	1	0	696	1	4	0	64	82	0	0	100
fixed	2	7	11	301398	5	2	2	1	0	858	1	4	0	48	83	0	0	100
fixed	2	7	12	302601	4	3	3	1	0	671	1	4	0	56	84	0	0	100
fixed	2	8	1	304498	4	1	1	1	0	607	1	4	0	40	85	0	0	100
fixed	2	8	2	305855	1	2	2	1	0	1197	1	4	0	48	86	0	0	100
fixed	2	8	3	308082	6	4	4	1	0	639	1	4	0	64	87	0	0	100
fixed	2	8	4	309610	2	1	1	1	0	654	1	4	0	40	88	0	0	100
fixed	2	8	5	310949	5	3	3	1	0	973	1	4	0	56	89	0	0	100
fixed	2	8	6	312734	6	4	4	1	0	642	1	4	0	64	90	0	0	100
fixed	2	8	7	313924	3	1	1	1	0	727	1	4	0	40	91	0	0	100
fixed	2	8	8	315235	2	3	3	1	0	1000	1	4	0	56	92	0	0	100
fixed	2	8	9	317202	3	2	2	1	0	821	1	4	0	48	93	0	0	100
fixed	2	8	10	318980	1	4	4	1	0	754	1	4	0	64	94	0	0	100
fixed	2	8	11	320085	5	2	2	1	0	930	1	4	0	48	95	0	0	100
fixed	2	8	12	321735	4	3	3	1	0	437	1	4	0	56	96	0	0	100
fixed	2	9	1	323260	4	1	1	1	0	756	1	4	0	40	97	0	0	100
fixed	2	9	2	324363	1	2	2	1	0	1157	1	4	0	48	98	0	0	100
fixed	2	9	3	326073	6	4	4	1	0	629	1	4	0	64	99	0	0	100
fixed	2	9	4	327167	2	1	1	1	0	742	1	4	0	40	100	0	0	100
fixed	2	9	5	328754	5	3	3	1	0	1004	1	4	0	56	101	0	0	100
fixed	2	9	6	330047	6	4	4	1	0	677	1	4	0	64	102	0	0	100
fixed	2	9	7	331424	3	1	1	1	0	651	1	4	0	40	103	0	0	100
fixed	2	9	8	332589	2	3	3	1	0	969	1	4	0	56	104	0	0	100
fixed	2	9	9	334402	3	2	2	1	0	708	1	4	0	48	105	0	0	100
fixed	2	9	10	336143	1	4	4	1	0	810	1	4	0	64	106	0	0	100
fixed	2	9	11	337667	5	2	2	1	0	906	1	4	0	48	107	0	0	100
fixed	2	9	12	339108	4	3	3	1	0	645	1	4	0	56	108	0	0	100
fixed	2	10	1	340553	4	1	1	1	0	615	1	4	0	40	109	0	0	100
fixed	2	10	2	342012	1	2	2	1	0	914	1	4	0	48	110	0	0	100
fixed	2	10	3	343886	6	4	4	1	0	771	1	4	0	64	111	0	0	100
fixed	2	10	4	345237	2	1	1	1	0	641	1	4	0	40	112	0	0	100
fixed	2	10	5	346209	5	3	3	1	0	1056	1	4	0	56	113	0	0	100
fixed	2	10	6	348253	6	4	4	1	0	897	1	4	0	64	114	0	0	100
fixed	2	10	7	349925	3	1	1	1	0	786	1	4	0	40	115	0	0	100
fixed	2	10	8	351474	2	3	3	1	0	1041	1	4	0	56	116	0	0	100
fixed	2	10	9	353083	3	2	2	1	0	701	1	4	0	48	117	0	0	100
fixed	2	10	10	354248	1	4	4	1	0	660	1	4	0	64	118	0	0	100
fixed	2	10	11	355476	5	2	2	1	0	840	1	4	0	48	119	0	0	100
fixed	2	10	12	357343	4	3	3	1	0	864	1	4	0	56	120	0	0	100
fixed	3	1	1	359747	4	1	1	1	0	482	1	4	0	72	1	0	0	100
fixed	3	1	2	360835	1	2	2	1	0	1156	1	4	0	80	2	0	0	100
fixed	3	1	3	362318	6	4	4	2	0	1142	2	4	0	96	3	0	0	100
fixed	3	1	4	364230	2	1	1	1	0	837	1	4	0	72	4	0	0	100
fixed	3	1	5	365448	5	3	3	1	0	1033	1	4	0	88	5	0	0	100
fixed	3	1	6	366924	6	4	4	1	0	619	1	4	0	96	6	0	0	100
fixed	3	1	7	368252	3	1	1	1	0	690	1	4	0	72	7	0	0	100
fixed	3	1	8	369560	2	3	3	1	0	1203	1	4	0	88	8	0	0	100
fixed	3	1	9	371077	3	2	2	1	0	659	1	4	0	80	9	0	0	100
fixed	3	1	10	372217	1	4	4	1	0	690	1	4	0	96	10	0	0	100
fixed	3	1	11	373319	5	2	2	1	0	916	1	4	0	80	11	0	0	100
fixed	3	1	12	374777	4	3	3	1	0	550	1	4	0	88	12	0	0	100
fixed	3	2	1	376324	4	1	1	1	0	588	1	4	0	72	13	0	0	100
fixed	3	2	2	377488	1	2	2	1	0	1300	1	4	0	80	14	0	0	100
fixed	3	2	3	379452	6	4	4	1	0	800	1	4	0	96	15	0	0	100
fixed	3	2	4	381020	2	1	1	1	0	598	1	4	0	72	16	0	0	100
fixed	3	2	5	382273	5	3	3	1	0	888	1	4	0	88	17	0	0	100
fixed	3	2	6	383844	6	4	4	1	0	686	1	4	0	96	18	0	0	100
fixed	3	2	7	385554	3	1	1	1	0	622	1	4	0	72	19	0	0	100
fixed	3	2	8	386675	2	3	3	1	0	1174	1	4	0	88	20	0	0	100
fixed	3	2	9	388258	3	2	2	1	0	731	1	4	0	80	21	0	0	100
fixed	3	2	10	389339	1	4	4	1	0	693	1	4	0	96	22	0	0	100
fixed	3	2	11	390859	5	2	2	1	0	957	1	4	0	80	23	0	0	100
fixed	3	2	12	392811	4	3	3	1	0	387	1	4	0	88	24	0	0	100
fixed	3	3	1	394452	4	1	1	1	0	661	1	4	0	72	25	0	0	100
fixed	3	3	2	396076	1	2	2	1	0	904	1	4	0	80	26	0	0	100
fixed	3	3	3	397289	6	4	4	1	0	740	1	4	0	96	27	0	0	100
fixed	3	3	4	398463	2	1	1	1	0	539	1	4	0	72	28	0	0	100
fixed	3	3	5	399455	5	3	3	1	0	953	1	4	0	88	29	0	0	100
fixed	3	3	6	401177	6	4	4	1	0	1104	1	4	0	96	30	0	0	100
fixed	3	3	7	402775	3	1	1	1	0	716	1	4	0	72	31	0	0	100
fixed	3	3	8	404523	2	3	3	2	0	1706	2	4	0	88	32	0	0	100
fixed	3	3	9	407239	3	2	2	1	0	919	1	4	0	80	33	0	0	100
fixed	3	3	10	408584	1	4	4	1	0	694	1	4	0	96	34	0	0	100
fixed	3	3	11	410257	5	2	2	1	0	1111	1	4	0	80	35	0	0	100
fixed	3	3	12	412262	4	3	3	1	0	618	1	4	0	88	36	0	0	100
fixed	3	4	1	413448	4	1	1	1	0	664	1	4	0	72	37	0	0	100
fixed	3	4	2	414937	1	2	2	1	0	1209	1	4	0	80	38	0	0	100
fixed	3	4	3	416738	6	4	4	1	0	636	1	4	0	96	39	0	0	100
fixed	3	4	4	417754	2	1	1	1	0	762	1	4	0	72	40	0	0	100
fixed	3	4	5	419173	5	3	3	1	0	1262	1	4	0	88	41	0	0	100
fixed	3	4	6	421390	6	4	4	1	0	704	1	4	0	96	42	0	0	100
fixed	3	4	7	422583	3	1	1	1	0	590	1	4	0	72	43	0	0	100
fixed	3	4	8	423743	2	3	3	1	0	1156	1	4	0	88	44	0	0	100
fixed	3	4	9	425368	3	2	2	1	0	559	1	4	0	80	45	0	0	100
fixed	3	4	10	426695	1	4	4	1	0	727	1	4	0	96	46	0	0	100
fixed	3	4	11	428056	5	2	2	1	0	966	1	4	0	80	47	0	0	100
fixed	3	4	12	429932	4	3	3	1	0	870	1	4	0	88	48	0	0	100
fixed	3	5	1	431860	4	1	1	1	0	580	1	4	0	72	49	0	0	100
fixed	3	5	2	433362	1	2	2	1	0	900	1	4	0	80	50	0	0	100
fixed	3	5	3	435048	6	4	4	1	0	694	1	4	0	96	51	0	0	100
fixed	3	5	4	436721	2	1	1	1	0	486	1	4	0	72	52	0	0	100
fixed	3	5	5	438191	5	3	3	2	0	1440	2	4	0	88	53	0	0	100
fixed	3	5	6	440158	6	4	4	1	0	725	1	4	0	96	54	0	0	100
fixed	3	5	7	441916	3	1	1	1	0	682	1	4	0	72	55	0	0	100
fixed	3	5	8	443501	2	3	3	1	0	1080	1	4	0	88	56	0	0	100
fixed	3	5	9	444881	3	2	2	1	0	669	1	4	0	80	57	0	0	100
fixed	3	5	10	446100	1	4	4	1	0	705	1	4	0	96	58	0	0	100
fixed	3	5	11	447826	5	2	2	1	0	1248	1	4	0	80	59	0	0	100
fixed	3	5	12	450041	4	3	3	1	0	706	1	4	0	88	60	0	0	100
fixed	3	6	1	451492	4	1	1	1	0	717	1	4	0	72	61	0	0	100
fixed	3	6	2	452705	1	2	2	1	0	1186	1	4	0	80	62	0	0	100
fixed	3	6	3	454742	6	4	4	1	0	699	1	4	0	96	63	0	0	100
fixed	3	6	4	455993	2	1	1	1	0	718	1	4	0	72	64	0	0	100
fixed	3	6	5	457424	5	3	3	1	0	1009	1	4	0	88	65	0	0	100
fixed	3	6	6	459476	6	4	4	1	0	674	1	4	0	96	66	0	0	100
fixed	3	6	7	460851	3	1	1	1	0	776	1	4	0	72	67	0	0	100
fixed	3	6	8	462366	2	3	3	1	0	1136	1	4	0	88	68	0	0	100
fixed	3	6	9	464166	3	2	2	1	0	492	1	4	0	80	69	0	0	100
fixed	3	6	10	465270	1	4	4	1	0	630	1	4	0	96	70	0	0	100
fixed	3	6	11	466832	5	2	2	1	0	915	1	4	0	80	71	0	0	100
fixed	3	6	12	468611	4	3	3	1	0	888	1	4	0	88	72	0	0	100
fixed	3	7	1	470304	4	1	1	1	0	664	1	4	0	72	73	0	0	100
fixed	3	7	2	471577	1	2	2	1	0	1002	1	4	0	80	74	0	0	100
fixed	3	7	3	473434	6	4	4	1	0	644	1	4	0	96	75	0	0	100
fixed	3	7	4	474685	2	1	1	1	0	630	1	4	0	72	76	0	0	100
fixed	3	7	5	475786	5	3	3	1	0	1208	1	4	0	88	77	0	0	100
fixed	3	7	6	477561	6	4	4	1	0	829	1	4	0	96	78	0	0	100
fixed	3	7	7	479200	3	1	1	1	0	799	1	4	0	72	79	0	0	100
fixed	3	7	8	480756	2	3	3	1	0	1022	1	4	0	88	80	0	0	100
fixed	3	7	9	482694	3	2	2	1	0	739	1	4	0	80	81	0	0	100
fixed	3	7	10	483902	1	4	4	1	0	656	1	4	0	96	82	0	0	100
fixed	3	7	11	485187	5	2	2	1	0	874	1	4	0	80	83	0	0	100
fixed	3	7	12	487017	4	3	3	1	0	980	1	4	0	88	84	0	0	100
fixed	3	8	1	488983	4	1	1	1	0	593	1	4	0	72	85	0	0	100
fixed	3	8	2	490107	1	2	2	1	0	1041	1	4	0	80	86	0	0	100
fixed	3	8	3	491532	6	4	4	1	0	581	1	4	0	96	87	0	0	100
fixed	3	8	4	492588	2	1	1	1	0	521	1	4	0	72	88	0	0	100
fixed	3	8	5	493587	5	3	3	1	0	878	1	4	0	88	89	0	0	100
fixed	3	8	6	494761	6	4	4	1	0	773	1	4	0	96	90	0	0	100
fixed	3	8	7	496175	3	1	1	1	0	728	1	4	0	72	91	0	0	100
fixed	3	8	8	497468	2	3	3	1	0	1065	1	4	0	88	92	0	0	100
fixed	3	8	9	499450	3	2	2	1	0	622	1	4	0	80	93	0	0	100
fixed	3	8	10	500512	1	4	4	1	0	744	1	4	0	96	94	0	0	100
fixed	3	8	11	501871	5	2	2	1	0	951	1	4	0	80	95	0	0	100
fixed	3	8	12	503650	4	3	3	1	0	787	1	4	0	88	96	0	0	100
fixed	3	9	1	505357	4	1	1	1	0	675	1	4	0	72	97	0	0	100
fixed	3	9	2	506604	1	2	2	1	0	871	1	4	0	80	98	0	0	100
fixed	3	9	3	508286	6	4	4	1	0	711	1	4	0	96	99	0	0	100
fixed	3	9	4	509499	2	1	1	1	0	492	1	4	0	72	100	0	0	100
fixed	3	9	5	510858	5	3	3	1	0	1202	1	4	0	88	101	0	0	100
fixed	3	9	6	512885	6	4	4	1	0	701	1	4	0	96	102	0	0	100
fixed	3	9	7	514554	3	1	1	1	0	742	1	4	0	72	103	0	0	100
fixed	3	9	8	516135	2	3	3	1	0	987	1	4	0	88	104	0	0	100
fixed	3	9	9	517897	3	2	2	1	0	400	1	4	0	80	105	0	0	100
fixed	3	9	10	519255	1	4	4	1	0	671	1	4	0	96	106	0	0	100
fixed	3	9	11	520530	5	2	2	1	0	841	1	4	0	80	107	0	0	100
fixed	3	9	12	522307	4	3	3	1	0	942	1	4	0	88	108	0	0	100
fixed	3	10	1	523819	4	1	1	1	0	797	1	4	0	72	109	0	0	100
fixed	3	10	2	525361	1	2	2	1	0	948	1	4	0	80	110	0	0	100
fixed	3	10	3	526694	6	4	4	1	0	668	1	4	0	96	111	0	0	100
fixed	3	10	4	528031	2	1	1	1	0	627	1	4	0	72	112	0	0	100
fixed	3	10	5	529645	5	3	3	1	0	887	1	4	0	88	113	0	0	100
fixed	3	10	6	531193	6	4	4	1	0	677	1	4	0	96	114	0	0	100
fixed	3	10	7	532203	3	1	1	1	0	835	1	4	0	72	115	0	0	100
fixed	3	10	8	533449	2	3	3	1	0	1134	1	4	0	88	116	0	0	100
fixed	3	10	9	535078	3	2	2	1	0	640	1	4	0	80	117	0	0	100
fixed	3	10	10	536299	1	4	4	1	0	653	1	4	0	96	118	0	0	100
fixed	3	10	11	537919	5	2	2	1	0	928	1	4	0	80	119	0	0	100
fixed	3	10	12	539181	4	3	3	1	0	763	1	4	0	88	120	0	0	100
fixed	4	1	1	658881	4	1	1	1	0	637	1	4	0	104	1	0	0	100
fixed	4	1	2	659988	1	2	2	1	0	710	1	4	0	112	2	0	0	100
fixed	4	1	3	661064	6	4	4	1	0	593	1	4	0	128	3	0	0	100
fixed	4	1	4	662534	2	1	1	1	0	538	1	4	0	104	4	0	0	100
fixed	4	1	5	663827	5	3	3	1	0	1099	1	4	0	120	5	0	0	100
fixed	4	1	6	665826	6	4	4	1	0	679	1	4	0	128	6	0	0	100
fixed	4	1	7	666918	3	1	1	1	0	808	1	4	0	104	7	0	0	100
fixed	4	1	8	668457	2	3	3	1	0	831	1	4	0	120	8	0	0	100
fixed	4	1	9	669943	3	2	2	1	0	624	1	4	0	112	9	0	0	100
fixed	4	1	10	671097	1	4	4	1	0	671	1	4	0	128	10	0	0	100
fixed	4	1	11	672278	5	2	2	1	0	798	1	4	0	112	11	0	0	100
fixed	4	1	12	673831	4	3	3	1	0	852	1	4	0	120	12	0	0	100
fixed	4	2	1	675474	4	1	1	1	0	598	1	4	0	104	13	0	0	100
fixed	4	2	2	676640	1	2	2	1	0	685	1	4	0	112	14	0	0	100
fixed	4	2	3	677881	6	4	4	1	0	656	1	4	0	128	15	0	0	100
fixed	4	2	4	678978	2	1	1	1	0	674	1	4	0	104	16	0	0	100
fixed	4	2	5	680605	5	3	3	1	0	869	1	4	0	120	17	0	0	100
fixed	4	2	6	682176	6	4	4	1	0	754	1	4	0	128	18	0	0	100
fixed	4	2	7	683738	3	1	1	1	0	752	1	4	0	104	19	0	0	100
fixed	4	2	8	684964	2	3	3	1	0	1052	1	4	0	120	20	0	0	100
fixed	4	2	9	686951	3	2	2	1	0	632	1	4	0	112	21	0	0	100
fixed	4	2	10	688087	1	4	4	1	0	600	1	4	0	128	22	0	0	100
fixed	4	2	11	689596	5	2	2	1	0	840	1	4	0	112	23	0	0	100
fixed	4	2	12	691068	4	3	3	1	0	1034	1	4	0	120	24	0	0	100
fixed	4	3	1	693101	4	1	1	1	0	619	1	4	0	104	25	0	0	100
fixed	4	3	2	694675	1	2	2	1	0	889	1	4	0	112	26	0	0	100
fixed	4	3	3	696116	6	4	4	1	0	564	1	4	0	128	27	0	0	100
fixed	4	3	4	697452	2	1	1	1	0	699	1	4	0	104	28	0	0	100
fixed	4	3	5	698561	5	3	3	1	0	1053	1	4	0	120	29	0	0	100
fixed	4	3	6	700046	6	4	4	1	0	750	1	4	0	128	30	0	0	100
fixed	4	3	7	701609	3	1	1	1	0	723	1	4	0	104	31	0	0	100
fixed	4	3	8	703169	2	3	3	1	0	1017	1	4	0	120	32	0	0	100
fixed	4	3	9	704524	3	2	2	1	0	704	1	4	0	112	33	0	0	100
fixed	4	3	10	705537	1	4	4	1	0	701	1	4	0	128	34	0	0	100
fixed	4	3	11	706977	5	2	2	1	0	784	1	4	0	112	35	0	0	100
fixed	4	3	12	708532	4	3	3	1	0	742	1	4	0	120	36	0	0	100
fixed	4	4	1	710310	4	1	1	1	0	602	1	4	0	104	37	0	0	100
fixed	4	4	2	711587	1	2	2	1	0	717	1	4	0	112	38	0	0	100
fixed	4	4	3	712957	6	4	4	1	0	643	1	4	0	128	39	0	0	100
fixed	4	4	4	714499	2	1	1	1	0	825	1	4	0	104	40	0	0	100
fixed	4	4	5	716128	5	3	3	1	0	1004	1	4	0	120	41	0	0	100
fixed	4	4	6	717521	6	4	4	1	0	801	1	4	0	128	42	0	0	100
fixed	4	4	7	719142	3	1	1	1	0	861	1	4	0	104	43	0	0	100
fixed	4	4	8	720962	2	3	3	1	0	928	1	4	0	120	44	0	0	100
fixed	4	4	9	722786	3	2	2	1	0	674	1	4	0	112	45	0	0	100
fixed	4	4	10	724423	1	4	4	1	0	653	1	4	0	128	46	0	0	100
fixed	4	4	11	725807	5	2	2	1	0	930	1	4	0	112	47	0	0	100
fixed	4	4	12	727298	4	3	3	1	0	643	1	4	0	120	48	0	0	100
fixed	4	5	1	728555	4	1	1	1	0	702	1	4	0	104	49	0	0	100
fixed	4	5	2	730194	1	2	2	1	0	1008	1	4	0	112	50	0	0	100
fixed	4	5	3	731836	6	4	4	1	0	667	1	4	0	128	51	0	0	100
fixed	4	5	4	733259	2	1	1	1	0	767	1	4	0	104	52	0	0	100
fixed	4	5	5	734365	5	3	3	1	0	1000	1	4	0	120	53	0	0	100
fixed	4	5	6	735853	6	4	4	1	0	721	1	4	0	128	54	0	0	100
fixed	4	5	7	737038	3	1	1	1	0	727	1	4	0	104	55	0	0	100
fixed	4	5	8	738305	2	3	3	1	0	977	1	4	0	120	56	0	0	100
fixed	4	5	9	739812	3	2	2	1	0	569	1	4	0	112	57	0	0	100
fixed	4	5	10	740671	1	4	4	1	0	613	1	4	0	128	58	0	0	100
fixed	4	5	11	741780	5	2	2	1	0	766	1	4	0	112	59	0	0	100
fixed	4	5	12	743442	4	3	3	1	0	663	1	4	0	120	60	0	0	100
fixed	4	6	1	745062	4	1	1	1	0	682	1	4	0	104	61	0	0	100
fixed	4	6	2	746382	1	2	2	1	0	955	1	4	0	112	62	0	0	100
fixed	4	6	3	747656	6	4	4	1	0	557	1	4	0	128	63	0	0	100
fixed	4	6	4	748883	2	1	1	1	0	697	1	4	0	104	64	0	0	100
fixed	4	6	5	750546	5	3	3	1	0	994	1	4	0	120	65	0	0	100
fixed	4	6	6	751857	6	4	4	1	0	651	1	4	0	128	66	0	0	100
fixed	4	6	7	753338	3	1	1	1	0	604	1	4	0	104	67	0	0	100
fixed	4	6	8	754823	2	3	3	1	0	1013	1	4	0	120	68	0	0	100
fixed	4	6	9	756426	3	2	2	1	0	825	1	4	0	112	69	0	0	100
fixed	4	6	10	757822	1	4	4	1	0	919	1	4	0	128	70	0	0	100
fixed	4	6	11	759618	5	2	2	1	0	746	1	4	0	112	71	0	0	100
fixed	4	6	12	760946	4	3	3	1	0	802	1	4	0	120	72	0	0	100
fixed	4	7	1	762738	4	1	1	1	0	502	1	4	0	104	73	0	0	100
fixed	4	7	2	763878	1	2	2	1	0	646	1	4	0	112	74	0	0	100
fixed	4	7	3	764977	6	4	4	1	0	559	1	4	0	128	75	0	0	100
fixed	4	7	4	766111	2	1	1	1	0	783	1	4	0	104	76	0	0	100
fixed	4	7	5	767227	5	3	3	1	0	1456	1	4	0	120	77	0	0	100
fixed	4	7	6	769372	6	4	4	1	0	637	1	4	0	128	78	0	0	100
fixed	4	7	7	770494	3	1	1	1	0	710	1	4	0	104	79	0	0	100
fixed	4	7	8	771818	2	3	3	1	0	1158	1	4	0	120	80	0	0	100
fixed	4	7	9	773984	3	2	2	1	0	546	1	4	0	112	81	0	0	100
fixed	4	7	10	775352	1	4	4	1	0	664	1	4	0	128	82	0	0	100
fixed	4	7	11	776669	5	2	2	1	0	784	1	4	0	112	83	0	0	100
fixed	4	7	12	777993	4	3	3	1	0	680	1	4	0	120	84	0	0	100
fixed	4	8	1	779463	4	1	1	1	0	705	1	4	0	104	85	0	0	100
fixed	4	8	2	780683	1	2	2	1	0	582	1	4	0	112	86	0	0	100
fixed	4	8	3	782240	6	4	4	1	0	548	1	4	0	128	87	0	0	100
fixed	4	8	4	783809	2	1	1	1	0	593	1	4	0	104	88	0	0	100
fixed	4	8	5	784744	5	3	3	1	0	1090	1	4	0	120	89	0	0	100
fixed	4	8	6	786408	6	4	4	1	0	660	1	4	0	128	90	0	0	100
fixed	4	8	7	787394	3	1	1	1	0	714	1	4	0	104	91	0	0	100
fixed	4	8	8	788741	2	3	3	1	0	977	1	4	0	120	92	0	0	100
fixed	4	8	9	790151	3	2	2	1	0	789	1	4	0	112	93	0	0	100
fixed	4	8	10	791447	1	4	4	1	0	654	1	4	0	128	94	0	0	100
fixed	4	8	11	793070	5	2	2	1	0	937	1	4	0	112	95	0	0	100
fixed	4	8	12	795018	4	3	3	1	0	391	1	4	0	120	96	0	0	100
fixed	4	9	1	796638	4	1	1	1	0	466	1	4	0	104	97	0	0	100
fixed	4	9	2	797977	1	2	2	1	0	761	1	4	0	112	98	0	0	100
fixed	4	9	3	799522	6	4	4	1	0	736	1	4	0	128	99	0	0	100
fixed	4	9	4	800586	2	1	1	1	0	707	1	4	0	104	100	0	0	100
fixed	4	9	5	802113	5	3	3	1	0	923	1	4	0	120	101	0	0	100
fixed	4	9	6	803338	6	4	4	1	0	830	1	4	0	128	102	0	0	100
fixed	4	9	7	804631	3	1	1	1	0	1080	1	4	0	104	103	0	0	100
fixed	4	9	8	806097	2	3	3	1	0	953	1	4	0	120	104	0	0	100
fixed	4	9	9	807688	3	2	2	1	0	646	1	4	0	112	105	0	0	100
fixed	4	9	10	808693	1	4	4	1	0	644	1	4	0	128	106	0	0	100
fixed	4	9	11	809936	5	2	2	1	0	815	1	4	0	112	107	0	0	100
fixed	4	9	12	811414	4	3	3	1	0	816	1	4	0	120	108	0	0	100
fixed	4	10	1	813179	4	1	1	1	0	405	1	4	0	104	109	0	0	100
fixed	4	10	2	814581	1	2	2	1	0	642	1	4	0	112	110	0	0	100
fixed	4	10	3	816162	6	4	4	1	0	791	1	4	0	128	111	0	0	100
fixed	4	10	4	817509	2	1	1	1	0	806	1	4	0	104	112	0	0	100
fixed	4	10	5	818703	5	3	3	1	0	844	1	4	0	120	113	0	0	100
fixed	4	10	6	820078	6	4	4	1	0	817	1	4	0	128	114	0	0	100
fixed	4	10	7	821805	3	1	1	1	0	696	1	4	0	104	115	0	0	100
fixed	4	10	8	822875	2	3	3	1	0	979	1	4	0	120	116	0	0	100
fixed	4	10	9	824582	3	2	2	1	0	803	1	4	0	112	117	0	0	100
fixed	4	10	10	826125	1	4	4	1	0	601	1	4	0	128	118	0	0	100
fixed	4	10	11	827776	5	2	2	1	0	972	1	4	0	112	119	0	0	100
fixed	4	10	12	829458	4	3	3	1	0	604	1	4	0	120	120	0	0	100
fixed	5	1	1	831120	4	1	1	1	0	589	1	4	0	136	1	0	0	100
fixed	5	1	2	832503	1	2	2	1	0	651	1	4	0	144	2	0	0	100
fixed	5	1	3	833517	6	4	4	1	0	744	1	4	0	160	3	0	0	100
fixed	5	1	4	835182	2	1	1	1	0	697	1	4	0	136	4	0	0	100
fixed	5	1	5	836174	5	3	3	2	0	1288	2	4	0	152	5	0	0	100
fixed	5	1	6	838401	6	4	4	1	0	706	1	4	0	160	6	0	0	100
fixed	5	1	7	839396	3	1	1	1	0	687	1	4	0	136	7	0	0	100
fixed	5	1	8	840663	2	3	3	1	0	977	1	4	0	152	8	0	0	100
fixed	5	1	9	842293	3	2	2	1	0	581	1	4	0	144	9	0	0	100
fixed	5	1	10	843790	1	4	4	1	0	685	1	4	0	160	10	0	0	100
fixed	5	1	11	844810	5	2	2	1	0	1050	1	4	0	144	11	0	0	100
fixed	5	1	12	846362	4	3	3	1	0	728	1	4	0	152	12	0	0	100
fixed	5	2	1	847931	4	1	1	1	0	630	1	4	0	136	13	0	0	100
fixed	5	2	2	849521	1	2	2	1	0	378	1	4	0	144	14	0	0	100
fixed	5	2	3	850563	6	4	4	1	0	574	1	4	0	160	15	0	0	100
fixed	5	2	4	851686	2	1	1	1	0	615	1	4	0	136	16	0	0	100
fixed	5	2	5	853271	5	3	3	1	0	940	1	4	0	152	17	0	0	100
fixed	5	2	6	855056	6	4	4	1	0	768	1	4	0	160	18	0	0	100
fixed	5	2	7	856337	3	1	1	1	0	818	1	4	0	136	19	0	0	100
fixed	5	2	8	857948	2	3	3	1	0	1206	1	4	0	152	20	0	0	100
fixed	5	2	9	859904	3	2	2	1	0	659	1	4	0	144	21	0	0	100
fixed	5	2	10	861252	1	4	4	1	0	690	1	4	0	160	22	0	0	100
fixed	5	2	11	862553	5	2	2	1	0	954	1	4	0	144	23	0	0	100
fixed	5	2	12	864137	4	3	3	1	0	679	1	4	0	152	24	0	0	100
fixed	5	3	1	866075	4	1	1	1	0	501	1	4	0	136	25	0	0	100
fixed	5	3	2	867211	1	2	2	1	0	797	1	4	0	144	26	0	0	100
fixed	5	3	3	868480	6	4	4	1	0	887	1	4	0	160	27	0	0	100
fixed	5	3	4	870186	2	1	1	1	0	751	1	4	0	136	28	0	0	100
fixed	5	3	5	871528	5	3	3	1	0	998	1	4	0	152	29	0	0	100
fixed	5	3	6	873280	6	4	4	1	0	748	1	4	0	160	30	0	0	100
fixed	5	3	7	874745	3	1	1	1	0	822	1	4	0	136	31	0	0	100
fixed	5	3	8	876299	2	3	3	1	0	908	1	4	0	152	32	0	0	100
fixed	5	3	9	877603	3	2	2	1	0	789	1	4	0	144	33	0	0	100
fixed	5	3	10	878940	1	4	4	1	0	652	1	4	0	160	34	0	0	100
fixed	5	3	11	880399	5	2	2	1	0	975	1	4	0	144	35	0	0	100
fixed	5	3	12	882232	4	3	3	1	0	673	1	4	0	152	36	0	0	100
fixed	5	4	1	884070	4	1	1	1	0	691	1	4	0	136	37	0	0	100
fixed	5	4	2	885755	1	2	2	1	0	347	1	4	0	144	38	0	0	100
fixed	5	4	3	886834	6	4	4	1	0	486	1	4	0	160	39	0	0	100
fixed	5	4	4	888213	2	1	1	1	0	699	1	4	0	136	40	0	0	100
fixed	5	4	5	889824	5	3	3	1	0	863	1	4	0	152	41	0	0	100
fixed	5	4	6	891579	6	4	4	1	0	709	1	4	0	160	42	0	0	100
fixed	5	4	7	892668	3	1	1	1	0	935	1	4	0	136	43	0	0	100
fixed	5	4	8	894539	2	3	3	1	0	984	1	4	0	152	44	0	0	100
fixed	5	4	9	895893	3	2	2	1	0	631	1	4	0	144	45	0	0	100
fixed	5	4	10	896952	1	4	4	1	0	649	1	4	0	160	46	0	0	100
fixed	5	4	11	898112	5	2	2	1	0	840	1	4	0	144	47	0	0	100
fixed	5	4	12	899266	4	3	3	1	0	520	1	4	0	152	48	0	0	100
fixed	5	5	1	900961	4	1	1	1	0	375	1	4	0	136	49	0	0	100
fixed	5	5	2	901829	1	2	2	1	0	771	1	4	0	144	50	0	0	100
fixed	5	5	3	903194	6	4	4	1	0	593	1	4	0	160	51	0	0	100
fixed	5	5	4	904110	2	1	1	1	0	578	1	4	0	136	52	0	0	100
fixed	5	5	5	905017	5	3	3	1	0	1228	1	4	0	152	53	0	0	100
fixed	5	5	6	906970	6	4	4	1	0	713	1	4	0	160	54	0	0	100
fixed	5	5	7	908232	3	1	1	1	0	804	1	4	0	136	55	0	0	100
fixed	5	5	8	910017	2	3	3	1	0	912	1	4	0	152	56	0	0	100
fixed	5	5	9	911724	3	2	2	1	0	528	1	4	0	144	57	0	0	100
fixed	5	5	10	912752	1	4	4	1	0	701	1	4	0	160	58	0	0	100
fixed	5	5	11	914399	5	2	2	1	0	918	1	4	0	144	59	0	0	100
fixed	5	5	12	915850	4	3	3	1	0	825	1	4	0	152	60	0	0	100
fixed	5	6	1	917769	4	1	1	1	0	680	1	4	0	136	61	0	0	100
fixed	5	6	2	918975	1	2	2	1	0	477	1	4	0	144	62	0	0	100
fixed	5	6	3	920196	6	4	4	1	0	601	1	4	0	160	63	0	0	100
fixed	5	6	4	921130	2	1	1	1	0	777	1	4	0	136	64	0	0	100
fixed	5	6	5	922267	5	3	3	1	0	737	1	4	0	152	65	0	0	100
fixed	5	6	6	923562	6	4	4	1	0	675	1	4	0	160	66	0	0	100
fixed	5	6	7	924592	3	1	1	1	0	767	1	4	0	136	67	0	0	100
fixed	5	6	8	926324	2	3	3	1	0	1181	1	4	0	152	68	0	0	100
fixed	5	6	9	928421	3	2	2	1	0	357	1	4	0	144	69	0	0	100
fixed	5	6	10	929165	1	4	4	1	0	669	1	4	0	160	70	0	0	100
fixed	5	6	11	930639	5	2	2	1	0	1039	1	4	0	144	71	0	0	100
fixed	5	6	12	932000	4	3	3	1	0	837	1	4	0	152	72	0	0	100
fixed	5	7	1	933424	4	1	1	1	0	592	1	4	0	136	73	0	0	100
fixed	5	7	2	934412	1	2	2	1	0	719	1	4	0	144	74	0	0	100
fixed	5	7	3	936096	6	4	4	1	0	527	1	4	0	160	75	0	0	100
fixed	5	7	4	937355	2	1	1	1	0	1370	1	4	0	136	76	0	0	100
fixed	5	7	5	939538	5	3	3	1	0	1085	1	4	0	152	77	0	0	100
fixed	5	7	6	941474	6	4	4	1	0	675	1	4	0	160	78	0	0	100
fixed	5	7	7	943059	3	1	1	1	0	761	1	4	0	136	79	0	0	100
fixed	5	7	8	944519	2	3	3	1	0	939	1	4	0	152	80	0	0	100
fixed	5	7	9	945755	3	2	2	1	0	574	1	4	0	144	81	0	0	100
fixed	5	7	10	946975	1	4	4	1	0	659	1	4	0	160	82	0	0	100
fixed	5	7	11	948047	5	2	2	1	0	829	1	4	0	144	83	0	0	100
fixed	5	7	12	949452	4	3	3	1	0	722	1	4	0	152	84	0	0	100
fixed	5	8	1	951217	4	1	1	1	0	783	1	4	0	136	85	0	0	100
fixed	5	8	2	952994	1	2	2	1	0	988	1	4	0	144	86	0	0	100
fixed	5	8	3	954980	6	4	4	1	0	568	1	4	0	160	87	0	0	100
fixed	5	8	4	955850	2	1	1	1	0	739	1	4	0	136	88	0	0	100
fixed	5	8	5	957283	5	3	3	2	0	1246	2	4	0	152	89	0	0	100
fixed	5	8	6	959196	6	4	4	1	0	789	1	4	0	160	90	0	0	100
fixed	5	8	7	960427	3	1	1	1	0	713	1	4	0	136	91	0	0	100
fixed	5	8	8	961867	2	3	3	1	0	1036	1	4	0	152	92	0	0	100
fixed	5	8	9	963930	3	2	2	1	0	692	1	4	0	144	93	0	0	100
fixed	5	8	10	965482	1	4	4	1	0	619	1	4	0	160	94	0	0	100
fixed	5	8	11	966528	5	2	2	1	0	895	1	4	0	144	95	0	0	100
fixed	5	8	12	968093	4	3	3	1	0	820	1	4	0	152	96	0	0	100
fixed	5	9	1	969964	4	1	1	1	0	621	1	4	0	136	97	0	0	100
fixed	5	9	2	971313	1	2	2	1	0	788	1	4	0	144	98	0	0	100
fixed	5	9	3	973098	6	4	4	1	0	696	1	4	0	160	99	0	0	100
fixed	5	9	4	974597	2	1	1	1	0	713	1	4	0	136	100	0	0	100
fixed	5	9	5	975885	5	3	3	1	0	874	1	4	0	152	101	0	0	100
fixed	5	9	6	977307	6	4	4	1	0	1086	1	4	0	160	102	0	0	100
fixed	5	9	7	978917	3	1	1	1	0	674	1	4	0	136	103	0	0	100
fixed	5	9	8	980384	2	3	3	1	0	988	1	4	0	152	104	0	0	100
fixed	5	9	9	982387	3	2	2	1	0	799	1	4	0	144	105	0	0	100
fixed	5	9	10	983725	1	4	4	1	0	726	1	4	0	160	106	0	0	100
fixed	5	9	11	984995	5	2	2	1	0	985	1	4	0	144	107	0	0	100
fixed	5	9	12	986444	4	3	3	1	0	859	1	4	0	152	108	0	0	100
fixed	5	10	1	988592	4	1	1	1	0	600	1	4	0	136	109	0	0	100
fixed	5	10	2	989483	1	2	2	1	0	778	1	4	0	144	110	0	0	100
fixed	5	10	3	991247	6	4	4	1	0	647	1	4	0	160	111	0	0	100
fixed	5	10	4	992637	2	1	1	1	0	685	1	4	0	136	112	0	0	100
fixed	5	10	5	994301	5	3	3	1	0	918	1	4	0	152	113	0	0	100
fixed	5	10	6	995597	6	4	4	1	0	839	1	4	0	160	114	0	0	100
fixed	5	10	7	997220	3	1	1	1	0	627	1	4	0	136	115	0	0	100
fixed	5	10	8	998361	2	3	3	1	0	947	1	4	0	152	116	0	0	100
fixed	5	10	9	1000325	3	2	2	1	0	583	1	4	0	144	117	0	0	100
fixed	5	10	10	1001693	1	4	4	1	0	717	1	4	0	160	118	0	0	100
fixed	5	10	11	1003274	5	2	2	1	0	962	1	4	0	144	119	0	0	100
fixed	5	10	12	1005172	4	3	3	1	0	874	1	4	0	152	120	0	0	100
random	6	1	1	1112544	6	1	1	1	0	670	1	4	0	168	1	0	0	100
random	6	1	2	1114170	4	4	4	1	0	625	1	4	0	192	2	0	0	100
random	6	1	3	1115812	2	2	2	1	0	828	1	4	0	176	3	0	0	100
random	6	1	4	1117549	3	3	3	1	0	506	1	4	0	184	4	0	0	100
random	6	1	5	1118903	5	2	2	1	0	849	1	4	0	176	5	0	0	100
random	6	1	6	1120543	1	4	4	1	0	603	1	4	0	192	6	0	0	100
random	6	1	7	1121739	6	1	1	1	0	816	1	4	0	168	7	0	0	100
random	6	1	8	1123462	2	3	3	1	0	1080	1	4	0	184	8	0	0	100
random	6	1	9	1125322	4	2	2	1	0	641	1	4	0	176	9	0	0	100
random	6	1	10	1126850	1	1	1	1	0	704	1	4	0	168	10	0	0	100
random	6	1	11	1128161	5	4	4	1	0	657	1	4	0	192	11	0	0	100
random	6	1	12	1129380	3	3	3	1	0	845	1	4	0	184	12	0	0	100
random	6	1	13	1131092	5	2	2	1	0	780	1	4	0	176	13	0	0	100
random	6	1	14	1132264	1	4	4	1	0	715	1	4	0	192	14	0	0	100
random	6	1	15	1133432	3	1	1	1	0	689	1	4	0	168	15	0	0	100
random	6	1	16	1134487	4	3	3	1	0	1181	1	4	0	184	16	0	0	100
random	6	1	17	1136690	6	4	4	1	0	799	1	4	0	192	17	0	0	100
random	6	1	18	1138029	2	1	1	1	0	679	1	4	0	168	18	0	0	100
random	6	1	19	1139549	5	3	3	1	0	998	1	4	0	184	19	0	0	100
random	6	1	20	1141456	2	2	2	1	0	653	1	4	0	176	20	0	0	100
random	6	1	21	1142630	3	3	3	1	0	1188	1	4	0	184	21	0	0	100
random	6	1	22	1144637	6	1	1	1	0	671	1	4	0	168	22	0	0	100
random	6	1	23	1145793	4	2	2	1	0	909	1	4	0	176	23	0	0	100
random	6	1	24	1147118	1	4	4	1	0	638	1	4	0	192	24	0	0	100
random	6	1	25	1148418	4	3	3	1	0	1070	1	4	0	184	25	0	0	100
random	6	1	26	1150160	2	1	1	1	0	669	1	4	0	168	26	0	0	100
random	6	1	27	1151244	5	2	2	1	0	919	1	4	0	176	27	0	0	100
random	6	1	28	1153036	6	4	4	1	0	659	1	4	0	192	28	0	0	100
random	6	1	29	1154576	1	3	3	1	0	1050	1	4	0	184	29	0	0	100
random	6	1	30	1156114	5	2	2	1	0	641	1	4	0	176	30	0	0	100
random	6	1	31	1157264	2	1	1	1	0	792	1	4	0	168	31	0	0	100
random	6	1	32	1159089	3	3	3	1	0	1107	1	4	0	184	32	0	0	100
random	6	1	33	1160835	6	4	4	1	0	673	1	4	0	192	33	0	0	100
random	6	1	34	1161986	4	2	2	1	0	576	1	4	0	176	34	0	0	100
random	6	1	35	1163240	3	4	4	1	0	699	1	4	0	192	35	0	0	100
random	6	1	36	1164561	1	1	1	1	0	755	1	4	0	168	36	0	0	100
random	6	1	37	1166345	3	4	4	1	0	999	1	4	0	192	37	0	0	100
random	6	1	38	1167898	5	3	3	1	0	1141	1	4	0	184	38	0	0	100
random	6	1	39	1170059	6	1	1	1	0	794	1	4	0	168	39	0	0	100
random	6	1	40	1171510	1	2	2	1	0	740	1	4	0	176	40	0	0	100
random	6	1	41	1173124	2	3	3	1	0	792	1	4	0	184	41	0	0	100
random	6	1	42	1174597	4	4	4	1	0	801	1	4	0	192	42	0	0	100
random	6	1	43	1175749	1	2	2	1	0	1161	1	4	0	176	43	0	0	100
random	6	1	44	1177822	6	3	3	1	0	873	1	4	0	184	44	0	0	100
random	6	1	45	1179269	3	1	1	1	0	852	1	4	0	168	45	0	0	100
random	6	1	46	1180836	4	4	4	1	0	490	1	4	0	192	46	0	0	100
random	6	1	47	1181963	2	2	2	1	0	922	1	4	0	176	47	0	0	100
random	6	1	48	1183698	5	1	1	1	0	745	1	4	0	168	48	0	0	100
random	6	1	49	1185459	2	3	3	1	0	1037	1	4	0	184	49	0	0	100
random	6	1	50	1186983	3	1	1	1	0	733	1	4	0	168	50	0	0	100
random	6	1	51	1188291	1	4	4	1	0	822	1	4	0	192	51	0	0	100
random	6	1	52	1189476	5	3	3	1	0	980	1	4	0	184	52	0	0	100
random	6	1	53	1190974	3	2	2	1	0	668	1	4	0	176	53	0	0	100
random	6	1	54	1192570	6	4	4	1	0	713	1	4	0	192	54	0	0	100
random	6	1	55	1194055	4	2	2	1	0	810	1	4	0	176	55	0	0	100
random	6	1	56	1195447	1	1	1	1	0	774	1	4	0	168	56	0	0	100
random	6	1	57	1196672	5	4	4	1	0	947	1	4	0	192	57	0	0	100
random	6	1	58	1197961	2	1	1	1	0	876	1	4	0	168	58	0	0	100
random	6	1	59	1199320	6	2	2	1	0	1147	1	4	0	176	59	0	0	100
random	6	1	60	1201435	4	3	3	1	0	833	1	4	0	184	60	0	0	100
random	6	1	61	1203353	1	2	2	1	0	952	1	4	0	176	61	0	0	100
random	6	1	62	1205294	6	4	4	1	0	622	1	4	0	192	62	0	0	100
random	6	1	63	1206792	4	1	1	1	0	694	1	4	0	168	63	0	0	100
random	6	1	64	1208100	2	2	2	1	0	871	1	4	0	176	64	0	0	100
random	6	1	65	1210003	4	3	3	1	0	886	1	4	0	184	65	0	0	100
random	6	1	66	1211351	3	1	1	1	0	773	1	4	0	168	66	0	0	100
random	6	1	67	1212856	1	3	3	1	0	1125	1	4	0	184	67	0	0	100
random	6	1	68	1214524	5	4	4	1	0	735	1	4	0	192	68	0	0	100
random	6	1	69	1216101	2	2	2	1	0	860	1	4	0	176	69	0	0	100
random	6	1	70	1217537	3	1	1	1	0	743	1	4	0	168	70	0	0	100
random	6	1	71	1219277	5	4	4	1	0	661	1	4	0	192	71	0	0	100
random	6	1	72	1220675	6	3	3	1	0	938	1	4	0	184	72	0	0	100
random	6	1	73	1222182	2	1	1	1	0	810	1	4	0	168	73	0	0	100
random	6	1	74	1223983	5	3	3	1	0	1110	1	4	0	184	74	0	0	100
random	6	1	75	1225452	1	4	4	1	0	816	1	4	0	192	75	0	0	100
random	6	1	76	1227061	6	2	2	1	0	843	1	4	0	176	76	0	0	100
random	6	1	77	1228235	2	1	1	1	0	874	1	4	0	168	77	0	0	100
random	6	1	78	1229613	4	4	4	1	0	704	1	4	0	192	78	0	0	100
random	6	1	79	1231248	3	2	2	1	0	1019	1	4	0	176	79	0	0	100
random	6	1	80	1232593	4	3	3	1	0	641	1	4	0	184	80	0	0	100
random	6	1	81	1234070	1	4	4	1	0	843	1	4	0	192	81	0	0	100
random	6	1	82	1235679	5	1	1	1	0	671	1	4	0	168	82	0	0	100
random	6	1	83	1237234	3	2	2	1	0	948	1	4	0	176	83	0	0	100
random	6	1	84	1239196	6	3	3	1	0	626	1	4	0	184	84	0	0	100
random	6	1	85	1240694	3	2	2	1	0	890	1	4	0	176	85	0	0	100
random	6	1	86	1242202	1	3	3	1	0	930	1	4	0	184	86	0	0	100
random	6	1	87	1243559	4	4	4	1	0	705	1	4	0	192	87	0	0	100
random	6	1	88	1244689	2	1	1	1	0	585	1	4	0	168	88	0	0	100
random	6	1	89	1245594	6	4	4	1	0	859	1	4	0	192	89	0	0	100
random	6	1	90	1246798	3	3	3	1	0	1264	1	4	0	184	90	0	0	100
random	6	1	91	1248384	5	4	4	1	0	988	1	4	0	192	91	0	0	100
random	6	1	92	1250416	1	2	2	1	0	902	1	4	0	176	92	0	0	100
random	6	1	93	1251792	5	1	1	1	0	756	1	4	0	168	93	0	0	100
random	6	1	94	1253061	4	3	3	1	0	966	1	4	0	184	94	0	0	100
random	6	1	95	1254866	6	1	1	1	0	1130	1	4	0	168	95	0	0	100
random	6	1	96	1256686	2	2	2	1	0	901	1	4	0	176	96	0	0	100
random	6	1	97	1258705	4	3	3	1	0	1143	1	4	0	184	97	0	0	100
random	6	1	98	1260154	3	2	2	1	0	674	1	4	0	176	98	0	0	100
random	6	1	99	1261231	6	3	3	1	0	844	1	4	0	184	99	0	0	100
random	6	1	100	1262658	1	4	4	1	0	512	1	4	0	192	100	0	0	100
random	6	1	101	1264085	4	1	1	1	0	659	1	4	0	168	101	0	0	100
random	6	1	102	1265267	5	2	2	1	0	994	1	4	0	176	102	0	0	100
random	6	1	103	1266765	2	4	4	1	0	642	1	4	0	192	103	0	0	100
random	6	1	104	1267916	3	1	1	1	0	729	1	4	0	168	104	0	0	100
random	6	1	105	1269583	1	3	3	1	0	994	1	4	0	184	105	0	0	100
random	6	1	106	1271521	2	2	2	1	0	536	1	4	0	176	106	0	0	100
random	6	1	107	1272971	5	4	4	1	0	731	1	4	0	192	107	0	0	100
random	6	1	108	1274258	6	1	1	1	0	716	1	4	0	168	108	0	0	100
random	6	1	109	1275747	5	4	4	1	0	901	1	4	0	192	109	0	0	100
random	6	1	110	1277344	6	3	3	1	0	994	1	4	0	184	110	0	0	100
random	6	1	111	1279352	2	2	2	1	0	733	1	4	0	176	111	0	0	100
random	6	1	112	1281088	3	1	1	1	0	588	1	4	0	168	112	0	0	100
random	6	1	113	1282515	1	2	2	2	0	1247	2	4	0	176	113	0	0	100
random	6	1	114	1284250	2	3	3	1	0	581	1	4	0	184	114	0	0	100
random	6	1	115	1285152	3	1	1	1	0	735	1	4	0	168	115	0	0	100
random	6	1	116	1286704	4	4	4	1	0	677	1	4	0	192	116	0	0	100
random	6	1	117	1287901	6	1	1	1	0	731	1	4	0	168	117	0	0	100
random	6	1	118	1289044	5	3	3	1	0	1146	1	4	0	184	118	0	0	100
random	6	1	119	1290984	1	4	4	1	0	752	1	4	0	192	119	0	0	100
random	6	1	120	1292565	4	2	2	1	0	933	1	4	0	176	120	0	0	100
fixed	7	1	1	1294775	4	1	1	1	0	823	1	4	0	200	1	0	0	100
fixed	7	1	2	1296309	1	2	2	1	0	927	1	4	0	208	2	0	0	100
fixed	7	1	3	1297718	6	4	4	1	0	803	1	4	0	224	3	0	0	100
fixed	7	1	4	1299239	2	1	1	1	0	770	1	4	0	200	4	0	0	100
fixed	7	1	5	1300399	5	3	3	1	0	898	1	4	0	216	5	0	0	100
fixed	7	1	6	1302108	6	4	4	1	0	745	1	4	0	224	6	0	0	100
fixed	7	1	7	1303296	3	1	1	1	0	838	1	4	0	200	7	0	0	100
fixed	7	1	8	1305030	2	3	3	1	0	1085	1	4	0	216	8	0	0	100
fixed	7	1	9	1306735	3	2	2	1	0	613	1	4	0	208	9	0	0	100
fixed	7	1	10	1307905	1	4	4	1	0	732	1	4	0	224	10	0	0	100
fixed	7	1	11	1309456	5	2	2	1	0	930	1	4	0	208	11	0	0	100
fixed	7	1	12	1311328	4	3	3	1	0	587	1	4	0	216	12	0	0	100
fixed	7	2	1	1312938	4	1	1	1	0	646	1	4	0	200	1	0	0	8
fixed	7	2	2	1314281	1	2	2	1	0	805	1	4	0	208	2	0	0	14
fixed	7	2	3	1315761	6	4	4	1	0	687	1	4	0	224	3	0	0	20
fixed	7	2	4	1317115	2	1	1	1	0	669	1	4	0	200	4	0	0	25
fixed	7	2	5	1318398	5	3	3	1	0	975	1	4	0	216	5	0	0	29
fixed	7	2	6	1319892	6	4	4	1	0	792	1	4	0	224	6	0	0	33
fixed	7	2	7	1321391	3	1	1	1	0	784	1	4	0	200	7	0	0	37
fixed	7	2	8	1323007	2	3	3	1	0	1084	1	4	0	216	8	0	0	40
fixed	7	2	9	1324740	3	2	2	1	0	538	1	4	0	208	9	0	0	43
fixed	7	2	10	1325773	1	4	4	1	0	663	1	4	0	224	10	0	0	45
fixed	7	2	11	1326948	5	2	2	1	0	853	1	4	0	208	11	0	0	48
fixed	7	2	12	1328511	4	3	3	1	0	883	1	4	0	216	12	0	0	50
fixed	7	3	1	1330548	4	1	1	1	0	620	1	4	0	200	1	0	0	4
fixed	7	3	2	1331655	1	2	2	1	0	774	1	4	0	208	2	0	0	8
fixed	7	3	3	1333119	6	4	4	1	0	855	1	4	0	224	3	0	0	11
fixed	7	3	4	1334880	2	1	1	1	0	701	1	4	0	200	4	0	0	14
fixed	7	3	5	1336045	5	3	3	1	0	771	1	4	0	216	5	0	0	17
fixed	7	3	6	1337139	6	4	4	1	0	773	1	4	0	224	6	0	0	20
fixed	7	3	7	1338480	3	1	1	1	0	661	1	4	0	200	7	0	0	23
fixed	7	3	8	1339703	2	3	3	1	0	936	1	4	0	216	8	0	0	25
fixed	7	3	9	1341237	3	2	2	1	0	928	1	4	0	208	9	0	0	27
fixed	7	3	10	1343179	1	4	4	1	0	637	1	4	0	224	10	0	0	29
fixed	7	3	11	1344739	5	2	2	1	0	739	1	4	0	208	11	0	0	31
fixed	7	3	12	1346299	4	3	3	1	0	522	1	4	0	216	12	0	0	33
fixed	7	4	1	1347439	4	1	1	1	0	521	1	4	0	200	1	0	0	3
fixed	7	4	2	1348654	1	2	2	1	0	766	1	4	0	208	2	0	0	5
fixed	7	4	3	1350240	6	4	4	1	0	651	1	4	0	224	3	0	0	8
fixed	7	4	4	1351821	2	1	1	1	0	783	1	4	0	200	4	0	0	10
fixed	7	4	5	1353400	5	3	3	1	0	909	1	4	0	216	5	0	0	12
fixed	7	4	6	1354685	6	4	4	1	0	934	1	4	0	224	6	0	0	14
fixed	7	4	7	1356561	3	1	1	1	0	886	1	4	0	200	7	0	0	16
fixed	7	4	8	1357810	2	3	3	1	0	1258	1	4	0	216	8	0	0	18
fixed	7	4	9	1359972	3	2	2	1	0	774	1	4	0	208	9	0	0	20
fixed	7	4	10	1361406	1	4	4	1	0	705	1	4	0	224	10	0	0	22
fixed	7	4	11	1362852	5	2	2	1	0	868	1	4	0	208	11	0	0	23
fixed	7	4	12	1364696	4	3	3	1	0	590	1	4	0	216	12	0	0	25
fixed	7	5	1	1366018	4	1	1	1	0	486	1	4	0	200	1	0	0	2
fixed	7	5	2	1367184	1	2	2	1	0	797	1	4	0	208	2	0	0	4
fixed	7	5	3	1368980	6	4	4	1	0	489	1	4	0	224	3	0	0	6
fixed	7	5	4	1370113	2	1	1	1	0	577	1	4	0	200	4	0	0	8
fixed	7	5	5	1371371	5	3	3	1	0	907	1	4	0	216	5	0	0	9
fixed	7	5	6	1372879	6	4	4	1	0	860	1	4	0	224	6	0	0	11
fixed	7	5	7	1374684	3	1	1	1	0	711	1	4	0	200	7	0	0	13
fixed	7	5	8	1375938	2	3	3	1	0	986	1	4	0	216	8	0	0	14
fixed	7	5	9	1377463	3	2	2	1	0	633	1	4	0	208	9	0	0	16
fixed	7	5	10	1378993	1	4	4	1	0	665	1	4	0	224	10	0	0	17
fixed	7	5	11	1380663	5	2	2	1	0	762	1	4	0	208	11	0	0	19
fixed	7	5	12	1382008	4	3	3	1	0	689	1	4	0	216	12	0	0	20
fixed	7	6	1	1383478	4	1	1	1	0	354	1	4	0	200	1	0	0	2
fixed	7	6	2	1384478	1	2	2	1	0	800	1	4	0	208	2	0	0	3
fixed	7	6	3	1386252	6	4	4	1	0	485	1	4	0	224	3	0	0	5
fixed	7	6	4	1387452	2	1	1	1	0	546	1	4	0	200	4	0	0	6
fixed	7	6	5	1388948	5	3	3	1	0	1019	1	4	0	216	5	0	0	8
fixed	7	6	6	1390775	6	4	4	1	0	750	1	4	0	224	6	0	0	9
fixed	7	6	7	1392298	3	1	1	1	0	1117	1	4	0	200	7	0	0	10
fixed	7	6	8	1394320	2	3	3	2	0	1343	2	4	0	216	8	0	0	12
fixed	7	6	9	1396052	3	2	2	1	0	1030	1	4	0	208	9	0	0	13
fixed	7	6	10	1398021	1	4	4	1	0	683	1	4	0	224	10	0	0	14
fixed	7	6	11	1399063	5	2	2	1	0	919	1	4	0	208	11	0	0	15
fixed	7	6	12	1400360	4	3	3	1	0	704	1	4	0	216	12	0	0	17
fixed	7	7	1	1401823	4	1	1	1	0	377	1	4	0	200	1	0	0	1
fixed	7	7	2	1403072	1	2	2	1	0	341	1	4	0	208	2	0	0	3
fixed	7	7	3	1404184	6	4	4	1	0	638	1	4	0	224	3	0	0	4
fixed	7	7	4	1405576	2	1	1	1	0	419	1	4	0	200	4	0	0	5
fixed	7	7	5	1406728	5	3	3	1	0	938	1	4	0	216	5	0	0	6
fixed	7	7	6	1408395	6	4	4	1	0	699	1	4	0	224	6	0	0	8
fixed	7	7	7	1409501	3	1	1	1	0	733	1	4	0	200	7	0	0	9
fixed	7	7	8	1410709	2	3	3	1	0	1137	1	4	0	216	8	0	0	10
fixed	7	7	9	1412342	3	2	2	1	0	604	1	4	0	208	9	0	0	11
fixed	7	7	10	1413249	1	4	4	1	0	717	1	4	0	224	10	0	0	12
fixed	7	7	11	1414976	5	2	2	1	0	1036	1	4	0	208	11	0	0	13
fixed	7	7	12	1416336	4	3	3	1	0	707	1	4	0	216	12	0	0	14
fixed	7	8	1	1418096	4	1	1	1	0	640	1	4	0	200	1	0	0	1
fixed	7	8	2	1419312	1	2	2	1	0	373	1	4	0	208	2	0	0	2
fixed	7	8	3	1420590	6	4	4	1	0	623	1	4	0	224	3	0	0	3
fixed	7	8	4	1422100	2	1	1	1	0	391	1	4	0	200	4	0	0	5
fixed	7	8	5	1423074	5	3	3	1	0	797	1	4	0	216	5	0	0	6
fixed	7	8	6	1424718	6	4	4	1	0	648	1	4	0	224	6	0	0	7
fixed	7	8	7	1425976	3	1	1	1	0	587	1	4	0	200	7	0	0	8
fixed	7	8	8	1427173	2	3	3	1	0	1240	1	4	0	216	8	0	0	9
fixed	7	8	9	1428878	3	2	2	1	0	664	1	4	0	208	9	0	0	10
fixed	7	8	10	1430263	1	4	4	1	0	845	1	4	0	224	10	0	0	11
fixed	7	8	11	1431977	5	2	2	1	0	932	1	4	0	208	11	0	0	12
fixed	7	8	12	1433888	4	3	3	1	0	803	1	4	0	216	12	0	0	13
fixed	7	9	1	1435739	4	1	1	1	0	717	1	4	0	200	1	0	0	1
fixed	7	9	2	1436874	1	2	2	1	0	789	1	4	0	208	2	0	0	2
fixed	7	9	3	1438672	6	4	4	1	0	417	1	4	0	224	3	0	0	3
fixed	7	9	4	1439666	2	1	1	1	0	335	1	4	0	200	4	0	0	4
fixed	7	9	5	1440482	5	3	3	1	0	780	1	4	0	216	5	0	0	5
fixed	7	9	6	1441818	6	4	4	1	0	620	1	4	0	224	6	0	0	6
fixed	7	9	7	1442830	3	1	1	1	0	681	1	4	0	200	7	0	0	7
fixed	7	9	8	1444411	2	3	3	2	0	1366	2	4	0	216	8	0	0	8
fixed	7	9	9	1446343	3	2	2	1	0	652	1	4	0	208	9	0	0	9
fixed	7	9	10	1447743	1	4	4	1	0	689	1	4	0	224	10	0	0	9
fixed	7	9	11	1448736	5	2	2	1	0	982	1	4	0	208	11	0	0	10
fixed	7	9	12	1450207	4	3	3	1	0	768	1	4	0	216	12	0	0	11
fixed	7	10	1	1452080	4	1	1	1	0	665	1	4	0	200	1	0	0	1
fixed	7	10	2	1453257	1	2	2	1	0	351	1	4	0	208	2	0	0	2
fixed	7	10	3	1454047	6	4	4	1	0	494	1	4	0	224	3	0	0	3
fixed	7	10	4	1455486	2	1	1	1	0	432	1	4	0	200	4	0	0	4
fixed	7	10	5	1456884	5	3	3	1	0	230	1	4	0	216	5	0	0	4
fixed	7	10	6	1457497	6	4	4	1	0	715	1	4	0	224	6	0	0	5
fixed	7	10	7	1458849	3	1	1	1	0	746	1	4	0	200	7	0	0	6
fixed	7	10	8	1460049	2	3	3	1	0	1119	1	4	0	216	8	0	0	7
fixed	7	10	9	1462054	3	2	2	1	0	610	1	4	0	208	9	0	0	8
fixed	7	10	10	1463428	1	4	4	1	0	744	1	4	0	224	10	0	0	8
fixed	7	10	11	1464642	5	2	2	1	0	1069	1	4	0	208	11	0	0	9
fixed	7	10	12	1466378	4	3	3	1	0	1052	1	4	0	216	12	0	0	10
