type	block	sequ.	trial	time	Pos.	Color	Button	NumRsp	Resp_1	RT_1	R_Code	Resp_2	RT_2	Trigg.	n_hit	n_inc	n_miss	score_%

random	1	1	1	2124	6	1	1	1	0	858	1	4	0	8	1	0	0	100
random	1	1	2	3506	4	4	4	1	0	616	1	4	0	32	2	0	0	100
random	1	1	3	4541	2	2	2	1	0	948	1	4	0	16	3	0	0	100
random	1	1	4	5883	3	3	3	1	0	427	1	4	0	24	4	0	0	100
random	1	1	5	6992	5	2	2	1	0	844	1	4	0	16	5	0	0	100
random	1	1	6	8797	1	4	4	1	0	592	1	4	0	32	6	0	0	100
random	1	1	7	10294	6	1	1	1	0	656	1	4	0	8	7	0	0	100
random	1	1	8	11966	2	3	3	1	0	906	1	4	0	24	8	0	0	100
random	1	1	9	13896	4	2	2	1	0	440	1	4	0	16	9	0	0	100
random	1	1	10	14967	1	1	1	1	0	499	1	4	0	8	10	0	0	100
random	1	1	11	16066	5	4	4	1	0	460	1	4	0	32	11	0	0	100
random	1	1	12	17198	3	3	3	1	0	868	1	4	0	24	12	0	0	100
random	1	1	13	19033	5	2	2	1	0	854	1	4	0	16	13	0	0	100
random	1	1	14	20380	1	4	4	1	0	710	1	4	0	32	14	0	0	100
random	1	1	15	21876	3	1	1	1	0	830	1	4	0	8	15	0	0	100
random	1	1	16	23389	4	3	3	1	0	902	1	4	0	24	16	0	0	100
random	1	1	17	25311	6	4	4	1	0	613	1	4	0	32	17	0	0	100
random	1	1	18	26814	2	1	1	1	0	517	1	4	0	8	18	0	0	100
random	1	1	19	28283	5	3	3	1	0	1055	1	4	0	24	19	0	0	100
random	1	1	20	29834	2	2	2	1	0	501	1	4	0	16	20	0	0	100
random	1	1	21	30904	3	3	3	1	0	808	1	4	0	24	21	0	0	100
random	1	1	22	32470	6	1	1	1	0	613	1	4	0	8	22	0	0	100
random	1	1	23	34053	4	2	2	1	0	1002	1	4	0	16	23	0	0	100
random	1	1	24	35809	1	4	4	1	0	728	1	4	0	32	24	0	0	100
random	1	1	25	37379	4	3	3	1	0	1069	1	4	0	24	25	0	0	100
random	1	1	26	38781	2	1	1	1	0	834	1	4	0	8	26	0	0	100
random	1	1	27	39993	5	2	2	1	0	1055	1	4	0	16	27	0	0	100
random	1	1	28	41629	6	4	4	1	0	657	1	4	0	32	28	0	0	100
random	1	1	29	42601	1	3	3	1	0	904	1	4	0	24	29	0	0	100
random	1	1	30	44508	5	2	2	1	0	888	1	4	0	16	30	0	0	100
random	1	1	31	45767	2	1	1	1	0	698	1	4	0	8	31	0	0	100
random	1	1	32	46859	3	3	3	1	0	1076	1	4	0	24	32	0	0	100
random	1	1	33	48943	6	4	4	1	0	700	1	4	0	32	33	0	0	100
random	1	1	34	50187	4	2	2	1	0	1103	1	4	0	16	34	0	0	100
random	1	1	35	51715	3	4	4	1	0	758	1	4	0	32	35	0	0	100
random	1	1	36	53285	1	1	1	1	0	732	1	4	0	8	36	0	0	100
random	1	1	37	54990	3	4	4	1	0	787	1	4	0	32	37	0	0	100
random	1	1	38	56796	5	3	3	1	0	1063	1	4	0	24	38	0	0	100
random	1	1	39	58449	6	1	1	1	0	649	1	4	0	8	39	0	0	100
random	1	1	40	59440	1	2	2	1	0	943	1	4	0	16	40	0	0	100
random	1	1	41	60805	2	3	3	1	0	821	1	4	0	24	41	0	0	100
random	1	1	42	62324	4	4	4	1	0	725	1	4	0	32	42	0	0	100
random	1	1	43	63490	1	2	2	1	0	1100	1	4	0	16	43	0	0	100
random	1	1	44	65552	6	3	3	1	0	1156	1	4	0	24	44	0	0	100
random	1	1	45	67600	3	1	1	1	0	654	1	4	0	8	45	0	0	100
random	1	1	46	68551	4	4	4	1	0	629	1	4	0	32	46	0	0	100
random	1	1	47	69860	2	2	2	1	0	846	1	4	0	16	47	0	0	100
random	1	1	48	71079	5	1	1	1	0	698	1	4	0	8	48	0	0	100
random	1	1	49	72933	2	3	3	1	0	995	1	4	0	24	49	0	0	100
random	1	1	50	74361	3	1	1	1	0	767	1	4	0	8	50	0	0	100
random	1	1	51	75657	1	4	4	1	0	552	1	4	0	32	51	0	0	100
random	1	1	52	76628	5	3	3	1	0	911	1	4	0	24	52	0	0	100
random	1	1	53	78559	3	2	2	1	0	742	1	4	0	16	53	0	0	100
random	1	1	54	79626	6	4	4	1	0	928	1	4	0	32	54	0	0	100
random	1	1	55	81461	4	2	2	1	0	1058	1	4	0	16	55	0	0	100
random	1	1	56	82888	1	1	1	1	0	662	1	4	0	8	56	0	0	100
random	1	1	57	84002	5	4	4	1	0	623	1	4	0	32	57	0	0	100
random	1	1	58	85601	2	1	1	1	0	635	1	4	0	8	58	0	0	100
random	1	1	59	87045	6	2	2	1	0	1110	1	4	0	16	59	0	0	100
random	1	1	60	88920	4	3	3	1	0	678	1	4	0	24	60	0	0	100
random	1	1	61	90593	1	2	2	1	0	1015	1	4	0	16	61	0	0	100
random	1	1	62	91905	6	4	4	1	0	984	1	4	0	32	62	0	0	100
random	1	1	63	93644	4	1	1	1	0	407	1	4	0	8	63	0	0	100
random	1	1	64	94992	2	2	2	1	0	733	1	4	0	16	64	0	0	100
random	1	1	65	96711	4	3	3	1	0	556	1	4	0	24	65	0	0	100
random	1	1	66	97782	3	1	1	2	0	1383	2	4	0	8	66	0	0	100
random	1	1	67	99912	1	3	3	1	0	1125	1	4	0	24	67	0	0	100
random	1	1	68	102015	5	4	4	1	0	780	1	4	0	32	68	0	0	100
random	1	1	69	103718	2	2	2	1	0	924	1	4	0	16	69	0	0	100
random	1	1	70	105182	3	1	1	1	0	782	1	4	0	8	70	0	0	100
random	1	1	71	106542	5	4	4	1	0	748	1	4	0	32	71	0	0	100
random	1	1	72	108213	6	3	3	1	0	949	1	4	0	24	72	0	0	100
random	1	1	73	110058	2	1	1	1	0	711	1	4	0	8	73	0	0	100
random	1	1	74	111183	5	3	3	1	0	855	1	4	0	24	74	0	0	100
random	1	1	75	112384	1	4	4	1	0	749	1	4	0	32	75	0	0	100
random	1	1	76	113494	6	2	2	1	0	710	1	4	0	16	76	0	0	100
random	1	1	77	115021	2	1	1	1	0	621	1	4	0	8	77	0	0	100
random	1	1	78	116010	4	4	4	1	0	675	1	4	0	32	78	0	0	100
random	1	1	79	117532	3	2	2	1	0	707	1	4	0	16	79	0	0	100
random	1	1	80	119212	4	3	3	1	0	371	1	4	0	24	80	0	0	100
random	1	1	81	120036	1	4	4	1	0	672	1	4	0	32	81	0	0	100
random	1	1	82	121589	5	1	1	1	0	407	1	4	0	8	82	0	0	100
random	1	1	83	122952	3	2	2	1	0	837	1	4	0	16	83	0	0	100
random	1	1	84	124685	6	3	3	1	0	788	1	4	0	24	84	0	0	100
random	1	1	85	126214	3	2	2	1	0	1155	1	4	0	16	85	0	0	100
random	1	1	86	128007	1	3	3	1	0	855	1	4	0	24	86	0	0	100
random	1	1	87	129202	4	4	4	1	0	652	1	4	0	32	87	0	0	100
random	1	1	88	130659	2	1	1	1	0	662	1	4	0	8	88	0	0	100
random	1	1	89	131720	6	4	4	1	0	850	1	4	0	32	89	0	0	100
random	1	1	90	133285	3	3	3	1	0	975	1	4	0	24	90	0	0	100
random	1	1	91	135143	5	4	4	1	0	769	1	4	0	32	91	0	0	100
random	1	1	92	136386	1	2	2	1	0	964	1	4	0	16	92	0	0	100
random	1	1	93	138188	5	1	1	1	0	696	1	4	0	8	93	0	0	100
random	1	1	94	139166	4	3	3	1	0	1278	1	4	0	24	94	0	0	100
random	1	1	95	141115	6	1	1	1	0	923	1	4	0	8	95	0	0	100
random	1	1	96	142724	2	2	2	1	0	1055	1	4	0	16	96	0	0	100
random	1	1	97	144593	4	3	3	1	0	872	1	4	0	24	97	0	0	100
random	1	1	98	146132	3	2	2	1	0	927	1	4	0	16	98	0	0	100
random	1	1	99	147540	6	3	3	1	0	1012	1	4	0	24	99	0	0	100
random	1	1	100	149146	1	4	4	1	0	672	1	4	0	32	100	0	0	100
random	1	1	101	150701	4	1	1	1	0	478	1	4	0	8	101	0	0	100
random	1	1	102	151827	5	2	2	1	0	1022	1	4	0	16	102	0	0	100
random	1	1	103	153866	2	4	4	1	0	655	1	4	0	32	103	0	0	100
random	1	1	104	155484	3	1	1	1	0	795	1	4	0	8	104	0	0	100
random	1	1	105	157301	1	3	3	1	0	886	1	4	0	24	105	0	0	100
random	1	1	106	158929	2	2	2	1	0	497	1	4	0	16	106	0	0	100
random	1	1	107	160144	5	4	4	1	0	734	1	4	0	32	107	0	0	100
random	1	1	108	161391	6	1	1	1	0	761	1	4	0	8	108	0	0	100
random	1	1	109	162988	5	4	4	1	0	941	1	4	0	32	109	0	0	100
random	1	1	110	164908	6	3	3	1	0	1060	1	4	0	24	110	0	0	100
random	1	1	111	166565	2	2	2	1	0	662	1	4	0	16	111	0	0	100
random	1	1	112	168068	3	1	1	1	0	766	1	4	0	8	112	0	0	100
random	1	1	113	169287	1	2	2	1	0	1162	1	4	0	16	113	0	0	100
random	1	1	114	170756	2	3	3	1	0	492	1	4	0	24	114	0	0	100
random	1	1	115	171682	3	1	1	1	0	685	1	4	0	8	115	0	0	100
random	1	1	116	173143	4	4	4	1	0	496	1	4	0	32	116	0	0	100
random	1	1	117	174350	6	1	1	1	0	836	1	4	0	8	117	0	0	100
random	1	1	118	175710	5	3	3	1	0	891	1	4	0	24	118	0	0	100
random	1	1	119	177391	1	4	4	1	0	707	1	4	0	32	119	0	0	100
random	1	1	120	178459	4	2	2	1	0	838	1	4	0	16	120	0	0	100
fixed	2	1	1	180645	4	1	1	1	0	721	1	4	0	40	1	0	0	100
fixed	2	1	2	181941	1	2	2	1	0	1083	1	4	0	48	2	0	0	100
fixed	2	1	3	183861	6	4	4	1	0	617	1	4	0	64	3	0	0	100
fixed	2	1	4	185052	2	1	1	1	0	631	1	4	0	40	4	0	0	100
fixed	2	1	5	186284	5	3	3	1	0	963	1	4	0	56	5	0	0	100
fixed	2	1	6	188039	6	4	4	1	0	832	1	4	0	64	6	0	0	100
fixed	2	1	7	189400	3	1	1	1	0	670	1	4	0	40	7	0	0	100
fixed	2	1	8	190940	2	3	3	1	0	1277	1	4	0	56	8	0	0	100
fixed	2	1	9	192957	3	2	2	1	0	664	1	4	0	48	9	0	0	100
fixed	2	1	10	194414	1	4	4	1	0	722	1	4	0	64	10	0	0	100
fixed	2	1	11	195575	5	2	2	1	0	841	1	4	0	48	11	0	0	100
fixed	2	1	12	196833	4	3	3	1	0	852	1	4	0	56	12	0	0	100
fixed	2	2	1	198375	4	1	1	1	0	690	1	4	0	40	13	0	0	100
fixed	2	2	2	199793	1	2	2	1	0	790	1	4	0	48	14	0	0	100
fixed	2	2	3	201355	6	4	4	1	0	676	1	4	0	64	15	0	0	100
fixed	2	2	4	202488	2	1	1	1	0	940	1	4	0	40	16	0	0	100
fixed	2	2	5	204381	5	3	3	2	0	1412	2	4	0	56	17	0	0	100
fixed	2	2	6	206373	6	4	4	1	0	712	1	4	0	64	18	0	0	100
fixed	2	2	7	207415	3	1	1	1	0	907	1	4	0	40	19	0	0	100
fixed	2	2	8	209175	2	3	3	1	0	1089	1	4	0	56	20	0	0	100
fixed	2	2	9	211041	3	2	2	1	0	706	1	4	0	48	21	0	0	100
fixed	2	2	10	212666	1	4	4	1	0	653	1	4	0	64	22	0	0	100
fixed	2	2	11	214197	5	2	2	1	0	876	1	4	0	48	23	0	0	100
fixed	2	2	12	215442	4	3	3	1	0	1808	1	4	0	56	24	0	0	100
fixed	2	3	1	218290	4	1	1	1	0	631	1	4	0	40	25	0	0	100
fixed	2	3	2	219559	1	2	2	1	0	833	1	4	0	48	26	0	0	100
fixed	2	3	3	220885	6	4	4	1	0	537	1	4	0	64	27	0	0	100
fixed	2	3	4	222431	2	1	1	1	0	631	1	4	0	40	28	0	0	100
fixed	2	3	5	223416	5	3	3	1	0	910	1	4	0	56	29	0	0	100
fixed	2	3	6	224830	6	4	4	1	0	706	1	4	0	64	30	0	0	100
fixed	2	3	7	226133	3	1	1	1	0	1155	1	4	0	40	31	0	0	100
fixed	2	3	8	227626	2	3	3	1	0	1092	1	4	0	56	32	0	0	100
fixed	2	3	9	229598	3	2	2	1	0	872	1	4	0	48	33	0	0	100
fixed	2	3	10	230760	1	4	4	1	0	1063	1	4	0	64	34	0	0	100
fixed	2	3	11	232189	5	2	0	1	2	0	3	4	0	48	34	0	1	97
fixed	2	3	12	235670	4	3	3	1	0	1223	1	4	0	56	35	0	1	97
fixed	2	4	1	237988	4	1	1	1	0	620	1	4	0	40	36	0	1	97
fixed	2	4	2	239051	1	2	2	1	0	824	1	4	0	48	37	0	1	97
fixed	2	4	3	240837	6	4	4	1	0	716	1	4	0	64	38	0	1	97
fixed	2	4	4	242159	2	1	1	1	0	924	1	4	0	40	39	0	1	98
fixed	2	4	5	243416	5	3	3	1	0	1054	1	4	0	56	40	0	1	98
fixed	2	4	6	244956	6	4	4	1	0	813	1	4	0	64	41	0	1	98
fixed	2	4	7	246429	3	1	1	1	0	655	1	4	0	40	42	0	1	98
fixed	2	4	8	247724	2	3	3	1	0	1209	1	4	0	56	43	0	1	98
fixed	2	4	9	249598	3	2	2	1	0	713	1	4	0	48	44	0	1	98
fixed	2	4	10	251353	1	4	4	1	0	782	1	4	0	64	45	0	1	98
fixed	2	4	11	252483	5	2	2	1	0	887	1	4	0	48	46	0	1	98
fixed	2	4	12	254176	4	3	3	1	0	815	1	4	0	56	47	0	1	98
fixed	2	5	1	255999	4	1	1	1	0	546	1	4	0	40	48	0	1	98
fixed	2	5	2	257555	1	2	2	1	0	928	1	4	0	48	49	0	1	98
fixed	2	5	3	259501	6	4	4	1	0	542	1	4	0	64	50	0	1	98
fixed	2	5	4	261061	2	1	1	1	0	795	1	4	0	40	51	0	1	98
fixed	2	5	5	262670	5	3	3	1	0	1063	1	4	0	56	52	0	1	98
fixed	2	5	6	264655	6	4	4	1	0	683	1	4	0	64	53	0	1	98
fixed	2	5	7	265952	3	1	1	1	0	916	1	4	0	40	54	0	1	98
fixed	2	5	8	267802	2	3	3	1	0	926	1	4	0	56	55	0	1	98
fixed	2	5	9	269456	3	2	2	1	0	784	1	4	0	48	56	0	1	98
fixed	2	5	10	271168	1	4	4	1	0	591	1	4	0	64	57	0	1	98
fixed	2	5	11	272348	5	2	2	1	0	902	1	4	0	48	58	0	1	98
fixed	2	5	12	274152	4	3	3	1	0	897	1	4	0	56	59	0	1	98
fixed	2	6	1	275648	4	1	1	1	0	577	1	4	0	40	60	0	1	98
fixed	2	6	2	276734	1	2	2	1	0	739	1	4	0	48	61	0	1	98
fixed	2	6	3	278336	6	4	4	1	0	408	1	4	0	64	62	0	1	98
fixed	2	6	4	279239	2	1	1	1	0	633	1	4	0	40	63	0	1	98
fixed	2	6	5	280717	5	3	3	1	0	867	1	4	0	56	64	0	1	98
fixed	2	6	6	281877	6	4	4	1	0	713	1	4	0	64	65	0	1	98
fixed	2	6	7	283199	3	1	1	1	0	690	1	4	0	40	66	0	1	99
fixed	2	6	8	284387	2	3	3	1	0	895	1	4	0	56	67	0	1	99
fixed	2	6	9	285651	3	2	2	1	0	626	1	4	0	48	68	0	1	99
fixed	2	6	10	287095	1	4	4	1	0	645	1	4	0	64	69	0	1	99
fixed	2	6	11	288356	5	2	2	1	0	936	1	4	0	48	70	0	1	99
fixed	2	6	12	290005	4	3	3	1	0	626	1	4	0	56	71	0	1	99
fixed	2	7	1	291653	4	1	1	1	0	572	1	4	0	40	72	0	1	99
fixed	2	7	2	293177	1	2	2	1	0	883	1	4	0	48	73	0	1	99
fixed	2	7	3	294991	6	4	4	1	0	439	1	4	0	64	74	0	1	99
fixed	2	7	4	296001	2	1	1	1	0	572	1	4	0	40	75	0	1	99
fixed	2	7	5	297192	5	3	3	1	0	849	1	4	0	56	76	0	1	99
fixed	2	7	6	298406	6	4	4	1	0	702	1	4	0	64	77	0	1	99
fixed	2	7	7	299684	3	1	1	1	0	600	1	4	0	40	78	0	1	99
fixed	2	7	8	300846	2	3	3	1	0	1094	1	4	0	56	79	0	1	99
fixed	2	7	9	302857	3	2	2	1	0	753	1	4	0	48	80	0	1	99
fixed	2	7	10	304085	1	4	4	1	0	613	1	4	0	64	81	0	1	99
fixed	2	7	11	305134	5	2	2	1	0	960	1	4	0	48	82	0	1	99
fixed	2	7	12	306522	4	3	3	1	0	550	1	4	0	56	83	0	1	99
fixed	2	8	1	307893	4	1	1	1	0	596	1	4	0	40	84	0	1	99
fixed	2	8	2	309414	1	2	2	1	0	491	1	4	0	48	85	0	1	99
fixed	2	8	3	310604	6	4	4	1	0	689	1	4	0	64	86	0	1	99
fixed	2	8	4	311914	2	1	1	1	0	594	1	4	0	40	87	0	1	99
fixed	2	8	5	313316	5	3	3	1	0	886	1	4	0	56	88	0	1	99
fixed	2	8	6	315197	6	4	4	1	0	766	1	4	0	64	89	0	1	99
fixed	2	8	7	316624	3	1	1	1	0	730	1	4	0	40	90	0	1	99
fixed	2	8	8	317684	2	3	3	1	0	1005	1	4	0	56	91	0	1	99
fixed	2	8	9	319214	3	2	2	1	0	645	1	4	0	48	92	0	1	99
fixed	2	8	10	320716	1	4	4	1	0	717	1	4	0	64	93	0	1	99
fixed	2	8	11	321776	5	2	2	1	0	808	1	4	0	48	94	0	1	99
fixed	2	8	12	323285	4	3	3	1	0	768	1	4	0	56	95	0	1	99
fixed	2	9	1	324868	4	1	1	1	0	637	1	4	0	40	96	0	1	99
fixed	2	9	2	326216	1	2	2	1	0	1092	1	4	0	48	97	0	1	99
fixed	2	9	3	328157	6	4	4	1	0	633	1	4	0	64	98	0	1	99
fixed	2	9	4	329165	2	1	1	1	0	831	1	4	0	40	99	0	1	99
fixed	2	9	5	330494	5	3	3	1	0	855	1	4	0	56	100	0	1	99
fixed	2	9	6	331902	6	4	4	1	0	651	1	4	0	64	101	0	1	99
fixed	2	9	7	333449	3	1	1	1	0	1106	1	4	0	40	102	0	1	99
fixed	2	9	8	335523	2	3	3	1	0	962	1	4	0	56	103	0	1	99
fixed	2	9	9	337092	3	2	2	1	0	567	1	4	0	48	104	0	1	99
fixed	2	9	10	338395	1	4	4	1	0	656	1	4	0	64	105	0	1	99
fixed	2	9	11	339782	5	2	2	1	0	853	1	4	0	48	106	0	1	99
fixed	2	9	12	341268	4	3	3	2	0	1014	2	4	0	56	107	0	1	99
fixed	2	10	1	342863	4	1	1	1	0	587	1	4	0	40	108	0	1	99
fixed	2	10	2	343945	1	2	2	2	0	1357	2	4	0	48	109	0	1	99
fixed	2	10	3	345926	6	4	4	1	0	665	1	4	0	64	110	0	1	99
fixed	2	10	4	346943	2	1	1	1	0	622	1	4	0	40	111	0	1	99
fixed	2	10	5	348143	5	3	3	1	0	883	1	4	0	56	112	0	1	99
fixed	2	10	6	349836	6	4	4	1	0	731	1	4	0	64	113	0	1	99
fixed	2	10	7	351418	3	1	1	1	0	792	1	4	0	40	114	0	1	99
fixed	2	10	8	353047	2	3	3	1	0	875	1	4	0	56	115	0	1	99
fixed	2	10	9	354652	3	2	2	1	0	1128	1	4	0	48	116	0	1	99
fixed	2	10	10	356147	1	4	4	1	0	552	1	4	0	64	117	0	1	99
fixed	2	10	11	357168	5	2	2	1	0	917	1	4	0	48	118	0	1	99
fixed	2	10	12	358371	4	3	3	1	0	962	1	4	0	56	119	0	1	99
fixed	3	1	1	360854	4	1	1	1	0	672	1	4	0	72	1	0	0	100
fixed	3	1	2	362308	1	2	2	1	0	811	1	4	0	80	2	0	0	100
fixed	3	1	3	363464	6	4	4	1	0	698	1	4	0	96	3	0	0	100
fixed	3	1	4	364511	2	1	1	1	0	838	1	4	0	72	4	0	0	100
fixed	3	1	5	366107	5	3	3	1	0	914	1	4	0	88	5	0	0	100
fixed	3	1	6	367403	6	4	4	1	0	724	1	4	0	96	6	0	0	100
fixed	3	1	7	368619	3	1	1	1	0	856	1	4	0	72	7	0	0	100
fixed	3	1	8	369978	2	3	3	1	0	1022	1	4	0	88	8	0	0	100
fixed	3	1	9	371840	3	2	2	1	0	687	1	4	0	80	9	0	0	100
fixed	3	1	10	373054	1	4	4	1	0	636	1	4	0	96	10	0	0	100
fixed	3	1	11	374205	5	2	2	1	0	1019	1	4	0	80	11	0	0	100
fixed	3	1	12	375960	4	3	3	1	0	665	1	4	0	88	12	0	0	100
fixed	3	2	1	377731	4	1	1	1	0	702	1	4	0	72	13	0	0	100
fixed	3	2	2	378887	1	2	2	1	0	589	1	4	0	80	14	0	0	100
fixed	3	2	3	380193	6	4	4	1	0	374	1	4	0	96	15	0	0	100
fixed	3	2	4	381377	2	1	1	1	0	579	1	4	0	72	16	0	0	100
fixed	3	2	5	382689	5	3	3	1	0	740	1	4	0	88	17	0	0	100
fixed	3	2	6	384315	6	4	4	1	0	903	1	4	0	96	18	0	0	100
fixed	3	2	7	386032	3	1	1	1	0	702	1	4	0	72	19	0	0	100
fixed	3	2	8	387511	2	3	3	1	0	888	1	4	0	88	20	0	0	100
fixed	3	2	9	389194	3	2	2	1	0	768	1	4	0	80	21	0	0	100
fixed	3	2	10	390491	1	4	4	1	0	650	1	4	0	96	22	0	0	100
fixed	3	2	11	391545	5	2	2	1	0	1013	1	4	0	80	23	0	0	100
fixed	3	2	12	392913	4	3	3	1	0	683	1	4	0	88	24	0	0	100
fixed	3	3	1	394840	4	1	1	1	0	561	1	4	0	72	25	0	0	100
fixed	3	3	2	396139	1	2	2	1	0	827	1	4	0	80	26	0	0	100
fixed	3	3	3	397480	6	4	4	1	0	401	1	4	0	96	27	0	0	100
fixed	3	3	4	398826	2	1	1	1	0	609	1	4	0	72	28	0	0	100
fixed	3	3	5	399898	5	3	3	1	0	803	1	4	0	88	29	0	0	100
fixed	3	3	6	401083	6	4	4	1	0	785	1	4	0	96	30	0	0	100
fixed	3	3	7	402577	3	1	1	1	0	601	1	4	0	72	31	0	0	100
fixed	3	3	8	404095	2	3	3	1	0	889	1	4	0	88	32	0	0	100
fixed	3	3	9	405697	3	2	2	1	0	821	1	4	0	80	33	0	0	100
fixed	3	3	10	407232	1	4	4	1	0	645	1	4	0	96	34	0	0	100
fixed	3	3	11	408403	5	2	2	1	0	1019	1	4	0	80	35	0	0	100
fixed	3	3	12	409993	4	3	3	1	0	775	1	4	0	88	36	0	0	100
fixed	3	4	1	411631	4	1	1	1	0	634	1	4	0	72	37	0	0	100
fixed	3	4	2	413065	1	2	2	1	0	989	1	4	0	80	38	0	0	100
fixed	3	4	3	414700	6	4	4	1	0	376	1	4	0	96	39	0	0	100
fixed	3	4	4	416040	2	1	1	1	0	607	1	4	0	72	40	0	0	100
fixed	3	4	5	417362	5	3	3	1	0	751	1	4	0	88	41	0	0	100
fixed	3	4	6	419079	6	4	4	1	0	719	1	4	0	96	42	0	0	100
fixed	3	4	7	420807	3	1	1	1	0	733	1	4	0	72	43	0	0	100
fixed	3	4	8	422076	2	3	3	1	0	968	1	4	0	88	44	0	0	100
fixed	3	4	9	423359	3	2	2	1	0	801	1	4	0	80	45	0	0	100
fixed	3	4	10	424461	1	4	4	1	0	666	1	4	0	96	46	0	0	100
fixed	3	4	11	426160	5	2	2	1	0	715	1	4	0	80	47	0	0	100
fixed	3	4	12	427727	4	3	3	1	0	712	1	4	0	88	48	0	0	100
fixed	3	5	1	429558	4	1	1	1	0	627	1	4	0	72	49	0	0	100
fixed	3	5	2	431156	1	2	2	1	0	751	1	4	0	80	50	0	0	100
fixed	3	5	3	432760	6	4	4	1	0	363	1	4	0	96	51	0	0	100
fixed	3	5	4	433899	2	1	1	1	0	779	1	4	0	72	52	0	0	100
fixed	3	5	5	435000	5	3	3	1	0	973	1	4	0	88	53	0	0	100
fixed	3	5	6	436630	6	4	4	1	0	631	1	4	0	96	54	0	0	100
fixed	3	5	7	438216	3	1	1	1	0	700	1	4	0	72	55	0	0	100
fixed	3	5	8	439395	2	3	3	1	0	1090	1	4	0	88	56	0	0	100
fixed	3	5	9	440946	3	2	2	1	0	665	1	4	0	80	57	0	0	100
fixed	3	5	10	442566	1	4	4	1	0	692	1	4	0	96	58	0	0	100
fixed	3	5	11	444139	5	2	2	1	0	777	1	4	0	80	59	0	0	100
fixed	3	5	12	445258	4	3	3	1	0	762	1	4	0	88	60	0	0	100
fixed	3	6	1	446851	4	1	1	1	0	598	1	4	0	72	61	0	0	100
fixed	3	6	2	447977	1	2	2	1	0	599	1	4	0	80	62	0	0	100
fixed	3	6	3	449032	6	4	4	1	0	514	1	4	0	96	63	0	0	100
fixed	3	6	4	450377	2	1	1	1	0	769	1	4	0	72	64	0	0	100
fixed	3	6	5	451850	5	3	3	1	0	842	1	4	0	88	65	0	0	100
fixed	3	6	6	453710	6	4	4	1	0	620	1	4	0	96	66	0	0	100
fixed	3	6	7	454818	3	1	1	1	0	653	1	4	0	72	67	0	0	100
fixed	3	6	8	456461	2	3	3	1	0	975	1	4	0	88	68	0	0	100
fixed	3	6	9	458455	3	2	2	1	0	651	1	4	0	80	69	0	0	100
fixed	3	6	10	460076	1	4	4	1	0	702	1	4	0	96	70	0	0	100
fixed	3	6	11	461310	5	2	2	1	0	810	1	4	0	80	71	0	0	100
fixed	3	6	12	462666	4	3	3	1	0	665	1	4	0	88	72	0	0	100
fixed	3	7	1	464461	4	1	1	1	0	588	1	4	0	72	73	0	0	100
fixed	3	7	2	466002	1	2	2	1	0	899	1	4	0	80	74	0	0	100
fixed	3	7	3	467397	6	4	4	1	0	448	1	4	0	96	75	0	0	100
fixed	3	7	4	468207	2	1	1	1	0	574	1	4	0	72	76	0	0	100
fixed	3	7	5	469686	5	3	3	1	0	863	1	4	0	88	77	0	0	100
fixed	3	7	6	471267	6	4	4	1	0	612	1	4	0	96	78	0	0	100
fixed	3	7	7	472895	3	1	1	1	0	840	1	4	0	72	79	0	0	100
fixed	3	7	8	474619	2	3	3	1	0	870	1	4	0	88	80	0	0	100
fixed	3	7	9	475861	3	2	2	1	0	738	1	4	0	80	81	0	0	100
fixed	3	7	10	476931	1	4	4	1	0	772	1	4	0	96	82	0	0	100
fixed	3	7	11	478263	5	2	2	1	0	1012	1	4	0	80	83	0	0	100
fixed	3	7	12	479943	4	3	3	1	0	1149	1	4	0	88	84	0	0	100
fixed	3	8	1	482288	4	1	1	1	0	697	1	4	0	72	85	0	0	100
fixed	3	8	2	483344	1	2	2	1	0	1165	1	4	0	80	86	0	0	100
fixed	3	8	3	485512	6	4	4	1	0	369	1	4	0	96	87	0	0	100
fixed	3	8	4	486185	2	1	1	1	0	740	1	4	0	72	88	0	0	100
fixed	3	8	5	487680	5	3	3	1	0	541	1	4	0	88	89	0	0	100
fixed	3	8	6	489163	6	4	4	1	0	606	1	4	0	96	90	0	0	100
fixed	3	8	7	490706	3	1	1	1	0	668	1	4	0	72	91	0	0	100
fixed	3	8	8	492166	2	3	3	1	0	967	1	4	0	88	92	0	0	100
fixed	3	8	9	494153	3	2	2	1	0	651	1	4	0	80	93	0	0	100
fixed	3	8	10	495500	1	4	4	1	0	770	1	4	0	96	94	0	0	100
fixed	3	8	11	496673	5	2	2	1	0	944	1	4	0	80	95	0	0	100
fixed	3	8	12	498332	4	3	3	1	0	714	1	4	0	88	96	0	0	100
fixed	3	9	1	500182	4	1	1	1	0	643	1	4	0	72	97	0	0	100
fixed	3	9	2	501602	1	2	2	2	0	1431	2	4	0	80	98	0	0	100
fixed	3	9	3	503822	6	4	4	1	0	641	1	4	0	96	99	0	0	100
fixed	3	9	4	504811	2	1	1	1	0	1063	1	4	0	72	100	0	0	100
fixed	3	9	5	506280	5	3	3	1	0	921	1	4	0	88	101	0	0	100
fixed	3	9	6	507832	6	4	4	1	0	663	1	4	0	96	102	0	0	100
fixed	3	9	7	508885	3	1	1	1	0	715	1	4	0	72	103	0	0	100
fixed	3	9	8	509914	2	3	3	1	0	871	1	4	0	88	104	0	0	100
fixed	3	9	9	511513	3	2	2	1	0	531	1	4	0	80	105	0	0	100
fixed	3	9	10	512946	1	4	4	1	0	599	1	4	0	96	106	0	0	100
fixed	3	9	11	514527	5	2	2	1	0	900	1	4	0	80	107	0	0	100
fixed	3	9	12	516304	4	3	3	1	0	872	1	4	0	88	108	0	0	100
fixed	3	10	1	517909	4	1	1	1	0	724	1	4	0	72	109	0	0	100
fixed	3	10	2	519596	1	2	2	1	0	789	1	4	0	80	110	0	0	100
fixed	3	10	3	520966	6	4	4	1	0	523	1	4	0	96	111	0	0	100
fixed	3	10	4	521914	2	1	1	1	0	771	1	4	0	72	112	0	0	100
fixed	3	10	5	523074	5	3	3	1	0	1090	1	4	0	88	113	0	0	100
fixed	3	10	6	524492	6	4	4	1	0	1054	1	4	0	96	114	0	0	100
fixed	3	10	7	526535	3	1	1	1	0	1223	1	4	0	72	115	0	0	100
fixed	3	10	8	528718	2	3	3	1	0	1115	1	4	0	88	116	0	0	100
fixed	3	10	9	530568	3	2	2	1	0	981	1	4	0	80	117	0	0	100
fixed	3	10	10	532303	1	4	4	1	0	691	1	4	0	96	118	0	0	100
fixed	3	10	11	533638	5	2	2	1	0	859	1	4	0	80	119	0	0	100
fixed	3	10	12	535457	4	3	3	1	0	821	1	4	0	88	120	0	0	100
fixed	4	1	1	633790	4	1	1	1	0	768	1	4	0	104	1	0	0	100
fixed	4	1	2	634949	1	2	2	1	0	703	1	4	0	112	2	0	0	100
fixed	4	1	3	636529	6	4	4	1	0	357	1	4	0	128	3	0	0	100
fixed	4	1	4	637181	2	1	1	1	0	697	1	4	0	104	4	0	0	100
fixed	4	1	5	638283	5	3	3	1	0	978	1	4	0	120	5	0	0	100
fixed	4	1	6	640042	6	4	4	1	0	719	1	4	0	128	6	0	0	100
fixed	4	1	7	641349	3	1	1	1	0	800	1	4	0	104	7	0	0	100
fixed	4	1	8	642584	2	3	3	1	0	900	1	4	0	120	8	0	0	100
fixed	4	1	9	644486	3	2	2	1	0	499	1	4	0	112	9	0	0	100
fixed	4	1	10	645380	1	4	4	1	0	990	1	4	0	128	10	0	0	100
fixed	4	1	11	647382	5	2	2	1	0	873	1	4	0	112	11	0	0	100
fixed	4	1	12	648591	4	3	3	1	0	814	1	4	0	120	12	0	0	100
fixed	4	2	1	650567	4	1	1	1	0	666	1	4	0	104	13	0	0	100
fixed	4	2	2	651723	1	2	2	2	0	1209	2	4	0	112	14	0	0	100
fixed	4	2	3	653840	6	4	4	1	0	615	1	4	0	128	15	0	0	100
fixed	4	2	4	655282	2	1	1	1	0	754	1	4	0	104	16	0	0	100
fixed	4	2	5	657025	5	3	3	1	0	744	1	4	0	120	17	0	0	100
fixed	4	2	6	658688	6	4	4	1	0	722	1	4	0	128	18	0	0	100
fixed	4	2	7	660214	3	1	1	1	0	769	1	4	0	104	19	0	0	100
fixed	4	2	8	661725	2	3	3	1	0	986	1	4	0	120	20	0	0	100
fixed	4	2	9	663100	3	2	2	1	0	607	1	4	0	112	21	0	0	100
fixed	4	2	10	664224	1	4	4	1	0	663	1	4	0	128	22	0	0	100
fixed	4	2	11	665323	5	2	2	1	0	737	1	4	0	112	23	0	0	100
fixed	4	2	12	666995	4	3	3	1	0	978	1	4	0	120	24	0	0	100
fixed	4	3	1	669046	4	1	1	1	0	515	1	4	0	104	25	0	0	100
fixed	4	3	2	669974	1	2	2	1	0	876	1	4	0	112	26	0	0	100
fixed	4	3	3	671807	6	4	4	1	0	350	1	4	0	128	27	0	0	100
fixed	4	3	4	672880	2	1	1	1	0	753	1	4	0	104	28	0	0	100
fixed	4	3	5	673927	5	3	3	1	0	972	1	4	0	120	29	0	0	100
fixed	4	3	6	675611	6	4	4	1	0	1013	1	4	0	128	30	0	0	100
fixed	4	3	7	677359	3	1	1	1	0	563	1	4	0	104	31	0	0	100
fixed	4	3	8	678403	2	3	3	1	0	1007	1	4	0	120	32	0	0	100
fixed	4	3	9	679990	3	2	2	1	0	603	1	4	0	112	33	0	0	100
fixed	4	3	10	681282	1	4	4	1	0	837	1	4	0	128	34	0	0	100
fixed	4	3	11	683014	5	2	2	1	0	827	1	4	0	112	35	0	0	100
fixed	4	3	12	684369	4	3	3	1	0	546	1	4	0	120	36	0	0	100
fixed	4	4	1	685884	4	1	1	1	0	738	1	4	0	104	37	0	0	100
fixed	4	4	2	687414	1	2	2	1	0	657	1	4	0	112	38	0	0	100
fixed	4	4	3	688460	6	4	4	1	0	645	1	4	0	128	39	0	0	100
fixed	4	4	4	689652	2	1	1	1	0	634	1	4	0	104	40	0	0	100
fixed	4	4	5	690837	5	3	3	1	0	1000	1	4	0	120	41	0	0	100
fixed	4	4	6	692127	6	4	4	1	0	1002	1	4	0	128	42	0	0	100
fixed	4	4	7	693532	3	1	1	1	0	590	1	4	0	104	43	0	0	100
fixed	4	4	8	694977	2	3	3	1	0	1097	1	4	0	120	44	0	0	100
fixed	4	4	9	696726	3	2	2	1	0	799	1	4	0	112	45	0	0	100
fixed	4	4	10	698459	1	4	4	1	0	758	1	4	0	128	46	0	0	100
fixed	4	4	11	699961	5	2	2	1	0	830	1	4	0	112	47	0	0	100
fixed	4	4	12	701814	4	3	3	1	0	807	1	4	0	120	48	0	0	100
fixed	4	5	1	703347	4	1	1	1	0	646	1	4	0	104	49	0	0	100
fixed	4	5	2	704795	1	2	2	1	0	473	1	4	0	112	50	0	0	100
fixed	4	5	3	705951	6	4	4	1	0	304	1	4	0	128	51	0	0	100
fixed	4	5	4	706730	2	1	1	1	0	615	1	4	0	104	52	0	0	100
fixed	4	5	5	708196	5	3	3	1	0	793	1	4	0	120	53	0	0	100
fixed	4	5	6	709693	6	4	4	1	0	625	1	4	0	128	54	0	0	100
fixed	4	5	7	711153	3	1	1	1	0	628	1	4	0	104	55	0	0	100
fixed	4	5	8	712547	2	3	3	1	0	657	1	4	0	120	56	0	0	100
fixed	4	5	9	713712	3	2	2	1	0	911	1	4	0	112	57	0	0	100
fixed	4	5	10	715600	1	4	4	1	0	775	1	4	0	128	58	0	0	100
fixed	4	5	11	717173	5	2	2	1	0	797	1	4	0	112	59	0	0	100
fixed	4	5	12	718985	4	3	3	1	0	488	1	4	0	120	60	0	0	100
fixed	4	6	1	720405	4	1	1	1	0	580	1	4	0	104	61	0	0	100
fixed	4	6	2	721516	1	2	2	1	0	677	1	4	0	112	62	0	0	100
fixed	4	6	3	722570	6	4	4	1	0	600	1	4	0	128	63	0	0	100
fixed	4	6	4	724001	2	1	1	1	0	692	1	4	0	104	64	0	0	100
fixed	4	6	5	725705	5	3	3	1	0	1131	1	4	0	120	65	0	0	100
fixed	4	6	6	727771	6	4	4	1	0	884	1	4	0	128	66	0	0	100
fixed	4	6	7	729122	3	1	1	1	0	715	1	4	0	104	67	0	0	100
fixed	4	6	8	730738	2	3	3	1	0	950	1	4	0	120	68	0	0	100
fixed	4	6	9	732131	3	2	2	1	0	771	1	4	0	112	69	0	0	100
fixed	4	6	10	733298	1	4	4	1	0	938	1	4	0	128	70	0	0	100
fixed	4	6	11	734610	5	2	2	1	0	866	1	4	0	112	71	0	0	100
fixed	4	6	12	736105	4	3	3	1	0	923	1	4	0	120	72	0	0	100
fixed	4	7	1	737948	4	1	1	1	0	533	1	4	0	104	73	0	0	100
fixed	4	7	2	738969	1	2	2	1	0	577	1	4	0	112	74	0	0	100
fixed	4	7	3	740111	6	4	4	1	0	377	1	4	0	128	75	0	0	100
fixed	4	7	4	740851	2	1	1	1	0	922	1	4	0	104	76	0	0	100
fixed	4	7	5	742767	5	3	3	1	0	793	1	4	0	120	77	0	0	100
fixed	4	7	6	744030	6	4	4	1	0	667	1	4	0	128	78	0	0	100
fixed	4	7	7	745117	3	1	1	1	0	789	1	4	0	104	79	0	0	100
fixed	4	7	8	746301	2	3	3	1	0	915	1	4	0	120	80	0	0	100
fixed	4	7	9	747803	3	2	2	1	0	531	1	4	0	112	81	0	0	100
fixed	4	7	10	748885	1	4	4	1	0	718	1	4	0	128	82	0	0	100
fixed	4	7	11	750559	5	2	2	1	0	823	1	4	0	112	83	0	0	100
fixed	4	7	12	752382	4	3	3	1	0	1033	1	4	0	120	84	0	0	100
fixed	4	8	1	754255	4	1	1	1	0	666	1	4	0	104	85	0	0	100
fixed	4	8	2	755289	1	2	2	1	0	806	1	4	0	112	86	0	0	100
fixed	4	8	3	756472	6	4	4	1	0	413	1	4	0	128	87	0	0	100
fixed	4	8	4	757839	2	1	1	1	0	1275	1	4	0	104	88	0	0	100
fixed	4	8	5	759911	5	3	3	1	0	811	1	4	0	120	89	0	0	100
fixed	4	8	6	761359	6	4	4	1	0	661	1	4	0	128	90	0	0	100
fixed	4	8	7	762315	3	1	1	1	0	837	1	4	0	104	91	0	0	100
fixed	4	8	8	763617	2	3	3	1	0	886	1	4	0	120	92	0	0	100
fixed	4	8	9	764827	3	2	2	1	0	667	1	4	0	112	93	0	0	100
fixed	4	8	10	766434	1	4	4	1	0	630	1	4	0	128	94	0	0	100
fixed	4	8	11	767797	5	2	2	1	0	853	1	4	0	112	95	0	0	100
fixed	4	8	12	769054	4	3	3	1	0	656	1	4	0	120	96	0	0	100
fixed	4	9	1	770328	4	1	1	1	0	689	1	4	0	104	97	0	0	100
fixed	4	9	2	771636	1	2	2	1	0	890	1	4	0	112	98	0	0	100
fixed	4	9	3	772830	6	4	4	1	0	736	1	4	0	128	99	0	0	100
fixed	4	9	4	774005	2	1	1	1	0	461	1	4	0	104	100	0	0	100
fixed	4	9	5	774837	5	3	3	1	0	962	1	4	0	120	101	0	0	100
fixed	4	9	6	776657	6	4	4	1	0	725	1	4	0	128	102	0	0	100
fixed	4	9	7	777866	3	1	1	1	0	978	1	4	0	104	103	0	0	100
fixed	4	9	8	779541	2	3	3	1	0	779	1	4	0	120	104	0	0	100
fixed	4	9	9	780661	3	2	2	1	0	572	1	4	0	112	105	0	0	100
fixed	4	9	10	782272	1	4	4	1	0	623	1	4	0	128	106	0	0	100
fixed	4	9	11	783427	5	2	2	1	0	966	1	4	0	112	107	0	0	100
fixed	4	9	12	785251	4	3	3	1	0	841	1	4	0	120	108	0	0	100
fixed	4	10	1	787203	4	1	1	1	0	494	1	4	0	104	109	0	0	100
fixed	4	10	2	788219	1	2	2	1	0	555	1	4	0	112	110	0	0	100
fixed	4	10	3	789509	6	4	4	1	0	301	1	4	0	128	111	0	0	100
fixed	4	10	4	790466	2	1	1	1	0	524	1	4	0	104	112	0	0	100
fixed	4	10	5	791422	5	3	3	1	0	1140	1	4	0	120	113	0	0	100
fixed	4	10	6	793278	6	4	4	1	0	742	1	4	0	128	114	0	0	100
fixed	4	10	7	794709	3	1	1	1	0	681	1	4	0	104	115	0	0	100
fixed	4	10	8	796043	2	3	3	1	0	568	1	4	0	120	116	0	0	100
fixed	4	10	9	797404	3	2	2	1	0	735	1	4	0	112	117	0	0	100
fixed	4	10	10	798734	1	4	4	1	0	606	1	4	0	128	118	0	0	100
fixed	4	10	11	800245	5	2	2	1	0	902	1	4	0	112	119	0	0	100
fixed	4	10	12	801689	4	3	3	2	0	1441	2	4	0	120	120	0	0	100
fixed	5	1	1	804693	4	1	1	1	0	746	1	4	0	136	1	0	0	100
fixed	5	1	2	806420	1	2	2	1	0	993	1	4	0	144	2	0	0	100
fixed	5	1	3	808123	6	4	4	1	0	576	1	4	0	160	3	0	0	100
fixed	5	1	4	809417	2	1	1	1	0	658	1	4	0	136	4	0	0	100
fixed	5	1	5	810663	5	3	3	1	0	813	1	4	0	152	5	0	0	100
fixed	5	1	6	812395	6	4	4	1	0	715	1	4	0	160	6	0	0	100
fixed	5	1	7	813821	3	1	1	1	0	1079	1	4	0	136	7	0	0	100
fixed	5	1	8	815272	2	3	3	2	0	1898	2	4	0	152	8	0	0	100
fixed	5	1	9	817587	3	2	2	1	0	656	1	4	0	144	9	0	0	100
fixed	5	1	10	818738	1	4	4	1	0	575	1	4	0	160	10	0	0	100
fixed	5	1	11	820237	5	2	2	1	0	703	1	4	0	144	11	0	0	100
fixed	5	1	12	821722	4	3	3	1	0	784	1	4	0	152	12	0	0	100
fixed	5	2	1	823074	4	1	1	1	0	687	1	4	0	136	13	0	0	100
fixed	5	2	2	824496	1	2	2	1	0	427	1	4	0	144	14	0	0	100
fixed	5	2	3	825621	6	4	4	1	0	452	1	4	0	160	15	0	0	100
fixed	5	2	4	826728	2	1	1	1	0	365	1	4	0	136	16	0	0	100
fixed	5	2	5	827738	5	3	3	1	0	858	1	4	0	152	17	0	0	100
fixed	5	2	6	829005	6	4	4	1	0	972	1	4	0	160	18	0	0	100
fixed	5	2	7	830893	3	1	1	1	0	788	1	4	0	136	19	0	0	100
fixed	5	2	8	832390	2	3	3	1	0	1021	1	4	0	152	20	0	0	100
fixed	5	2	9	834129	3	2	2	1	0	787	1	4	0	144	21	0	0	100
fixed	5	2	10	835628	1	4	4	1	0	620	1	4	0	160	22	0	0	100
fixed	5	2	11	836756	5	2	2	1	0	900	1	4	0	144	23	0	0	100
fixed	5	2	12	838615	4	3	3	1	0	325	1	4	0	152	24	0	0	100
fixed	5	3	1	840082	4	1	1	1	0	639	1	4	0	136	25	0	0	100
fixed	5	3	2	841457	1	2	2	1	0	501	1	4	0	144	26	0	0	100
fixed	5	3	3	842709	6	4	4	1	0	536	1	4	0	160	27	0	0	100
fixed	5	3	4	843808	2	1	1	1	0	809	1	4	0	136	28	0	0	100
fixed	5	3	5	845246	5	3	3	1	0	812	1	4	0	152	29	0	0	100
fixed	5	3	6	846411	6	4	4	1	0	875	1	4	0	160	30	0	0	100
fixed	5	3	7	847757	3	1	1	1	0	706	1	4	0	136	31	0	0	100
fixed	5	3	8	849439	2	3	3	1	0	922	1	4	0	152	32	0	0	100
fixed	5	3	9	851336	3	2	2	1	0	827	1	4	0	144	33	0	0	100
fixed	5	3	10	852850	1	4	4	1	0	698	1	4	0	160	34	0	0	100
fixed	5	3	11	853871	5	2	2	1	0	959	1	4	0	144	35	0	0	100
fixed	5	3	12	855324	4	3	3	1	0	561	1	4	0	152	36	0	0	100
fixed	5	4	1	857074	4	1	1	1	0	567	1	4	0	136	37	0	0	100
fixed	5	4	2	858055	1	2	2	1	0	790	1	4	0	144	38	0	0	100
fixed	5	4	3	859606	6	4	4	1	0	580	1	4	0	160	39	0	0	100
fixed	5	4	4	860788	2	1	1	1	0	650	1	4	0	136	40	0	0	100
fixed	5	4	5	862270	5	3	3	1	0	923	1	4	0	152	41	0	0	100
fixed	5	4	6	863566	6	4	4	1	0	812	1	4	0	160	42	0	0	100
fixed	5	4	7	864825	3	1	1	1	0	687	1	4	0	136	43	0	0	100
fixed	5	4	8	866420	2	3	3	1	0	931	1	4	0	152	44	0	0	100
fixed	5	4	9	867777	3	2	2	1	0	666	1	4	0	144	45	0	0	100
fixed	5	4	10	869316	1	4	4	1	0	625	1	4	0	160	46	0	0	100
fixed	5	4	11	870921	5	2	2	1	0	965	1	4	0	144	47	0	0	100
fixed	5	4	12	872447	4	3	3	1	0	564	1	4	0	152	48	0	0	100
fixed	5	5	1	873915	4	1	1	1	0	574	1	4	0	136	49	0	0	100
fixed	5	5	2	875314	1	2	2	1	0	915	1	4	0	144	50	0	0	100
fixed	5	5	3	876717	6	4	4	1	0	480	1	4	0	160	51	0	0	100
fixed	5	5	4	877699	2	1	1	1	0	574	1	4	0	136	52	0	0	100
fixed	5	5	5	878762	5	3	3	1	0	808	1	4	0	152	53	0	0	100
fixed	5	5	6	879865	6	4	4	1	0	714	1	4	0	160	54	0	0	100
fixed	5	5	7	880901	3	1	1	1	0	598	1	4	0	136	55	0	0	100
fixed	5	5	8	882476	2	3	3	1	0	947	1	4	0	152	56	0	0	100
fixed	5	5	9	883707	3	2	2	1	0	927	1	4	0	144	57	0	0	100
fixed	5	5	10	885672	1	4	4	1	0	924	1	4	0	160	58	0	0	100
fixed	5	5	11	886945	5	2	2	1	0	854	1	4	0	144	59	0	0	100
fixed	5	5	12	888395	4	3	3	1	0	569	1	4	0	152	60	0	0	100
fixed	5	6	1	889804	4	1	1	1	0	757	1	4	0	136	61	0	0	100
fixed	5	6	2	891097	1	2	2	1	0	446	1	4	0	144	62	0	0	100
fixed	5	6	3	891956	6	4	4	1	0	618	1	4	0	160	63	0	0	100
fixed	5	6	4	893375	2	1	1	1	0	542	1	4	0	136	64	0	0	100
fixed	5	6	5	894710	5	3	3	1	0	725	1	4	0	152	65	0	0	100
fixed	5	6	6	895925	6	4	4	1	0	706	1	4	0	160	66	0	0	100
fixed	5	6	7	897235	3	1	1	1	0	699	1	4	0	136	67	0	0	100
fixed	5	6	8	898611	2	3	3	1	0	912	1	4	0	152	68	0	0	100
fixed	5	6	9	899824	3	2	2	1	0	845	1	4	0	144	69	0	0	100
fixed	5	6	10	901234	1	4	4	1	0	977	1	4	0	160	70	0	0	100
fixed	5	6	11	903205	5	2	2	1	0	797	1	4	0	144	71	0	0	100
fixed	5	6	12	904375	4	3	3	1	0	796	1	4	0	152	72	0	0	100
fixed	5	7	1	906395	4	1	1	1	0	646	1	4	0	136	73	0	0	100
fixed	5	7	2	907856	1	2	2	2	0	1136	2	4	0	144	74	0	0	100
fixed	5	7	3	909818	6	4	4	1	0	373	1	4	0	160	75	0	0	100
fixed	5	7	4	911160	2	1	1	1	0	516	1	4	0	136	76	0	0	100
fixed	5	7	5	912618	5	3	3	1	0	943	1	4	0	152	77	0	0	100
fixed	5	7	6	913932	6	4	4	1	0	1015	1	4	0	160	78	0	0	100
fixed	5	7	7	915698	3	1	1	1	0	764	1	4	0	136	79	0	0	100
fixed	5	7	8	917200	2	3	3	1	0	933	1	4	0	152	80	0	0	100
fixed	5	7	9	918752	3	2	2	1	0	619	1	4	0	144	81	0	0	100
fixed	5	7	10	919941	1	4	4	1	0	1297	1	4	0	160	82	0	0	100
fixed	5	7	11	922260	5	2	2	1	0	886	1	4	0	144	83	0	0	100
fixed	5	7	12	923884	4	3	3	1	0	602	1	4	0	152	84	0	0	100
fixed	5	8	1	925091	4	1	1	1	0	630	1	4	0	136	85	0	0	100
fixed	5	8	2	926700	1	2	2	1	0	682	1	4	0	144	86	0	0	100
fixed	5	8	3	927742	6	4	4	1	0	534	1	4	0	160	87	0	0	100
fixed	5	8	4	928858	2	1	1	1	0	615	1	4	0	136	88	0	0	100
fixed	5	8	5	930319	5	3	3	1	0	665	1	4	0	152	89	0	0	100
fixed	5	8	6	931583	6	4	4	1	0	644	1	4	0	160	90	0	0	100
fixed	5	8	7	932770	3	1	1	1	0	689	1	4	0	136	91	0	0	100
fixed	5	8	8	934045	2	3	3	1	0	939	1	4	0	152	92	0	0	100
fixed	5	8	9	935785	3	2	2	1	0	817	1	4	0	144	93	0	0	100
fixed	5	8	10	936893	1	4	4	1	0	731	1	4	0	160	94	0	0	100
fixed	5	8	11	938430	5	2	2	1	0	825	1	4	0	144	95	0	0	100
fixed	5	8	12	939996	4	3	3	1	0	695	1	4	0	152	96	0	0	100
fixed	5	9	1	941633	4	1	1	1	0	602	1	4	0	136	97	0	0	100
fixed	5	9	2	942966	1	2	2	1	0	801	1	4	0	144	98	0	0	100
fixed	5	9	3	944372	6	4	4	1	0	590	1	4	0	160	99	0	0	100
fixed	5	9	4	945561	2	1	1	1	0	619	1	4	0	136	100	0	0	100
fixed	5	9	5	946944	5	3	3	1	0	945	1	4	0	152	101	0	0	100
fixed	5	9	6	948531	6	4	4	1	0	661	1	4	0	160	102	0	0	100
fixed	5	9	7	950056	3	1	1	1	0	853	1	4	0	136	103	0	0	100
fixed	5	9	8	951424	2	3	3	1	0	1035	1	4	0	152	104	0	0	100
fixed	5	9	9	953013	3	2	2	1	0	968	1	4	0	144	105	0	0	100
fixed	5	9	10	954434	1	4	4	1	0	652	1	4	0	160	106	0	0	100
fixed	5	9	11	955432	5	2	2	1	0	873	1	4	0	144	107	0	0	100
fixed	5	9	12	956974	4	3	3	1	0	368	1	4	0	152	108	0	0	100
fixed	5	10	1	958339	4	1	1	1	0	526	1	4	0	136	109	0	0	100
fixed	5	10	2	959574	1	2	2	1	0	770	1	4	0	144	110	0	0	100
fixed	5	10	3	960847	6	4	4	1	0	628	1	4	0	160	111	0	0	100
fixed	5	10	4	962210	2	1	1	1	0	546	1	4	0	136	112	0	0	100
fixed	5	10	5	963256	5	3	3	1	0	926	1	4	0	152	113	0	0	100
fixed	5	10	6	964829	6	4	4	1	0	683	1	4	0	160	114	0	0	100
fixed	5	10	7	966090	3	1	1	1	0	630	1	4	0	136	115	0	0	100
fixed	5	10	8	967247	2	3	3	1	0	709	1	4	0	152	116	0	0	100
fixed	5	10	9	968710	3	2	2	1	0	727	1	4	0	144	117	0	0	100
fixed	5	10	10	970318	1	4	4	1	0	715	1	4	0	160	118	0	0	100
fixed	5	10	11	971460	5	2	2	1	0	810	1	4	0	144	119	0	0	100
fixed	5	10	12	972842	4	3	3	1	0	704	1	4	0	152	120	0	0	100
random	6	1	1	1079551	6	1	1	1	0	744	1	4	0	168	1	0	0	100
random	6	1	2	1081237	4	4	4	1	0	929	1	4	0	192	2	0	0	100
random	6	1	3	1083112	2	2	2	1	0	873	1	4	0	176	3	0	0	100
random	6	1	4	1084671	3	3	3	1	0	423	1	4	0	184	4	0	0	100
random	6	1	5	1086034	5	2	2	1	0	853	1	4	0	176	5	0	0	100
random	6	1	6	1087392	1	4	4	1	0	540	1	4	0	192	6	0	0	100
random	6	1	7	1088635	6	1	1	2	0	912	2	4	0	168	7	0	0	100
random	6	1	8	1090005	2	3	3	1	0	910	1	4	0	184	8	0	0	100
random	6	1	9	1091918	4	2	2	1	0	700	1	4	0	176	9	0	0	100
random	6	1	10	1093578	1	1	1	1	0	726	1	4	0	168	10	0	0	100
random	6	1	11	1095061	5	4	4	1	0	583	1	4	0	192	11	0	0	100
random	6	1	12	1095950	3	3	3	1	0	1098	1	4	0	184	12	0	0	100
random	6	1	13	1097998	5	2	2	1	0	795	1	4	0	176	13	0	0	100
random	6	1	14	1099585	1	4	4	1	0	648	1	4	0	192	14	0	0	100
random	6	1	15	1100546	3	1	1	1	0	871	1	4	0	168	15	0	0	100
random	6	1	16	1102035	4	3	3	1	0	1616	1	4	0	184	16	0	0	100
random	6	1	17	1104469	6	4	4	1	0	641	1	4	0	192	17	0	0	100
random	6	1	18	1105892	2	1	1	1	0	1013	1	4	0	168	18	0	0	100
random	6	1	19	1107307	5	3	3	1	0	864	1	4	0	184	19	0	0	100
random	6	1	20	1108492	2	2	2	1	0	694	1	4	0	176	20	0	0	100
random	6	1	21	1109537	3	3	3	1	0	706	1	4	0	184	21	0	0	100
random	6	1	22	1110703	6	1	1	1	0	537	1	4	0	168	22	0	0	100
random	6	1	23	1111626	4	2	2	1	0	754	1	4	0	176	23	0	0	100
random	6	1	24	1112967	1	4	4	1	0	521	1	4	0	192	24	0	0	100
random	6	1	25	1114405	4	3	3	1	0	1068	1	4	0	184	25	0	0	100
random	6	1	26	1116374	2	1	1	1	0	713	1	4	0	168	26	0	0	100
random	6	1	27	1117743	5	2	2	1	0	911	1	4	0	176	27	0	0	100
random	6	1	28	1119522	6	4	4	1	0	459	1	4	0	192	28	0	0	100
random	6	1	29	1120467	1	3	3	1	0	900	1	4	0	184	29	0	0	100
random	6	1	30	1121929	5	2	2	1	0	637	1	4	0	176	30	0	0	100
random	6	1	31	1123082	2	1	1	1	0	597	1	4	0	168	31	0	0	100
random	6	1	32	1124098	3	3	3	1	0	1073	1	4	0	184	32	0	0	100
random	6	1	33	1125856	6	4	4	1	0	751	1	4	0	192	33	0	0	100
random	6	1	34	1127431	4	2	2	1	0	717	1	4	0	176	34	0	0	100
random	6	1	35	1129045	3	4	4	1	0	664	1	4	0	192	35	0	0	100
random	6	1	36	1130149	1	1	1	1	0	689	1	4	0	168	36	0	0	100
random	6	1	37	1131481	3	4	4	1	0	753	1	4	0	192	37	0	0	100
random	6	1	38	1132958	5	3	0	1	2	0	3	4	0	184	37	0	1	97
random	6	1	39	1135952	6	1	1	1	0	868	1	4	0	168	38	0	1	97
random	6	1	40	1137283	1	2	2	1	0	755	1	4	0	176	39	0	1	98
random	6	1	41	1139005	2	3	3	1	0	1138	1	4	0	184	40	0	1	98
random	6	1	42	1140642	4	4	4	1	0	685	1	4	0	192	41	0	1	98
random	6	1	43	1141949	1	2	2	1	0	854	1	4	0	176	42	0	1	98
random	6	1	44	1143654	6	3	3	1	0	477	1	4	0	184	43	0	1	98
random	6	1	45	1144451	3	1	1	1	0	827	1	4	0	168	44	0	1	98
random	6	1	46	1146272	4	4	4	1	0	654	1	4	0	192	45	0	1	98
random	6	1	47	1147507	2	2	2	1	0	906	1	4	0	176	46	0	1	98
random	6	1	48	1148981	5	1	1	1	0	948	1	4	0	168	47	0	1	98
random	6	1	49	1150911	2	3	3	1	0	1066	1	4	0	184	48	0	1	98
random	6	1	50	1152388	3	1	1	1	0	843	1	4	0	168	49	0	1	98
random	6	1	51	1153608	1	4	4	1	0	824	1	4	0	192	50	0	1	98
random	6	1	52	1154969	5	3	3	1	0	870	1	4	0	184	51	0	1	98
random	6	1	53	1156590	3	2	2	1	0	521	1	4	0	176	52	0	1	98
random	6	1	54	1157495	6	4	4	1	0	651	1	4	0	192	53	0	1	98
random	6	1	55	1158554	4	2	2	1	0	702	1	4	0	176	54	0	1	98
random	6	1	56	1160120	1	1	1	1	0	948	1	4	0	168	55	0	1	98
random	6	1	57	1161937	5	4	4	1	0	599	1	4	0	192	56	0	1	98
random	6	1	58	1163333	2	1	1	1	0	772	1	4	0	168	57	0	1	98
random	6	1	59	1164614	6	2	2	1	0	789	1	4	0	176	58	0	1	98
random	6	1	60	1166084	4	3	3	1	0	471	1	4	0	184	59	0	1	98
random	6	1	61	1167786	1	2	2	1	0	1063	1	4	0	176	60	0	1	98
random	6	1	62	1169296	6	4	4	1	0	575	1	4	0	192	61	0	1	98
random	6	1	63	1170384	4	1	1	1	0	657	1	4	0	168	62	0	1	98
random	6	1	64	1171703	2	2	2	1	0	944	1	4	0	176	63	0	1	98
random	6	1	65	1173272	4	3	3	1	0	615	1	4	0	184	64	0	1	98
random	6	1	66	1174444	3	1	1	1	0	621	1	4	0	168	65	0	1	98
random	6	1	67	1175553	1	3	3	1	0	1030	1	4	0	184	66	0	1	99
random	6	1	68	1177045	5	4	4	1	0	735	1	4	0	192	67	0	1	99
random	6	1	69	1178795	2	2	2	1	0	813	1	4	0	176	68	0	1	99
random	6	1	70	1180481	3	1	1	1	0	837	1	4	0	168	69	0	1	99
random	6	1	71	1181805	5	4	4	1	0	637	1	4	0	192	70	0	1	99
random	6	1	72	1182916	6	3	3	1	0	822	1	4	0	184	71	0	1	99
random	6	1	73	1184694	2	1	1	1	0	755	1	4	0	168	72	0	1	99
random	6	1	74	1186337	5	3	3	1	0	1005	1	4	0	184	73	0	1	99
random	6	1	75	1187799	1	4	4	1	0	695	1	4	0	192	74	0	1	99
random	6	1	76	1189170	6	2	2	1	0	693	1	4	0	176	75	0	1	99
random	6	1	77	1190248	2	1	1	1	0	728	1	4	0	168	76	0	1	99
random	6	1	78	1191759	4	4	4	1	0	664	1	4	0	192	77	0	1	99
random	6	1	79	1192705	3	2	2	1	0	832	1	4	0	176	78	0	1	99
random	6	1	80	1194241	4	3	3	1	0	783	1	4	0	184	79	0	1	99
random	6	1	81	1195914	1	4	4	1	0	648	1	4	0	192	80	0	1	99
random	6	1	82	1197561	5	1	1	1	0	906	1	4	0	168	81	0	1	99
random	6	1	83	1198886	3	2	2	1	0	1186	1	4	0	176	82	0	1	99
random	6	1	84	1200740	6	3	3	1	0	875	1	4	0	184	83	0	1	99
random	6	1	85	1202906	3	2	2	1	0	895	1	4	0	176	84	0	1	99
random	6	1	86	1204171	1	3	3	1	0	834	1	4	0	184	85	0	1	99
random	6	1	87	1206014	4	4	4	1	0	1036	1	4	0	192	86	0	1	99
random	6	1	88	1207614	2	1	1	1	0	785	1	4	0	168	87	0	1	99
random	6	1	89	1208821	6	4	4	1	0	869	1	4	0	192	88	0	1	99
random	6	1	90	1210707	3	3	3	1	0	1069	1	4	0	184	89	0	1	99
random	6	1	91	1212284	5	4	4	1	0	818	1	4	0	192	90	0	1	99
random	6	1	92	1213982	1	2	2	1	0	730	1	4	0	176	91	0	1	99
random	6	1	93	1215307	5	1	1	1	0	1130	1	4	0	168	92	0	1	99
random	6	1	94	1217448	4	3	3	1	0	1088	1	4	0	184	93	0	1	99
random	6	1	95	1219554	6	1	1	1	0	927	1	4	0	168	94	0	1	99
random	6	1	96	1220981	2	2	2	1	0	786	1	4	0	176	95	0	1	99
random	6	1	97	1222370	4	3	3	1	0	759	1	4	0	184	96	0	1	99
random	6	1	98	1224077	3	2	2	1	0	607	1	4	0	176	97	0	1	99
random	6	1	99	1224979	6	3	3	1	0	1025	1	4	0	184	98	0	1	99
random	6	1	100	1226490	1	4	4	1	0	505	1	4	0	192	99	0	1	99
random	6	1	101	1227428	4	1	1	1	0	537	1	4	0	168	100	0	1	99
random	6	1	102	1228346	5	2	2	1	0	810	1	4	0	176	101	0	1	99
random	6	1	103	1230181	2	4	4	1	0	724	1	4	0	192	102	0	1	99
random	6	1	104	1231925	3	1	1	1	0	898	1	4	0	168	103	0	1	99
random	6	1	105	1233765	1	3	3	1	0	996	1	4	0	184	104	0	1	99
random	6	1	106	1235192	2	2	2	1	0	632	1	4	0	176	105	0	1	99
random	6	1	107	1236788	5	4	4	1	0	716	1	4	0	192	106	0	1	99
random	6	1	108	1237811	6	1	1	1	0	1089	1	4	0	168	107	0	1	99
random	6	1	109	1239780	5	4	4	1	0	758	1	4	0	192	108	0	1	99
random	6	1	110	1241168	6	3	3	1	0	1027	1	4	0	184	109	0	1	99
random	6	1	111	1242585	2	2	2	1	0	695	1	4	0	176	110	0	1	99
random	6	1	112	1243712	3	1	1	1	0	863	1	4	0	168	111	0	1	99
random	6	1	113	1245303	1	2	2	2	0	1108	2	4	0	176	112	0	1	99
random	6	1	114	1246698	2	3	3	1	0	673	1	4	0	184	113	0	1	99
random	6	1	115	1247995	3	1	1	1	0	650	1	4	0	168	114	0	1	99
random	6	1	116	1249329	4	4	4	1	0	778	1	4	0	192	115	0	1	99
random	6	1	117	1251100	6	1	1	1	0	887	1	4	0	168	116	0	1	99
random	6	1	118	1252408	5	3	3	1	0	1191	1	4	0	184	117	0	1	99
random	6	1	119	1254149	1	4	4	1	0	629	1	4	0	192	118	0	1	99
random	6	1	120	1255069	4	2	2	1	0	670	1	4	0	176	119	0	1	99
fixed	7	1	1	1256986	4	1	1	1	0	797	1	4	0	200	1	0	0	100
fixed	7	1	2	1258689	1	2	2	1	0	1221	1	4	0	208	2	0	0	100
fixed	7	1	3	1260290	6	4	4	1	0	609	1	4	0	224	3	0	0	100
fixed	7	1	4	1261370	2	1	1	1	0	907	1	4	0	200	4	0	0	100
fixed	7	1	5	1262797	5	3	3	1	0	911	1	4	0	216	5	0	0	100
fixed	7	1	6	1264174	6	4	4	1	0	708	1	4	0	224	6	0	0	100
fixed	7	1	7	1265652	3	1	1	1	0	646	1	4	0	200	7	0	0	100
fixed	7	1	8	1267074	2	3	3	1	0	986	1	4	0	216	8	0	0	100
fixed	7	1	9	1268787	3	2	2	1	0	657	1	4	0	208	9	0	0	100
fixed	7	1	10	1270354	1	4	4	1	0	679	1	4	0	224	10	0	0	100
fixed	7	1	11	1271710	5	2	2	1	0	949	1	4	0	208	11	0	0	100
fixed	7	1	12	1273046	4	3	3	1	0	629	1	4	0	216	12	0	0	100
fixed	7	2	1	1274682	4	1	1	1	0	631	1	4	0	200	1	0	0	8
fixed	7	2	2	1275839	1	2	2	1	0	990	1	4	0	208	2	0	0	14
fixed	7	2	3	1277223	6	4	4	1	0	460	1	4	0	224	3	0	0	20
fixed	7	2	4	1278380	2	1	1	1	0	675	1	4	0	200	4	0	0	25
fixed	7	2	5	1280039	5	3	3	1	0	845	1	4	0	216	5	0	0	29
fixed	7	2	6	1281193	6	4	4	1	0	828	1	4	0	224	6	0	0	33
fixed	7	2	7	1283034	3	1	1	1	0	589	1	4	0	200	7	0	0	37
fixed	7	2	8	1283996	2	3	3	1	0	805	1	4	0	216	8	0	0	40
fixed	7	2	9	1285670	3	2	2	1	0	694	1	4	0	208	9	0	0	43
fixed	7	2	10	1286821	1	4	4	1	0	1014	1	4	0	224	10	0	0	45
fixed	7	2	11	1288131	5	2	2	1	0	822	1	4	0	208	11	0	0	48
fixed	7	2	12	1289914	4	3	3	1	0	875	1	4	0	216	12	0	0	50
fixed	7	3	1	1291907	4	1	1	1	0	670	1	4	0	200	1	0	0	4
fixed	7	3	2	1292897	1	2	2	1	0	732	1	4	0	208	2	0	0	8
fixed	7	3	3	1294629	6	4	4	1	0	498	1	4	0	224	3	0	0	11
fixed	7	3	4	1296035	2	1	1	1	0	871	1	4	0	200	4	0	0	14
fixed	7	3	5	1297352	5	3	3	1	0	863	1	4	0	216	5	0	0	17
fixed	7	3	6	1298661	6	4	4	1	0	696	1	4	0	224	6	0	0	20
fixed	7	3	7	1299773	3	1	1	1	0	481	1	4	0	200	7	0	0	23
fixed	7	3	8	1301224	2	3	3	1	0	948	1	4	0	216	8	0	0	25
fixed	7	3	9	1302494	3	2	2	1	0	734	1	4	0	208	9	0	0	27
fixed	7	3	10	1304008	1	4	4	1	0	677	1	4	0	224	10	0	0	29
fixed	7	3	11	1305527	5	2	2	1	0	925	1	4	0	208	11	0	0	31
fixed	7	3	12	1307252	4	3	3	1	0	948	1	4	0	216	12	0	0	33
fixed	7	4	1	1308782	4	1	1	1	0	971	1	4	0	200	1	0	0	3
fixed	7	4	2	1310468	1	2	2	1	0	979	1	4	0	208	2	0	0	5
fixed	7	4	3	1312086	6	4	4	1	0	848	1	4	0	224	3	0	0	8
fixed	7	4	4	1313823	2	1	1	1	0	766	1	4	0	200	4	0	0	10
fixed	7	4	5	1315168	5	3	3	1	0	837	1	4	0	216	5	0	0	12
fixed	7	4	6	1316708	6	4	4	1	0	716	1	4	0	224	6	0	0	14
fixed	7	4	7	1318195	3	1	1	1	0	669	1	4	0	200	7	0	0	16
fixed	7	4	8	1319408	2	3	3	2	0	993	2	4	0	216	8	0	0	18
fixed	7	4	9	1320883	3	2	2	1	0	603	1	4	0	208	9	0	0	20
fixed	7	4	10	1322006	1	4	4	1	0	795	1	4	0	224	10	0	0	22
fixed	7	4	11	1323379	5	2	2	1	0	865	1	4	0	208	11	0	0	23
fixed	7	4	12	1325127	4	3	3	1	0	759	1	4	0	216	12	0	0	25
fixed	7	5	1	1326993	4	1	1	1	0	632	1	4	0	200	1	0	0	2
fixed	7	5	2	1327947	1	2	2	1	0	751	1	4	0	208	2	0	0	4
fixed	7	5	3	1329621	6	4	4	1	0	465	1	4	0	224	3	0	0	6
fixed	7	5	4	1330554	2	1	1	1	0	713	1	4	0	200	4	0	0	8
fixed	7	5	5	1331873	5	3	3	1	0	809	1	4	0	216	5	0	0	9
fixed	7	5	6	1333652	6	4	4	1	0	750	1	4	0	224	6	0	0	11
fixed	7	5	7	1335424	3	1	1	1	0	403	1	4	0	200	7	0	0	13
fixed	7	5	8	1336325	2	3	3	2	0	2365	2	4	0	216	8	0	0	14
fixed	7	5	9	1339044	3	2	2	1	0	713	1	4	0	208	9	0	0	16
fixed	7	5	10	1340262	1	4	4	1	0	822	1	4	0	224	10	0	0	17
fixed	7	5	11	1341417	5	2	2	1	0	813	1	4	0	208	11	0	0	19
fixed	7	5	12	1342708	4	3	3	1	0	566	1	4	0	216	12	0	0	20
fixed	7	6	1	1344436	4	1	1	1	0	661	1	4	0	200	1	0	0	2
fixed	7	6	2	1345531	1	2	2	1	0	775	1	4	0	208	2	0	0	3
fixed	7	6	3	1346714	6	4	4	1	0	629	1	4	0	224	3	0	0	5
fixed	7	6	4	1348082	2	1	1	1	0	923	1	4	0	200	4	0	0	6
fixed	7	6	5	1349419	5	3	3	1	0	834	1	4	0	216	5	0	0	8
fixed	7	6	6	1350582	6	4	4	1	0	848	1	4	0	224	6	0	0	9
fixed	7	6	7	1352069	3	1	1	1	0	777	1	4	0	200	7	0	0	10
fixed	7	6	8	1353801	2	3	3	1	0	905	1	4	0	216	8	0	0	12
fixed	7	6	9	1355368	3	2	2	1	0	590	1	4	0	208	9	0	0	13
fixed	7	6	10	1356947	1	4	4	1	0	788	1	4	0	224	10	0	0	14
fixed	7	6	11	1358564	5	2	2	1	0	895	1	4	0	208	11	0	0	15
fixed	7	6	12	1359784	4	3	3	1	0	835	1	4	0	216	12	0	0	17
fixed	7	7	1	1361729	4	1	1	1	0	968	1	4	0	200	1	0	0	1
fixed	7	7	2	1363151	1	2	2	1	0	660	1	4	0	208	2	0	0	3
fixed	7	7	3	1364130	6	4	4	1	0	667	1	4	0	224	3	0	0	4
fixed	7	7	4	1365574	2	1	1	1	0	734	1	4	0	200	4	0	0	5
fixed	7	7	5	1367319	5	3	3	1	0	1116	1	4	0	216	5	0	0	6
fixed	7	7	6	1368953	6	4	4	1	0	759	1	4	0	224	6	0	0	8
fixed	7	7	7	1370259	3	1	1	1	0	800	1	4	0	200	7	0	0	9
fixed	7	7	8	1371644	2	3	3	1	0	1221	1	4	0	216	8	0	0	10
fixed	7	7	9	1373209	3	2	2	1	0	698	1	4	0	208	9	0	0	11
fixed	7	7	10	1374476	1	4	4	1	0	876	1	4	0	224	10	0	0	12
fixed	7	7	11	1376175	5	2	2	1	0	957	1	4	0	208	11	0	0	13
fixed	7	7	12	1377908	4	3	3	1	0	835	1	4	0	216	12	0	0	14
fixed	7	8	1	1379472	4	1	1	1	0	817	1	4	0	200	1	0	0	1
fixed	7	8	2	1380581	1	2	2	1	0	1130	1	4	0	208	2	0	0	2
fixed	7	8	3	1382674	6	4	4	1	0	722	1	4	0	224	3	0	0	3
fixed	7	8	4	1384416	2	1	1	1	0	783	1	4	0	200	4	0	0	5
fixed	7	8	5	1386010	5	3	3	1	0	956	1	4	0	216	5	0	0	6
fixed	7	8	6	1387400	6	4	4	1	0	833	1	4	0	224	6	0	0	7
fixed	7	8	7	1388684	3	1	1	1	0	763	1	4	0	200	7	0	0	8
fixed	7	8	8	1390477	2	3	3	1	0	975	1	4	0	216	8	0	0	9
fixed	7	8	9	1392167	3	2	2	1	0	928	1	4	0	208	9	0	0	10
fixed	7	8	10	1394092	1	4	4	1	0	630	1	4	0	224	10	0	0	11
fixed	7	8	11	1395645	5	2	2	1	0	1036	1	4	0	208	11	0	0	12
fixed	7	8	12	1397190	4	3	3	1	0	731	1	4	0	216	12	0	0	13
fixed	7	9	1	1398836	4	1	1	1	0	893	1	4	0	200	1	0	0	1
fixed	7	9	2	1400612	1	2	2	1	0	354	1	4	0	208	2	0	0	2
fixed	7	9	3	1401601	6	4	4	1	0	400	1	4	0	224	3	0	0	3
fixed	7	9	4	1403006	2	1	1	1	0	733	1	4	0	200	4	0	0	4
fixed	7	9	5	1404197	5	3	3	1	0	946	1	4	0	216	5	0	0	5
fixed	7	9	6	1405444	6	4	4	1	0	869	1	4	0	224	6	0	0	6
fixed	7	9	7	1406798	3	1	1	1	0	828	1	4	0	200	7	0	0	7
fixed	7	9	8	1408412	2	3	3	1	0	1119	1	4	0	216	8	0	0	8
fixed	7	9	9	1410017	3	2	2	1	0	1075	1	4	0	208	9	0	0	9
fixed	7	9	10	1411991	1	4	4	1	0	744	1	4	0	224	10	0	0	9
fixed	7	9	11	1413725	5	2	2	1	0	918	1	4	0	208	11	0	0	10
fixed	7	9	12	1415632	4	3	3	1	0	326	1	4	0	216	12	0	0	11
fixed	7	10	1	1416697	4	1	1	1	0	624	1	4	0	200	1	0	0	1
fixed	7	10	2	1417693	1	2	2	1	0	774	1	4	0	208	2	0	0	2
fixed	7	10	3	1418995	6	4	4	1	0	879	1	4	0	224	3	0	0	3
fixed	7	10	4	1420739	2	1	1	1	0	1005	1	4	0	200	4	0	0	4
fixed	7	10	5	1422209	5	3	3	1	0	871	1	4	0	216	5	0	0	4
fixed	7	10	6	1423993	6	4	4	1	0	1140	1	4	0	224	6	0	0	5
fixed	7	10	7	1425955	3	1	1	1	0	664	1	4	0	200	7	0	0	6
fixed	7	10	8	1427483	2	3	3	1	0	1104	1	4	0	216	8	0	0	7
fixed	7	10	9	1429075	3	2	2	1	0	860	1	4	0	208	9	0	0	8
fixed	7	10	10	1430432	1	4	4	1	0	875	1	4	0	224	10	0	0	8
fixed	7	10	11	1432053	5	2	2	1	0	958	1	4	0	208	11	0	0	9
fixed	7	10	12	1433752	4	3	3	1	0	846	1	4	0	216	12	0	0	10
