type	block	sequ.	trial	time	Pos.	Color	Button	NumRsp	Resp_1	RT_1	R_Code	Resp_2	RT_2	Trigg.	n_hit	n_inc	n_miss	score_%

random	1	1	1	4298	6	1	1	1	0	2212	1	4	0	8	1	0	0	100
random	1	1	2	7335	4	4	4	1	0	1244	1	4	0	32	2	0	0	100
random	1	1	3	9592	2	2	2	1	0	2117	1	4	0	16	3	0	0	100
random	1	1	4	12573	3	3	3	1	0	2142	1	4	0	24	4	0	0	100
random	1	1	5	15545	5	2	2	1	0	2320	1	4	0	16	5	0	0	100
random	1	1	6	18235	1	4	4	1	0	1462	1	4	0	32	6	0	0	100
random	1	1	7	20525	6	1	1	1	0	2125	1	4	0	8	7	0	0	100
random	1	1	8	23591	2	3	0	0	2	0	3	4	0	24	7	0	1	88
random	1	1	9	26732	4	2	0	0	2	0	3	4	0	16	7	0	2	78
random	1	1	10	30112	1	1	1	1	0	1199	1	4	0	8	8	0	2	80
random	1	1	11	32323	5	4	4	1	0	922	1	4	0	32	9	0	2	82
random	1	1	12	34159	3	3	3	1	0	2156	1	4	0	24	10	0	2	83
random	1	1	13	37597	5	2	2	1	0	2418	1	4	0	16	11	0	2	85
random	1	1	14	40719	1	4	4	1	0	1174	1	4	0	32	12	0	2	86
random	1	1	15	42586	3	1	1	1	0	1023	1	4	0	8	13	0	2	87
random	1	1	16	44175	4	3	0	1	2	0	3	4	0	24	13	0	3	81
random	1	1	17	47535	6	4	4	1	0	1022	1	4	0	32	14	0	3	82
random	1	1	18	48947	2	1	1	1	0	1161	1	4	0	8	15	0	3	83
random	1	1	19	50875	5	3	3	1	0	1760	1	4	0	24	16	0	3	84
random	1	1	20	53485	2	2	2	1	0	1201	1	4	0	16	17	0	3	85
random	1	1	21	55208	3	3	3	1	0	2224	1	4	0	24	18	0	3	86
random	1	1	22	58101	6	1	1	1	0	1214	1	4	0	8	19	0	3	86
random	1	1	23	60344	4	2	2	1	0	1503	1	4	0	16	20	0	3	87
random	1	1	24	62607	1	4	4	1	0	895	1	4	0	32	21	0	3	88
random	1	1	25	64799	4	3	3	1	0	1962	1	4	0	24	22	0	3	88
random	1	1	26	67300	2	1	1	1	0	1136	1	4	0	8	23	0	3	88
random	1	1	27	69422	5	2	2	2	0	2303	2	4	0	16	24	0	3	89
random	1	1	28	72128	6	4	4	1	0	1884	1	4	0	32	25	0	3	89
random	1	1	29	74846	1	3	3	1	0	2177	1	4	0	24	26	0	3	90
random	1	1	30	77475	5	2	0	1	2	0	3	4	0	16	26	0	4	87
random	1	1	31	80799	2	1	1	1	0	1949	1	4	0	8	27	0	4	87
random	1	1	32	83545	3	3	3	1	0	2472	1	4	0	24	28	0	4	88
random	1	1	33	86659	6	4	4	1	0	980	1	4	0	32	29	0	4	88
random	1	1	34	88515	4	2	2	1	0	1374	1	4	0	16	30	0	4	88
random	1	1	35	90408	3	4	4	1	0	1102	1	4	0	32	31	0	4	89
random	1	1	36	92169	1	1	1	1	0	1059	1	4	0	8	32	0	4	89
random	1	1	37	94171	3	4	4	1	0	1166	1	4	0	32	33	0	4	89
random	1	1	38	95826	5	3	3	1	0	1896	1	4	0	24	34	0	4	89
random	1	1	39	98404	6	1	1	1	0	931	1	4	0	8	35	0	4	90
random	1	1	40	100057	1	2	2	1	0	1205	1	4	0	16	36	0	4	90
random	1	1	41	102099	2	3	3	1	0	1414	1	4	0	24	37	0	4	90
random	1	1	42	103904	4	4	4	1	0	1074	1	4	0	32	38	0	4	90
random	1	1	43	105436	1	2	2	1	0	1305	1	4	0	16	39	0	4	91
random	1	1	44	107145	6	3	3	1	0	1737	1	4	0	24	40	0	4	91
random	1	1	45	109434	3	1	1	1	0	1040	1	4	0	8	41	0	4	91
random	1	1	46	111081	4	4	4	1	0	978	1	4	0	32	42	0	4	91
random	1	1	47	112962	2	2	2	1	0	2050	1	4	0	16	43	0	4	91
random	1	1	48	115328	5	1	1	1	0	974	1	4	0	8	44	0	4	92
random	1	1	49	117077	2	3	3	1	0	2092	1	4	0	24	45	0	4	92
random	1	1	50	119536	3	1	1	1	0	1100	1	4	0	8	46	0	4	92
random	1	1	51	121376	1	4	4	1	0	942	1	4	0	32	47	0	4	92
random	1	1	52	123240	5	3	0	0	2	0	3	4	0	24	47	0	5	90
random	1	1	53	126472	3	2	2	1	0	1798	1	4	0	16	48	0	5	91
random	1	1	54	128717	6	4	4	1	0	1119	1	4	0	32	49	0	5	91
random	1	1	55	130349	4	2	0	1	2	0	3	4	0	16	49	0	6	89
random	1	1	56	133776	1	1	1	1	0	1153	1	4	0	8	50	0	6	89
random	1	1	57	135728	5	4	4	1	0	814	1	4	0	32	51	0	6	89
random	1	1	58	137075	2	1	1	1	0	956	1	4	0	8	52	0	6	90
random	1	1	59	138842	6	2	2	1	0	1682	1	4	0	16	53	0	6	90
random	1	1	60	140920	4	3	3	1	0	2058	1	4	0	24	54	0	6	90
random	1	1	61	143676	1	2	0	0	2	0	3	4	0	16	54	0	7	89
random	1	1	62	146942	6	4	4	1	0	1083	1	4	0	32	55	0	7	89
random	1	1	63	148536	4	1	1	1	0	1111	1	4	0	8	56	0	7	89
random	1	1	64	150215	2	2	2	1	0	1976	1	4	0	16	57	0	7	89
random	1	1	65	152886	4	3	3	1	0	2071	1	4	0	24	58	0	7	89
random	1	1	66	155952	3	1	1	1	0	902	1	4	0	8	59	0	7	89
random	1	1	67	157273	1	3	3	1	0	1653	1	4	0	24	60	0	7	90
random	1	1	68	159850	5	4	4	1	0	1320	1	4	0	32	61	0	7	90
random	1	1	69	161829	2	2	2	1	0	1324	1	4	0	16	62	0	7	90
random	1	1	70	163482	3	1	1	1	0	1022	1	4	0	8	63	0	7	90
random	1	1	71	164873	5	4	4	1	0	828	1	4	0	32	64	0	7	90
random	1	1	72	166051	6	3	3	1	0	1753	1	4	0	24	65	0	7	90
random	1	1	73	168353	2	1	1	1	0	2096	1	4	0	8	66	0	7	90
random	1	1	74	171116	5	3	3	1	0	1851	1	4	0	24	67	0	7	91
random	1	1	75	173443	1	4	4	1	0	1209	1	4	0	32	68	0	7	91
random	1	1	76	174954	6	2	2	1	0	1264	1	4	0	16	69	0	7	91
random	1	1	77	177251	2	1	1	1	0	1511	1	4	0	8	70	0	7	91
random	1	1	78	179082	4	4	4	1	0	929	1	4	0	32	71	0	7	91
random	1	1	79	180694	3	2	0	0	2	0	3	4	0	16	71	0	8	90
random	1	1	80	183900	4	3	3	1	0	2358	1	4	0	24	72	0	8	90
random	1	1	81	187008	1	4	4	1	0	1122	1	4	0	32	73	0	8	90
random	1	1	82	189092	5	1	1	1	0	970	1	4	0	8	74	0	8	90
random	1	1	83	190473	3	2	2	1	0	1719	1	4	0	16	75	0	8	90
random	1	1	84	193034	6	3	3	1	0	2339	1	4	0	24	76	0	8	90
random	1	1	85	196054	3	2	0	0	2	0	3	4	0	16	76	0	9	89
random	1	1	86	199284	1	3	3	2	0	2138	2	4	0	24	77	0	9	90
random	1	1	87	201872	4	4	4	1	0	1276	1	4	0	32	78	0	9	90
random	1	1	88	204087	2	1	1	1	0	983	1	4	0	8	79	0	9	90
random	1	1	89	205505	6	4	4	1	0	1083	1	4	0	32	80	0	9	90
random	1	1	90	207608	3	3	3	1	0	2282	1	4	0	24	81	0	9	90
random	1	1	91	210201	5	4	4	1	0	1236	1	4	0	32	82	0	9	90
random	1	1	92	212103	1	2	2	1	0	1227	1	4	0	16	83	0	9	90
random	1	1	93	214336	5	1	1	1	0	1716	1	4	0	8	84	0	9	90
random	1	1	94	216893	4	3	3	1	0	2352	1	4	0	24	85	0	9	90
random	1	1	95	219981	6	1	1	1	0	965	1	4	0	8	86	0	9	91
random	1	1	96	221738	2	2	2	1	0	2395	1	4	0	16	87	0	9	91
random	1	1	97	224758	4	3	3	1	0	1899	1	4	0	24	88	0	9	91
random	1	1	98	226999	3	2	0	1	2	0	3	4	0	16	88	0	10	90
random	1	1	99	230176	6	3	3	1	0	2229	1	4	0	24	89	0	10	90
random	1	1	100	232793	1	4	4	1	0	1686	1	4	0	32	90	0	10	90
random	1	1	101	234821	4	1	1	1	0	1769	1	4	0	8	91	0	10	90
random	1	1	102	237326	5	2	0	1	2	0	3	4	0	16	91	0	11	89
random	1	1	103	240742	2	4	4	1	0	1238	1	4	0	32	92	0	11	89
random	1	1	104	242772	3	1	1	1	0	1792	1	4	0	8	93	0	11	89
random	1	1	105	244920	1	3	0	0	2	0	3	4	0	24	93	0	12	89
random	1	1	106	247782	2	2	0	1	2	0	3	4	0	16	93	0	13	88
random	1	1	107	251322	5	4	4	1	0	1070	1	4	0	32	94	0	13	88
random	1	1	108	253315	6	1	1	1	0	1129	1	4	0	8	95	0	13	88
random	1	1	109	255383	5	4	4	1	0	1210	1	4	0	32	96	0	13	88
random	1	1	110	257101	6	3	3	1	0	2025	1	4	0	24	97	0	13	88
random	1	1	111	260026	2	2	2	1	0	2021	1	4	0	16	98	0	13	88
random	1	1	112	263044	3	1	1	1	0	973	1	4	0	8	99	0	13	88
random	1	1	113	264950	1	2	2	1	0	2453	1	4	0	16	100	0	13	88
random	1	1	114	267912	2	3	3	1	0	2431	1	4	0	24	101	0	13	89
random	1	1	115	271060	3	1	1	1	0	1130	1	4	0	8	102	0	13	89
random	1	1	116	272633	4	4	4	1	0	1431	1	4	0	32	103	0	13	89
random	1	1	117	275032	6	1	1	1	0	1057	1	4	0	8	104	0	13	89
random	1	1	118	276474	5	3	3	1	0	1805	1	4	0	24	105	0	13	89
random	1	1	119	279008	1	4	4	1	0	1121	1	4	0	32	106	0	13	89
random	1	1	120	280988	4	2	2	1	0	1613	1	4	0	16	107	0	13	89
fixed	2	1	1	284068	4	1	1	1	0	954	1	4	0	40	1	0	0	100
fixed	2	1	2	285595	1	2	0	1	2	0	3	4	0	48	1	0	1	50
fixed	2	1	3	289090	6	4	4	1	0	1206	1	4	0	64	2	0	1	67
fixed	2	1	4	290721	2	1	1	1	0	1537	1	4	0	40	3	0	1	75
fixed	2	1	5	293205	5	3	3	1	0	2224	1	4	0	56	4	0	1	80
fixed	2	1	6	296457	6	4	4	1	0	1158	1	4	0	64	5	0	1	83
fixed	2	1	7	298062	3	1	1	1	0	1586	1	4	0	40	6	0	1	86
fixed	2	1	8	300390	2	3	0	0	2	0	3	4	0	56	6	0	2	75
fixed	2	1	9	303900	3	2	2	1	0	1010	1	4	0	48	7	0	2	78
fixed	2	1	10	305922	1	4	4	1	0	1261	1	4	0	64	8	0	2	80
fixed	2	1	11	307582	5	2	2	1	0	1471	1	4	0	48	9	0	2	82
fixed	2	1	12	310020	4	3	3	1	0	1871	1	4	0	56	10	0	2	83
fixed	2	2	1	312891	4	1	1	1	0	1462	1	4	0	40	11	0	2	85
fixed	2	2	2	315186	1	2	2	1	0	1485	1	4	0	48	12	0	2	86
fixed	2	2	3	317053	6	4	4	1	0	1134	1	4	0	64	13	0	2	87
fixed	2	2	4	318792	2	1	0	2	2	0	3	4	0	40	13	0	3	81
fixed	2	2	5	321765	5	3	0	0	2	0	3	4	0	56	13	0	4	76
fixed	2	2	6	325225	6	4	4	1	0	860	1	4	0	64	14	0	4	78
fixed	2	2	7	326905	3	1	1	1	0	1413	1	4	0	40	15	0	4	79
fixed	2	2	8	328763	2	3	3	1	0	2302	1	4	0	56	16	0	4	80
fixed	2	2	9	331725	3	2	2	1	0	1616	1	4	0	48	17	0	4	81
fixed	2	2	10	333911	1	4	4	1	0	1044	1	4	0	64	18	0	4	82
fixed	2	2	11	335742	5	2	2	1	0	1702	1	4	0	48	19	0	4	83
fixed	2	2	12	338209	4	3	3	1	0	2006	1	4	0	56	20	0	4	83
fixed	2	3	1	341494	4	1	1	1	0	1162	1	4	0	40	21	0	4	84
fixed	2	3	2	343121	1	2	2	1	0	1726	1	4	0	48	22	0	4	85
fixed	2	3	3	345621	6	4	4	1	0	1163	1	4	0	64	23	0	4	85
fixed	2	3	4	347625	2	1	1	1	0	1863	1	4	0	40	24	0	4	86
fixed	2	3	5	350081	5	3	3	1	0	2015	1	4	0	56	25	0	4	86
fixed	2	3	6	352706	6	4	4	1	0	943	1	4	0	64	26	0	4	87
fixed	2	3	7	354203	3	1	1	1	0	1400	1	4	0	40	27	0	4	87
fixed	2	3	8	356421	2	3	0	0	2	0	3	4	0	56	27	0	5	84
fixed	2	3	9	359371	3	2	0	1	2	0	3	4	0	48	27	0	6	82
fixed	2	3	10	362390	1	4	4	1	0	1030	1	4	0	64	28	0	6	82
fixed	2	3	11	364358	5	2	2	1	0	1626	1	4	0	48	29	0	6	83
fixed	2	3	12	366982	4	3	3	1	0	2131	1	4	0	56	30	0	6	83
fixed	2	4	1	369914	4	1	1	1	0	1438	1	4	0	40	31	0	6	84
fixed	2	4	2	371814	1	2	2	2	0	2207	2	4	0	48	32	0	6	84
fixed	2	4	3	374467	6	4	4	1	0	1358	1	4	0	64	33	0	6	85
fixed	2	4	4	376268	2	1	1	1	0	1474	1	4	0	40	34	0	6	85
fixed	2	4	5	378118	5	3	3	1	0	2027	1	4	0	56	35	0	6	85
fixed	2	4	6	380750	6	4	4	2	0	1228	2	4	0	64	36	0	6	86
fixed	2	4	7	382782	3	1	1	1	0	1318	1	4	0	40	37	0	6	86
fixed	2	4	8	384785	2	3	0	0	2	0	3	4	0	56	37	0	7	84
fixed	2	4	9	388050	3	2	2	1	0	1263	1	4	0	48	38	0	7	84
fixed	2	4	10	390003	1	4	4	1	0	1628	1	4	0	64	39	0	7	85
fixed	2	4	11	392400	5	2	2	1	0	2366	1	4	0	48	40	0	7	85
fixed	2	4	12	395190	4	3	3	1	0	2232	1	4	0	56	41	0	7	85
fixed	2	5	1	398451	4	1	1	1	0	1086	1	4	0	40	42	0	7	86
fixed	2	5	2	400578	1	2	2	1	0	2108	1	4	0	48	43	0	7	86
fixed	2	5	3	403577	6	4	4	2	0	989	2	4	0	64	44	0	7	86
fixed	2	5	4	405350	2	1	1	2	0	1426	2	4	0	40	45	0	7	87
fixed	2	5	5	407749	5	3	0	0	2	0	3	4	0	56	45	0	8	85
fixed	2	5	6	410561	6	4	4	2	0	1070	2	4	0	64	46	0	8	85
fixed	2	5	7	412361	3	1	1	1	0	1249	1	4	0	40	47	0	8	85
fixed	2	5	8	413992	2	3	3	1	0	1852	1	4	0	56	48	0	8	86
fixed	2	5	9	416225	3	2	2	1	0	1526	1	4	0	48	49	0	8	86
fixed	2	5	10	418303	1	4	4	1	0	1589	1	4	0	64	50	0	8	86
fixed	2	5	11	420217	5	2	0	1	2	0	3	4	0	48	50	0	9	85
fixed	2	5	12	423658	4	3	3	1	0	1867	1	4	0	56	51	0	9	85
fixed	2	6	1	426670	4	1	1	2	0	963	2	4	0	40	52	0	9	85
fixed	2	6	2	428586	1	2	2	1	0	1626	1	4	0	48	53	0	9	85
fixed	2	6	3	430669	6	4	4	1	0	1233	1	4	0	64	54	0	9	86
fixed	2	6	4	432475	2	1	1	1	0	1125	1	4	0	40	55	0	9	86
fixed	2	6	5	434433	5	3	3	1	0	1682	1	4	0	56	56	0	9	86
fixed	2	6	6	436500	6	4	4	1	0	1570	1	4	0	64	57	0	9	86
fixed	2	6	7	438976	3	1	1	1	0	1562	1	4	0	40	58	0	9	87
fixed	2	6	8	441463	2	3	3	1	0	2080	1	4	0	56	59	0	9	87
fixed	2	6	9	443862	3	2	2	1	0	970	1	4	0	48	60	0	9	87
fixed	2	6	10	445381	1	4	4	1	0	1170	1	4	0	64	61	0	9	87
fixed	2	6	11	447472	5	2	2	1	0	1722	1	4	0	48	62	0	9	87
fixed	2	6	12	450110	4	3	3	1	0	2058	1	4	0	56	63	0	9	88
fixed	2	7	1	453001	4	1	1	1	0	1063	1	4	0	40	64	0	9	88
fixed	2	7	2	454452	1	2	2	1	0	1642	1	4	0	48	65	0	9	88
fixed	2	7	3	456832	6	4	4	1	0	1053	1	4	0	64	66	0	9	88
fixed	2	7	4	458895	2	1	1	1	0	1102	1	4	0	40	67	0	9	88
fixed	2	7	5	460727	5	3	0	0	2	0	3	4	0	56	67	0	10	87
fixed	2	7	6	463612	6	4	4	2	0	1062	2	4	0	64	68	0	10	87
fixed	2	7	7	465604	3	1	0	0	2	0	3	4	0	40	68	0	11	86
fixed	2	7	8	468853	2	3	3	1	0	1960	1	4	0	56	69	0	11	86
fixed	2	7	9	471529	3	2	2	2	0	1743	2	4	0	48	70	0	11	86
fixed	2	7	10	473837	1	4	4	1	0	1045	1	4	0	64	71	0	11	87
fixed	2	7	11	475890	5	2	0	1	2	0	3	4	0	48	71	0	12	86
fixed	2	7	12	478857	4	3	3	1	0	1713	1	4	0	56	72	0	12	86
fixed	2	8	1	481254	4	1	1	2	0	867	2	4	0	40	73	0	12	86
fixed	2	8	2	482658	1	2	2	2	0	2263	2	4	0	48	74	0	12	86
fixed	2	8	3	485586	6	4	4	1	0	1259	1	4	0	64	75	0	12	86
fixed	2	8	4	487526	2	1	1	1	0	1233	1	4	0	40	76	0	12	86
fixed	2	8	5	489470	5	3	0	0	2	0	3	4	0	56	76	0	13	85
fixed	2	8	6	492318	6	4	4	1	0	1542	1	4	0	64	77	0	13	86
fixed	2	8	7	494589	3	1	1	1	0	1030	1	4	0	40	78	0	13	86
fixed	2	8	8	496238	2	3	3	1	0	2393	1	4	0	56	79	0	13	86
fixed	2	8	9	499484	3	2	2	2	0	1063	2	4	0	48	80	0	13	86
fixed	2	8	10	501296	1	4	4	1	0	1178	1	4	0	64	81	0	13	86
fixed	2	8	11	503409	5	2	2	1	0	1536	1	4	0	48	82	0	13	86
fixed	2	8	12	505708	4	3	0	0	2	0	3	4	0	56	82	0	14	85
fixed	2	9	1	509039	4	1	1	2	0	1050	2	4	0	40	83	0	14	86
fixed	2	9	2	510548	1	2	2	1	0	1658	1	4	0	48	84	0	14	86
fixed	2	9	3	512674	6	4	4	1	0	1048	1	4	0	64	85	0	14	86
fixed	2	9	4	514611	2	1	1	1	0	950	1	4	0	40	86	0	14	86
fixed	2	9	5	516285	5	3	3	1	0	1967	1	4	0	56	87	0	14	86
fixed	2	9	6	518623	6	4	4	1	0	2484	1	4	0	64	88	0	14	86
fixed	2	9	7	521983	3	1	1	1	0	1030	1	4	0	40	89	0	14	86
fixed	2	9	8	523305	2	3	3	1	0	2053	1	4	0	56	90	0	14	87
fixed	2	9	9	526247	3	2	2	2	0	1057	2	4	0	48	91	0	14	87
fixed	2	9	10	527750	1	4	4	1	0	1881	1	4	0	64	92	0	14	87
fixed	2	9	11	530376	5	2	2	1	0	178	1	4	0	48	93	0	14	87
fixed	2	9	12	531291	4	3	3	1	0	1971	1	4	0	56	94	0	14	87
fixed	2	10	1	534485	4	1	1	1	0	892	1	4	0	40	95	0	14	87
fixed	2	10	2	536028	1	2	0	1	2	0	3	4	0	48	95	0	15	86
fixed	2	10	3	538888	6	4	4	1	0	1330	1	4	0	64	96	0	15	86
fixed	2	10	4	541221	2	1	1	1	0	1111	1	4	0	40	97	0	15	87
fixed	2	10	5	543271	5	3	3	1	0	1712	1	4	0	56	98	0	15	87
fixed	2	10	6	545901	6	4	4	1	0	1185	1	4	0	64	99	0	15	87
fixed	2	10	7	547610	3	1	1	1	0	1033	1	4	0	40	100	0	15	87
fixed	2	10	8	548978	2	3	0	0	2	0	3	4	0	56	100	0	16	86
fixed	2	10	9	552321	3	2	0	1	2	0	3	4	0	48	100	0	17	85
fixed	2	10	10	555529	1	4	4	1	0	1313	1	4	0	64	101	0	17	86
fixed	2	10	11	557790	5	2	2	1	0	665	1	4	0	48	102	0	17	86
fixed	2	10	12	559427	4	3	3	1	0	1859	1	4	0	56	103	0	17	86
fixed	3	1	1	562301	4	1	1	1	0	970	1	4	0	72	1	0	0	100
fixed	3	1	2	563759	1	2	2	1	0	1828	1	4	0	80	2	0	0	100
fixed	3	1	3	566187	6	4	4	2	0	1150	2	4	0	96	3	0	0	100
fixed	3	1	4	567933	2	1	1	1	0	2347	1	4	0	72	4	0	0	100
fixed	3	1	5	571133	5	3	3	1	0	1692	1	4	0	88	5	0	0	100
fixed	3	1	6	573304	6	4	4	1	0	1368	1	4	0	96	6	0	0	100
fixed	3	1	7	575012	3	1	1	1	0	1192	1	4	0	72	7	0	0	100
fixed	3	1	8	576910	2	3	3	1	0	2015	1	4	0	88	8	0	0	100
fixed	3	1	9	579738	3	2	0	1	2	0	3	4	0	80	8	0	1	89
fixed	3	1	10	583100	1	4	4	1	0	1225	1	4	0	96	9	0	1	90
fixed	3	1	11	585356	5	2	2	1	0	1546	1	4	0	80	10	0	1	91
fixed	3	1	12	587803	4	3	0	0	2	0	3	4	0	88	10	0	2	83
fixed	3	2	1	591491	4	1	1	1	0	1285	1	4	0	72	11	0	2	85
fixed	3	2	2	593532	1	2	2	1	0	1807	1	4	0	80	12	0	2	86
fixed	3	2	3	595995	6	4	4	1	0	1183	1	4	0	96	13	0	2	87
fixed	3	2	4	597600	2	1	1	1	0	1235	1	4	0	72	14	0	2	88
fixed	3	2	5	599774	5	3	3	1	0	1623	1	4	0	88	15	0	2	88
fixed	3	2	6	601918	6	4	4	1	0	1468	1	4	0	96	16	0	2	89
fixed	3	2	7	604247	3	1	1	1	0	1618	1	4	0	72	17	0	2	89
fixed	3	2	8	606273	2	3	0	1	2	0	3	4	0	88	17	0	3	85
fixed	3	2	9	609472	3	2	2	1	0	1316	1	4	0	80	18	0	3	86
fixed	3	2	10	611091	1	4	4	1	0	1431	1	4	0	96	19	0	3	86
fixed	3	2	11	613545	5	2	2	1	0	2007	1	4	0	80	20	0	3	87
fixed	3	2	12	616013	4	3	3	1	0	1703	1	4	0	88	21	0	3	88
fixed	3	3	1	618257	4	1	1	1	0	1176	1	4	0	72	22	0	3	88
fixed	3	3	2	619922	1	2	0	1	2	0	3	4	0	80	22	0	4	85
fixed	3	3	3	623215	6	4	4	1	0	1134	1	4	0	96	23	0	4	85
fixed	3	3	4	625184	2	1	1	1	0	1251	1	4	0	72	24	0	4	86
fixed	3	3	5	626986	5	3	3	1	0	1982	1	4	0	88	25	0	4	86
fixed	3	3	6	629765	6	4	4	1	0	1129	1	4	0	96	26	0	4	87
fixed	3	3	7	631173	3	1	1	1	0	1125	1	4	0	72	27	0	4	87
fixed	3	3	8	632838	2	3	3	1	0	1351	1	4	0	88	28	0	4	88
fixed	3	3	9	635144	3	2	2	2	0	1485	2	4	0	80	29	0	4	88
fixed	3	3	10	637115	1	4	4	1	0	938	1	4	0	96	30	0	4	88
fixed	3	3	11	638689	5	2	2	1	0	2326	1	4	0	80	31	0	4	89
fixed	3	3	12	641475	4	3	3	1	0	1577	1	4	0	88	32	0	4	89
fixed	3	4	1	644187	4	1	1	2	0	1006	2	4	0	72	33	0	4	89
fixed	3	4	2	645956	1	2	0	1	2	0	3	4	0	80	33	0	5	87
fixed	3	4	3	648971	6	4	4	1	0	1307	1	4	0	96	34	0	5	87
fixed	3	4	4	650949	2	1	1	1	0	1384	1	4	0	72	35	0	5	88
fixed	3	4	5	653147	5	3	0	0	2	0	3	4	0	88	35	0	6	85
fixed	3	4	6	656333	6	4	4	1	0	1099	1	4	0	96	36	0	6	86
fixed	3	4	7	658185	3	1	1	1	0	1085	1	4	0	72	37	0	6	86
fixed	3	4	8	660049	2	3	3	1	0	1533	1	4	0	88	38	0	6	86
fixed	3	4	9	662455	3	2	0	1	2	0	3	4	0	80	38	0	7	84
fixed	3	4	10	665650	1	4	4	1	0	1225	1	4	0	96	39	0	7	85
fixed	3	4	11	667597	5	2	0	1	2	0	3	4	0	80	39	0	8	83
fixed	3	4	12	671131	4	3	3	1	0	1881	1	4	0	88	40	0	8	83
fixed	3	5	1	674194	4	1	1	1	0	1303	1	4	0	72	41	0	8	84
fixed	3	5	2	676328	1	2	0	2	2	0	3	4	0	80	41	0	9	82
fixed	3	5	3	679526	6	4	4	2	0	1885	2	4	0	96	42	0	9	82
fixed	3	5	4	681850	2	1	1	1	0	1778	1	4	0	72	43	0	9	83
fixed	3	5	5	684061	5	3	3	1	0	2077	1	4	0	88	44	0	9	83
fixed	3	5	6	686815	6	4	0	0	2	0	3	4	0	96	44	0	10	81
fixed	3	5	7	690240	3	1	1	1	0	1279	1	4	0	72	45	0	10	82
fixed	3	5	8	691878	2	3	3	1	0	2242	1	4	0	88	46	0	10	82
fixed	3	5	9	694510	3	2	0	1	2	0	3	4	0	80	46	0	11	81
fixed	3	5	10	697320	1	4	4	1	0	1067	1	4	0	96	47	0	11	81
fixed	3	5	11	698992	5	2	2	1	0	2444	1	4	0	80	48	0	11	81
fixed	3	5	12	702022	4	3	0	0	2	0	3	4	0	88	48	0	12	80
fixed	3	6	1	705287	4	1	1	1	0	1322	1	4	0	72	49	0	12	80
fixed	3	6	2	707235	1	2	0	1	2	0	3	4	0	80	49	0	13	79
fixed	3	6	3	710265	6	4	4	1	0	1247	1	4	0	96	50	0	13	79
fixed	3	6	4	712011	2	1	1	1	0	1645	1	4	0	72	51	0	13	80
fixed	3	6	5	714089	5	3	3	1	0	1341	1	4	0	88	52	0	13	80
fixed	3	6	6	715928	6	4	4	2	0	2311	2	4	0	96	53	0	13	80
fixed	3	6	7	718982	3	1	1	1	0	1070	1	4	0	72	54	0	13	81
fixed	3	6	8	721071	2	3	3	1	0	2310	1	4	0	88	55	0	13	81
fixed	3	6	9	724062	3	2	2	2	0	1087	2	4	0	80	56	0	13	81
fixed	3	6	10	725995	1	4	4	1	0	1229	1	4	0	96	57	0	13	81
fixed	3	6	11	728075	5	2	0	1	2	0	3	4	0	80	57	0	14	80
fixed	3	6	12	730986	4	3	3	2	0	2081	2	4	0	88	58	0	14	81
fixed	3	7	1	733740	4	1	1	1	0	1468	1	4	0	72	59	0	14	81
fixed	3	7	2	735657	1	2	0	0	2	0	3	4	0	80	59	0	15	80
fixed	3	7	3	739122	6	4	4	1	0	1185	1	4	0	96	60	0	15	80
fixed	3	7	4	741272	2	1	1	1	0	958	1	4	0	72	61	0	15	80
fixed	3	7	5	742766	5	3	3	1	0	2182	1	4	0	88	62	0	15	81
fixed	3	7	6	745424	6	4	4	1	0	2270	1	4	0	96	63	0	15	81
fixed	3	7	7	748582	3	1	1	1	0	1000	1	4	0	72	64	0	15	81
fixed	3	7	8	749935	2	3	0	1	2	0	3	4	0	88	64	0	16	80
fixed	3	7	9	752821	3	2	0	1	2	0	3	4	0	80	64	0	17	79
fixed	3	7	10	756151	1	4	4	1	0	1015	1	4	0	96	65	0	17	79
fixed	3	7	11	758048	5	2	0	1	2	0	3	4	0	80	65	0	18	78
fixed	3	7	12	760893	4	3	3	1	0	1374	1	4	0	88	66	0	18	79
fixed	3	8	1	763380	4	1	1	2	0	1173	2	4	0	72	67	0	18	79
fixed	3	8	2	765041	1	2	0	0	2	0	3	4	0	80	67	0	19	78
fixed	3	8	3	767874	6	4	4	2	0	1431	2	4	0	96	68	0	19	78
fixed	3	8	4	769994	2	1	1	1	0	1149	1	4	0	72	69	0	19	78
fixed	3	8	5	771803	5	3	3	1	0	1936	1	4	0	88	70	0	19	79
fixed	3	8	6	774578	6	4	4	2	0	1491	2	4	0	96	71	0	19	79
fixed	3	8	7	776836	3	1	1	1	0	1067	1	4	0	72	72	0	19	79
fixed	3	8	8	778573	2	3	3	1	0	2178	1	4	0	88	73	0	19	79
fixed	3	8	9	781735	3	2	2	1	0	1020	1	4	0	80	74	0	19	80
fixed	3	8	10	783566	1	4	4	2	0	1310	2	4	0	96	75	0	19	80
fixed	3	8	11	785347	5	2	2	1	0	1611	1	4	0	80	76	0	19	80
fixed	3	8	12	787284	4	3	0	0	2	0	3	4	0	88	76	0	20	79
fixed	3	9	1	790947	4	1	1	1	0	1069	1	4	0	72	77	0	20	79
fixed	3	9	2	792765	1	2	0	0	2	0	3	4	0	80	77	0	21	79
fixed	3	9	3	796049	6	4	0	2	2	0	3	4	0	96	77	0	22	78
fixed	3	9	4	799510	2	1	0	2	2	0	3	4	0	72	77	0	23	77
fixed	3	9	5	802992	5	3	0	0	2	0	3	4	0	88	77	0	24	76
fixed	3	9	6	806212	6	4	4	1	0	879	1	4	0	96	78	0	24	76
fixed	3	9	7	807720	3	1	1	3	0	2119	2	4	0	72	79	0	24	77
fixed	3	9	8	810795	2	3	3	1	0	2173	1	4	0	88	80	0	24	77
fixed	3	9	9	813345	3	2	0	1	2	0	3	4	0	80	80	0	25	76
fixed	3	9	10	816439	1	4	4	1	0	1110	1	4	0	96	81	0	25	76
fixed	3	9	11	818157	5	2	0	1	2	0	3	4	0	80	81	0	26	76
fixed	3	9	12	821655	4	3	3	1	0	1409	1	4	0	88	82	0	26	76
fixed	3	10	1	824363	4	1	1	1	0	854	1	4	0	72	83	0	26	76
fixed	3	10	2	826141	1	2	2	1	0	1643	1	4	0	80	84	0	26	76
fixed	3	10	3	828504	6	4	4	1	0	1919	1	4	0	96	85	0	26	77
fixed	3	10	4	831289	2	1	0	0	2	0	3	4	0	72	85	0	27	76
fixed	3	10	5	834142	5	3	0	2	2	0	3	4	0	88	85	0	28	75
fixed	3	10	6	837005	6	4	4	1	0	1607	1	4	0	96	86	0	28	75
fixed	3	10	7	839519	3	1	1	1	0	940	1	4	0	72	87	0	28	76
fixed	3	10	8	840891	2	3	3	1	0	2418	1	4	0	88	88	0	28	76
fixed	3	10	9	843878	3	2	2	1	0	1803	1	4	0	80	89	0	28	76
fixed	3	10	10	846465	1	4	4	1	0	1518	1	4	0	96	90	0	28	76
fixed	3	10	11	848882	5	2	0	1	2	0	3	4	0	80	90	0	29	76
fixed	3	10	12	851980	4	3	3	1	0	1036	1	4	0	88	91	0	29	76
fixed	4	1	1	1026774	4	1	1	1	0	1185	1	4	0	104	1	0	0	100
fixed	4	1	2	1028321	1	2	2	1	0	1608	1	4	0	112	2	0	0	100
fixed	4	1	3	1030864	6	4	4	1	0	908	1	4	0	128	3	0	0	100
fixed	4	1	4	1032342	2	1	0	1	2	0	3	4	0	104	3	0	1	75
fixed	4	1	5	1035879	5	3	3	1	0	2271	1	4	0	120	4	0	1	80
fixed	4	1	6	1038563	6	4	4	1	0	1158	1	4	0	128	5	0	1	83
fixed	4	1	7	1040376	3	1	1	1	0	1449	1	4	0	104	6	0	1	86
fixed	4	1	8	1042548	2	3	3	1	0	2333	1	4	0	120	7	0	1	88
fixed	4	1	9	1045399	3	2	2	1	0	1108	1	4	0	112	8	0	1	89
fixed	4	1	10	1047113	1	4	4	1	0	988	1	4	0	128	9	0	1	90
fixed	4	1	11	1048402	5	2	0	1	2	0	3	4	0	112	9	0	2	82
fixed	4	1	12	1051882	4	3	3	1	0	1650	1	4	0	120	10	0	2	83
fixed	4	2	1	1054611	4	1	1	1	0	1038	1	4	0	104	11	0	2	85
fixed	4	2	2	1056148	1	2	2	2	0	2085	2	4	0	112	12	0	2	86
fixed	4	2	3	1059022	6	4	4	1	0	1083	1	4	0	128	13	0	2	87
fixed	4	2	4	1060558	2	1	1	1	0	914	1	4	0	104	14	0	2	88
fixed	4	2	5	1062104	5	3	3	1	0	1681	1	4	0	120	15	0	2	88
fixed	4	2	6	1064252	6	4	4	1	0	1373	1	4	0	128	16	0	2	89
fixed	4	2	7	1065975	3	1	1	1	0	1428	1	4	0	104	17	0	2	89
fixed	4	2	8	1067980	2	3	0	0	2	0	3	4	0	120	17	0	3	85
fixed	4	2	9	1070812	3	2	2	1	0	784	1	4	0	112	18	0	3	86
fixed	4	2	10	1071885	1	4	4	1	0	1106	1	4	0	128	19	0	3	86
fixed	4	2	11	1073984	5	2	0	1	2	0	3	4	0	112	19	0	4	83
fixed	4	2	12	1077091	4	3	3	1	0	1686	1	4	0	120	20	0	4	83
fixed	4	3	1	1079840	4	1	1	1	0	689	1	4	0	104	21	0	4	84
fixed	4	3	2	1081127	1	2	0	0	2	0	3	4	0	112	21	0	5	81
fixed	4	3	3	1084285	6	4	4	1	0	1093	1	4	0	128	22	0	5	81
fixed	4	3	4	1085905	2	1	1	1	0	1000	1	4	0	104	23	0	5	82
fixed	4	3	5	1087256	5	3	0	0	2	0	3	4	0	120	23	0	6	79
fixed	4	3	6	1090119	6	4	4	1	0	1030	1	4	0	128	24	0	6	80
fixed	4	3	7	1092063	3	1	1	1	0	1012	1	4	0	104	25	0	6	81
fixed	4	3	8	1093378	2	3	3	1	0	724	1	4	0	120	26	0	6	81
fixed	4	3	9	1094555	3	2	0	1	2	0	3	4	0	112	26	0	7	79
fixed	4	3	10	1097522	1	4	4	2	0	1156	2	4	0	128	27	0	7	79
fixed	4	3	11	1099364	5	2	0	1	2	0	3	4	0	112	27	0	8	77
fixed	4	3	12	1102202	4	3	3	1	0	1214	1	4	0	120	28	0	8	78
fixed	4	4	1	1104484	4	1	1	1	0	853	1	4	0	104	29	0	8	78
fixed	4	4	2	1106098	1	2	2	1	0	2169	1	4	0	112	30	0	8	79
fixed	4	4	3	1109248	6	4	4	1	0	1124	1	4	0	128	31	0	8	79
fixed	4	4	4	1110916	2	1	1	1	0	1205	1	4	0	104	32	0	8	80
fixed	4	4	5	1113017	5	3	0	0	2	0	3	4	0	120	32	0	9	78
fixed	4	4	6	1115818	6	4	0	1	2	0	3	4	0	128	32	0	10	76
fixed	4	4	7	1118793	3	1	1	1	0	2080	1	4	0	104	33	0	10	77
fixed	4	4	8	1121160	2	3	3	1	0	2139	1	4	0	120	34	0	10	77
fixed	4	4	9	1123807	3	2	2	1	0	907	1	4	0	112	35	0	10	78
fixed	4	4	10	1125039	1	4	4	1	0	1159	1	4	0	128	36	0	10	78
fixed	4	4	11	1126595	5	2	0	1	2	0	3	4	0	112	36	0	11	77
fixed	4	4	12	1129686	4	3	3	1	0	1482	1	4	0	120	37	0	11	77
fixed	4	5	1	1132151	4	1	1	1	0	953	1	4	0	104	38	0	11	78
fixed	4	5	2	1133426	1	2	0	1	2	0	3	4	0	112	38	0	12	76
fixed	4	5	3	1136749	6	4	4	1	0	1663	1	4	0	128	39	0	12	76
fixed	4	5	4	1138860	2	1	1	1	0	1022	1	4	0	104	40	0	12	77
fixed	4	5	5	1140679	5	3	0	0	2	0	3	4	0	120	40	0	13	75
fixed	4	5	6	1143722	6	4	4	1	0	1616	1	4	0	128	41	0	13	76
fixed	4	5	7	1145734	3	1	1	1	0	1442	1	4	0	104	42	0	13	76
fixed	4	5	8	1147570	2	3	3	1	0	2108	1	4	0	120	43	0	13	77
fixed	4	5	9	1150242	3	2	0	1	2	0	3	4	0	112	43	0	14	75
fixed	4	5	10	1153423	1	4	4	1	0	1437	1	4	0	128	44	0	14	76
fixed	4	5	11	1155661	5	2	0	1	2	0	3	4	0	112	44	0	15	75
fixed	4	5	12	1158856	4	3	3	1	0	1839	1	4	0	120	45	0	15	75
fixed	4	6	1	1161356	4	1	1	1	0	1661	1	4	0	104	46	0	15	75
fixed	4	6	2	1163952	1	2	0	1	2	0	3	4	0	112	46	0	16	74
fixed	4	6	3	1167206	6	4	4	1	0	2069	1	4	0	128	47	0	16	75
fixed	4	6	4	1170086	2	1	1	1	0	1011	1	4	0	104	48	0	16	75
fixed	4	6	5	1171507	5	3	3	1	0	1351	1	4	0	120	49	0	16	75
fixed	4	6	6	1173262	6	4	4	1	0	1477	1	4	0	128	50	0	16	76
fixed	4	6	7	1175125	3	1	1	1	0	1165	1	4	0	104	51	0	16	76
fixed	4	6	8	1177143	2	3	3	1	0	2240	1	4	0	120	52	0	16	76
fixed	4	6	9	1179892	3	2	2	1	0	804	1	4	0	112	53	0	16	77
fixed	4	6	10	1181594	1	4	4	1	0	1196	1	4	0	128	54	0	16	77
fixed	4	6	11	1183443	5	2	2	1	0	1757	1	4	0	112	55	0	16	77
fixed	4	6	12	1185546	4	3	3	1	0	1933	1	4	0	120	56	0	16	78
fixed	4	7	1	1188339	4	1	1	2	0	1046	2	4	0	104	57	0	16	78
fixed	4	7	2	1190290	1	2	0	2	2	0	3	4	0	112	57	0	17	77
fixed	4	7	3	1193527	6	4	4	1	0	1194	1	4	0	128	58	0	17	77
fixed	4	7	4	1195115	2	1	1	1	0	1079	1	4	0	104	59	0	17	78
fixed	4	7	5	1197138	5	3	0	0	2	0	3	4	0	120	59	0	18	77
fixed	4	7	6	1200318	6	4	4	2	0	1674	2	4	0	128	60	0	18	77
fixed	4	7	7	1202686	3	1	1	1	0	1070	1	4	0	104	61	0	18	77
fixed	4	7	8	1204134	2	3	0	0	2	0	3	4	0	120	61	0	19	76
fixed	4	7	9	1207229	3	2	2	1	0	2366	1	4	0	112	62	0	19	77
fixed	4	7	10	1210147	1	4	4	1	0	1058	1	4	0	128	63	0	19	77
fixed	4	7	11	1211959	5	2	2	1	0	2014	1	4	0	112	64	0	19	77
fixed	4	7	12	1214755	4	3	3	1	0	1711	1	4	0	120	65	0	19	77
fixed	4	8	1	1217628	4	1	1	1	0	941	1	4	0	104	66	0	19	78
fixed	4	8	2	1219171	1	2	0	2	2	0	3	4	0	112	66	0	20	77
fixed	4	8	3	1222355	6	4	4	1	0	1021	1	4	0	128	67	0	20	77
fixed	4	8	4	1224108	2	1	1	1	0	963	1	4	0	104	68	0	20	77
fixed	4	8	5	1225472	5	3	3	1	0	2129	1	4	0	120	69	0	20	78
fixed	4	8	6	1228049	6	4	0	0	2	0	3	4	0	128	69	0	21	77
fixed	4	8	7	1231435	3	1	1	1	0	1829	1	4	0	104	70	0	21	77
fixed	4	8	8	1233817	2	3	0	0	2	0	3	4	0	120	70	0	22	76
fixed	4	8	9	1236809	3	2	0	4	2	0	3	4	0	112	70	0	23	75
fixed	4	8	10	1239712	1	4	4	1	0	1246	1	4	0	128	71	0	23	76
fixed	4	8	11	1241751	5	2	0	1	2	0	3	4	0	112	71	0	24	75
fixed	4	8	12	1244830	4	3	3	1	0	1989	1	4	0	120	72	0	24	75
fixed	4	9	1	1248103	4	1	1	1	0	1778	1	4	0	104	73	0	24	75
fixed	4	9	2	1250548	1	2	0	2	2	0	3	4	0	112	73	0	25	74
fixed	4	9	3	1253646	6	4	4	1	0	1648	1	4	0	128	74	0	25	75
fixed	4	9	4	1256030	2	1	1	1	0	1771	1	4	0	104	75	0	25	75
fixed	4	9	5	1258443	5	3	3	1	0	1668	1	4	0	120	76	0	25	75
fixed	4	9	6	1261060	6	4	4	1	0	822	1	4	0	128	77	0	25	75
fixed	4	9	7	1262872	3	1	1	1	0	1057	1	4	0	104	78	0	25	76
fixed	4	9	8	1264881	2	3	3	1	0	2044	1	4	0	120	79	0	25	76
fixed	4	9	9	1267496	3	2	2	1	0	1501	1	4	0	112	80	0	25	76
fixed	4	9	10	1269742	1	4	4	1	0	1390	1	4	0	128	81	0	25	76
fixed	4	9	11	1271973	5	2	0	1	2	0	3	4	0	112	81	0	26	76
fixed	4	9	12	1275253	4	3	3	1	0	340	1	4	0	120	82	0	26	76
fixed	4	10	1	1276723	4	1	1	2	0	1038	2	4	0	104	83	0	26	76
fixed	4	10	2	1278493	1	2	0	1	2	0	3	4	0	112	83	0	27	75
fixed	4	10	3	1281817	6	4	4	2	0	854	2	4	0	128	84	0	27	76
fixed	4	10	4	1283390	2	1	1	1	0	892	1	4	0	104	85	0	27	76
fixed	4	10	5	1284682	5	3	3	1	0	1517	1	4	0	120	86	0	27	76
fixed	4	10	6	1286981	6	4	4	2	0	1420	2	4	0	128	87	0	27	76
fixed	4	10	7	1288980	3	1	1	1	0	1983	1	4	0	104	88	0	27	77
fixed	4	10	8	1291480	2	3	3	1	0	2037	1	4	0	120	89	0	27	77
fixed	4	10	9	1293865	3	2	2	1	0	1072	1	4	0	112	90	0	27	77
fixed	4	10	10	1295944	1	4	4	3	0	1256	2	4	0	128	91	0	27	77
fixed	4	10	11	1298138	5	2	0	1	2	0	3	4	0	112	91	0	28	76
fixed	4	10	12	1300937	4	3	3	1	0	405	1	4	0	120	92	0	28	77
fixed	5	1	1	1302601	4	1	1	1	0	934	1	4	0	136	1	0	0	100
fixed	5	1	2	1304211	1	2	0	1	2	0	3	4	0	144	1	0	1	50
fixed	5	1	3	1307074	6	4	4	2	0	1345	2	4	0	160	2	0	1	67
fixed	5	1	4	1308900	2	1	1	1	0	1227	1	4	0	136	3	0	1	75
fixed	5	1	5	1311135	5	3	3	1	0	45	1	4	0	152	4	0	1	80
fixed	5	1	6	1311689	6	4	4	1	0	1125	1	4	0	160	5	0	1	83
fixed	5	1	7	1313214	3	1	1	1	0	1189	1	4	0	136	6	0	1	86
fixed	5	1	8	1315201	2	3	3	1	0	2216	1	4	0	152	7	0	1	88
fixed	5	1	9	1318274	3	2	2	3	0	1542	2	4	0	144	8	0	1	89
fixed	5	1	10	1320696	1	4	4	3	0	1040	2	4	0	160	9	0	1	90
fixed	5	1	11	1322420	5	2	2	1	0	1935	1	4	0	144	10	0	1	91
fixed	5	1	12	1324829	4	3	3	2	0	2377	2	4	0	152	11	0	1	92
fixed	5	2	1	1328466	4	1	1	1	0	1022	1	4	0	136	12	0	1	92
fixed	5	2	2	1330181	1	2	0	0	2	0	3	4	0	144	12	0	2	86
fixed	5	2	3	1333660	6	4	4	3	0	986	2	4	0	160	13	0	2	87
fixed	5	2	4	1335026	2	1	1	1	0	1977	1	4	0	136	14	0	2	88
fixed	5	2	5	1338020	5	3	0	0	2	0	3	4	0	152	14	0	3	82
fixed	5	2	6	1341551	6	4	4	2	0	924	2	4	0	160	15	0	3	83
fixed	5	2	7	1343435	3	1	1	1	0	860	1	4	0	136	16	0	3	84
fixed	5	2	8	1344904	2	3	3	1	0	335	1	4	0	152	17	0	3	85
fixed	5	2	9	1345664	3	2	2	1	0	1438	1	4	0	144	18	0	3	86
fixed	5	2	10	1348130	1	4	4	2	0	1046	2	4	0	160	19	0	3	86
fixed	5	2	11	1349545	5	2	2	1	0	1242	1	4	0	144	20	0	3	87
fixed	5	2	12	1351256	4	3	3	1	0	1841	1	4	0	152	21	0	3	88
fixed	5	3	1	1354129	4	1	1	1	0	1055	1	4	0	136	22	0	3	88
fixed	5	3	2	1355957	1	2	0	2	2	0	3	4	0	144	22	0	4	85
fixed	5	3	3	1358979	6	4	4	2	0	1026	2	4	0	160	23	0	4	85
fixed	5	3	4	1360999	2	1	1	3	0	1005	2	4	0	136	24	0	4	86
fixed	5	3	5	1362398	5	3	3	1	0	1865	1	4	0	152	25	0	4	86
fixed	5	3	6	1364868	6	4	4	2	0	1241	2	4	0	160	26	0	4	87
fixed	5	3	7	1366459	3	1	1	1	0	1909	1	4	0	136	27	0	4	87
fixed	5	3	8	1368907	2	3	3	1	0	2326	1	4	0	152	28	0	4	88
fixed	5	3	9	1371579	3	2	2	2	0	1085	2	4	0	144	29	0	4	88
fixed	5	3	10	1372944	1	4	4	3	0	1547	2	4	0	160	30	0	4	88
fixed	5	3	11	1375127	5	2	0	0	2	0	3	4	0	144	30	0	5	86
fixed	5	3	12	1378573	4	3	3	1	0	1140	1	4	0	152	31	0	5	86
fixed	5	4	1	1380310	4	1	1	2	0	875	2	4	0	136	32	0	5	86
fixed	5	4	2	1382014	1	2	2	2	0	1578	2	4	0	144	33	0	5	87
fixed	5	4	3	1384235	6	4	4	1	0	1124	1	4	0	160	34	0	5	87
fixed	5	4	4	1385686	2	1	1	1	0	1823	1	4	0	136	35	0	5	88
fixed	5	4	5	1388468	5	3	0	0	2	0	3	4	0	152	35	0	6	85
fixed	5	4	6	1391941	6	4	4	1	0	902	1	4	0	160	36	0	6	86
fixed	5	4	7	1393366	3	1	1	1	0	1066	1	4	0	136	37	0	6	86
fixed	5	4	8	1395397	2	3	3	1	0	476	1	4	0	152	38	0	6	86
fixed	5	4	9	1396781	3	2	0	1	2	0	3	4	0	144	38	0	7	84
fixed	5	4	10	1400073	1	4	4	1	0	925	1	4	0	160	39	0	7	85
fixed	5	4	11	1401977	5	2	2	1	0	1421	1	4	0	144	40	0	7	85
fixed	5	4	12	1404430	4	3	3	1	0	1445	1	4	0	152	41	0	7	85
fixed	5	5	1	1407009	4	1	1	1	0	1008	1	4	0	136	42	0	7	86
fixed	5	5	2	1408847	1	2	2	1	0	26	1	4	0	144	43	0	7	86
fixed	5	5	3	1409749	6	4	4	1	0	996	1	4	0	160	44	0	7	86
fixed	5	5	4	1411300	2	1	1	1	0	1747	1	4	0	136	45	0	7	87
fixed	5	5	5	1413691	5	3	3	1	0	1805	1	4	0	152	46	0	7	87
fixed	5	5	6	1416187	6	4	4	1	0	1027	1	4	0	160	47	0	7	87
fixed	5	5	7	1417971	3	1	1	3	0	1487	2	4	0	136	48	0	7	87
fixed	5	5	8	1420070	2	3	0	0	2	0	3	4	0	152	48	0	8	86
fixed	5	5	9	1423155	3	2	2	3	0	1196	2	4	0	144	49	0	8	86
fixed	5	5	10	1424986	1	4	4	2	0	974	2	4	0	160	50	0	8	86
fixed	5	5	11	1426454	5	2	0	0	2	0	3	4	0	144	50	0	9	85
fixed	5	5	12	1429967	4	3	3	2	0	1811	2	4	0	152	51	0	9	85
fixed	5	6	1	1432371	4	1	1	1	0	837	1	4	0	136	52	0	9	85
fixed	5	6	2	1433727	1	2	2	2	0	1908	2	4	0	144	53	0	9	85
fixed	5	6	3	1436178	6	4	4	1	0	1548	1	4	0	160	54	0	9	86
fixed	5	6	4	1438150	2	1	1	3	0	1761	2	4	0	136	55	0	9	86
fixed	5	6	5	1440262	5	3	3	1	0	1439	1	4	0	152	56	0	9	86
fixed	5	6	6	1442648	6	4	4	1	0	1530	1	4	0	160	57	0	9	86
fixed	5	6	7	1445150	3	1	0	0	2	0	3	4	0	136	57	0	10	85
fixed	5	6	8	1447975	2	3	3	1	0	1457	1	4	0	152	58	0	10	85
fixed	5	6	9	1450201	3	2	2	1	0	1490	1	4	0	144	59	0	10	86
fixed	5	6	10	1452519	1	4	0	0	2	0	3	4	0	160	59	0	11	84
fixed	5	6	11	1455336	5	2	2	1	0	153	1	4	0	144	60	0	11	85
fixed	5	6	12	1456108	4	3	3	1	0	2353	1	4	0	152	61	0	11	85
fixed	5	7	1	1459722	4	1	1	1	0	911	1	4	0	136	62	0	11	85
fixed	5	7	2	1461028	1	2	0	2	2	0	3	4	0	144	62	0	12	84
fixed	5	7	3	1464349	6	4	4	1	0	1923	1	4	0	160	63	0	12	84
fixed	5	7	4	1466863	2	1	1	2	0	969	2	4	0	136	64	0	12	84
fixed	5	7	5	1468798	5	3	3	1	0	1839	1	4	0	152	65	0	12	84
fixed	5	7	6	1471636	6	4	4	2	0	1166	2	4	0	160	66	0	12	85
fixed	5	7	7	1473473	3	1	1	1	0	1153	1	4	0	136	67	0	12	85
fixed	5	7	8	1475238	2	3	0	0	2	0	3	4	0	152	67	0	13	84
fixed	5	7	9	1478435	3	2	2	1	0	1118	1	4	0	144	68	0	13	84
fixed	5	7	10	1480503	1	4	4	1	0	1399	1	4	0	160	69	0	13	84
fixed	5	7	11	1482642	5	2	2	2	0	2012	2	4	0	144	70	0	13	84
fixed	5	7	12	1485210	4	3	3	1	0	2232	1	4	0	152	71	0	13	85
fixed	5	8	1	1488325	4	1	1	2	0	1011	2	4	0	136	72	0	13	85
fixed	5	8	2	1489954	1	2	2	2	0	471	2	4	0	144	73	0	13	85
fixed	5	8	3	1491285	6	4	4	2	0	1310	2	4	0	160	74	0	13	85
fixed	5	8	4	1493045	2	1	1	1	0	1284	1	4	0	136	75	0	13	85
fixed	5	8	5	1494658	5	3	3	1	0	1831	1	4	0	152	76	0	13	85
fixed	5	8	6	1497243	6	4	4	2	0	1234	2	4	0	160	77	0	13	86
fixed	5	8	7	1498855	3	1	0	0	2	0	3	4	0	136	77	0	14	85
fixed	5	8	8	1501897	2	3	3	3	0	2381	2	4	0	152	78	0	14	85
fixed	5	8	9	1504918	3	2	0	3	2	0	3	4	0	144	78	0	15	84
fixed	5	8	10	1508060	1	4	4	1	0	1064	1	4	0	160	79	0	15	84
fixed	5	8	11	1509697	5	2	0	1	2	0	3	4	0	144	79	0	16	83
fixed	5	8	12	1512733	4	3	3	1	0	282	1	4	0	152	80	0	16	83
fixed	5	9	1	1513571	4	1	1	1	0	1094	1	4	0	136	81	0	16	84
fixed	5	9	2	1515103	1	2	0	2	2	0	3	4	0	144	81	0	17	83
fixed	5	9	3	1518385	6	4	4	3	0	1034	2	4	0	160	82	0	17	83
fixed	5	9	4	1520039	2	1	1	1	0	1004	1	4	0	136	83	0	17	83
fixed	5	9	5	1521923	5	3	0	0	2	0	3	4	0	152	83	0	18	82
fixed	5	9	6	1525349	6	4	4	2	0	1691	2	4	0	160	84	0	18	82
fixed	5	9	7	1528000	3	1	1	1	0	1156	1	4	0	136	85	0	18	83
fixed	5	9	8	1529483	2	3	3	1	0	1733	1	4	0	152	86	0	18	83
fixed	5	9	9	1531716	3	2	2	1	0	526	1	4	0	144	87	0	18	83
fixed	5	9	10	1532607	1	4	4	1	0	1416	1	4	0	160	88	0	18	83
fixed	5	9	11	1534968	5	2	0	1	2	0	3	4	0	144	88	0	19	82
fixed	5	9	12	1538471	4	3	3	1	0	1872	1	4	0	152	89	0	19	82
fixed	5	10	1	1541122	4	1	1	2	0	1023	2	4	0	136	90	0	19	83
fixed	5	10	2	1542915	1	2	0	1	2	0	3	4	0	144	90	0	20	82
fixed	5	10	3	1546169	6	4	4	1	0	1082	1	4	0	160	91	0	20	82
fixed	5	10	4	1547806	2	1	1	1	0	2172	1	4	0	136	92	0	20	82
fixed	5	10	5	1550913	5	3	3	1	0	377	1	4	0	152	93	0	20	82
fixed	5	10	6	1552139	6	4	0	1	2	0	3	4	0	160	93	0	21	82
fixed	5	10	7	1555466	3	1	0	0	2	0	3	4	0	136	93	0	22	81
fixed	5	10	8	1558307	2	3	3	1	0	2480	1	4	0	152	94	0	22	81
fixed	5	10	9	1561121	3	2	0	1	2	0	3	4	0	144	94	0	23	80
fixed	5	10	10	1564253	1	4	4	1	0	1228	1	4	0	160	95	0	23	81
fixed	5	10	11	1566084	5	2	0	1	2	0	3	4	0	144	95	0	24	80
fixed	5	10	12	1569578	4	3	3	1	0	666	1	4	0	152	96	0	24	80
random	6	1	1	1691371	6	1	1	1	0	1379	1	4	0	168	1	0	0	100
random	6	1	2	1693137	4	4	4	1	0	865	1	4	0	192	2	0	0	100
random	6	1	3	1694542	2	2	2	1	0	1150	1	4	0	176	3	0	0	100
random	6	1	4	1695985	3	3	3	1	0	1968	1	4	0	184	4	0	0	100
random	6	1	5	1698596	5	2	2	1	0	1098	1	4	0	176	5	0	0	100
random	6	1	6	1700077	1	4	4	1	0	1011	1	4	0	192	6	0	0	100
random	6	1	7	1702077	6	1	1	1	0	942	1	4	0	168	7	0	0	100
random	6	1	8	1703915	2	3	3	1	0	1040	1	4	0	184	8	0	0	100
random	6	1	9	1705980	4	2	2	1	0	745	1	4	0	176	9	0	0	100
random	6	1	10	1707579	1	1	1	1	0	933	1	4	0	168	10	0	0	100
random	6	1	11	1709231	5	4	4	1	0	848	1	4	0	192	11	0	0	100
random	6	1	12	1710735	3	3	3	1	0	1584	1	4	0	184	12	0	0	100
random	6	1	13	1713127	5	2	2	1	0	610	1	4	0	176	13	0	0	100
random	6	1	14	1714312	1	4	4	1	0	888	1	4	0	192	14	0	0	100
random	6	1	15	1715573	3	1	1	1	0	1011	1	4	0	168	15	0	0	100
random	6	1	16	1717514	4	3	3	1	0	1976	1	4	0	184	16	0	0	100
random	6	1	17	1720023	6	4	4	1	0	926	1	4	0	192	17	0	0	100
random	6	1	18	1721302	2	1	1	1	0	840	1	4	0	168	18	0	0	100
random	6	1	19	1722482	5	3	3	1	0	1390	1	4	0	184	19	0	0	100
random	6	1	20	1724695	2	2	2	1	0	1128	1	4	0	176	20	0	0	100
random	6	1	21	1726378	3	3	3	1	0	2105	1	4	0	184	21	0	0	100
random	6	1	22	1729158	6	1	1	1	0	1123	1	4	0	168	22	0	0	100
random	6	1	23	1730842	4	2	0	2	2	0	3	4	0	176	22	0	1	96
random	6	1	24	1734065	1	4	4	1	0	859	1	4	0	192	23	0	1	96
random	6	1	25	1735749	4	3	3	1	0	1780	1	4	0	184	24	0	1	96
random	6	1	26	1738570	2	1	1	1	0	812	1	4	0	168	25	0	1	96
random	6	1	27	1740154	5	2	2	2	0	1474	2	4	0	176	26	0	1	96
random	6	1	28	1742207	6	4	4	1	0	1355	1	4	0	192	27	0	1	96
random	6	1	29	1744541	1	3	3	1	0	2455	1	4	0	184	28	0	1	97
random	6	1	30	1747765	5	2	2	3	0	1007	2	4	0	176	29	0	1	97
random	6	1	31	1749649	2	1	1	1	0	1111	1	4	0	168	30	0	1	97
random	6	1	32	1751059	3	3	3	1	0	2107	1	4	0	184	31	0	1	97
random	6	1	33	1754065	6	4	4	1	0	820	1	4	0	192	32	0	1	97
random	6	1	34	1755823	4	2	2	1	0	1098	1	4	0	176	33	0	1	97
random	6	1	35	1757766	3	4	4	1	0	1104	1	4	0	192	34	0	1	97
random	6	1	36	1759583	1	1	1	1	0	1091	1	4	0	168	35	0	1	97
random	6	1	37	1761479	3	4	4	1	0	1290	1	4	0	192	36	0	1	97
random	6	1	38	1763759	5	3	3	1	0	1410	1	4	0	184	37	0	1	97
random	6	1	39	1765667	6	1	1	1	0	1081	1	4	0	168	38	0	1	97
random	6	1	40	1767534	1	2	0	1	2	0	3	4	0	176	38	0	2	95
random	6	1	41	1770890	2	3	3	1	0	107	1	4	0	184	39	0	2	95
random	6	1	42	1771994	4	4	4	1	0	1797	1	4	0	192	40	0	2	95
random	6	1	43	1774319	1	2	0	1	2	0	3	4	0	176	40	0	3	93
random	6	1	44	1777596	6	3	3	1	0	1768	1	4	0	184	41	0	3	93
random	6	1	45	1780333	3	1	1	2	0	956	2	4	0	168	42	0	3	93
random	6	1	46	1782043	4	4	4	1	0	987	1	4	0	192	43	0	3	93
random	6	1	47	1783492	2	2	0	1	2	0	3	4	0	176	43	0	4	91
random	6	1	48	1786815	5	1	1	1	0	921	1	4	0	168	44	0	4	92
random	6	1	49	1788746	2	3	3	1	0	1623	1	4	0	184	45	0	4	92
random	6	1	50	1790777	3	1	1	1	0	1617	1	4	0	168	46	0	4	92
random	6	1	51	1792846	1	4	4	1	0	1362	1	4	0	192	47	0	4	92
random	6	1	52	1794634	5	3	3	1	0	2038	1	4	0	184	48	0	4	92
random	6	1	53	1797131	3	2	2	1	0	860	1	4	0	176	49	0	4	92
random	6	1	54	1798397	6	4	4	2	0	1975	2	4	0	192	50	0	4	93
random	6	1	55	1800885	4	2	2	1	0	1397	1	4	0	176	51	0	4	93
random	6	1	56	1803043	1	1	1	1	0	1002	1	4	0	168	52	0	4	93
random	6	1	57	1804776	5	4	4	1	0	2336	1	4	0	192	53	0	4	93
random	6	1	58	1807446	2	1	1	1	0	1279	1	4	0	168	54	0	4	93
random	6	1	59	1809561	6	2	0	2	2	0	3	4	0	176	54	0	5	92
random	6	1	60	1813065	4	3	3	1	0	2057	1	4	0	184	55	0	5	92
random	6	1	61	1815912	1	2	2	1	0	1800	1	4	0	176	56	0	5	92
random	6	1	62	1818414	6	4	4	1	0	1551	1	4	0	192	57	0	5	92
random	6	1	63	1820931	4	1	1	1	0	1108	1	4	0	168	58	0	5	92
random	6	1	64	1822671	2	2	0	1	2	0	3	4	0	176	58	0	6	91
random	6	1	65	1825808	4	3	3	1	0	93	1	4	0	184	59	0	6	91
random	6	1	66	1826657	3	1	0	0	2	0	3	4	0	168	59	0	7	89
random	6	1	67	1829976	1	3	3	2	0	2197	2	4	0	184	60	0	7	90
random	6	1	68	1832996	5	4	4	1	0	1301	1	4	0	192	61	0	7	90
random	6	1	69	1834939	2	2	0	1	2	0	3	4	0	176	61	0	8	88
random	6	1	70	1838424	3	1	1	1	0	943	1	4	0	168	62	0	8	89
random	6	1	71	1840045	5	4	4	1	0	1042	1	4	0	192	63	0	8	89
random	6	1	72	1841730	6	3	3	1	0	1835	1	4	0	184	64	0	8	89
random	6	1	73	1844800	2	1	1	1	0	1417	1	4	0	168	65	0	8	89
random	6	1	74	1846615	5	3	0	0	2	0	3	4	0	184	65	0	9	88
random	6	1	75	1849904	1	4	4	2	0	1065	2	4	0	192	66	0	9	88
random	6	1	76	1851800	6	2	0	1	2	0	3	4	0	176	66	0	10	87
random	6	1	77	1854799	2	1	1	1	0	2474	1	4	0	168	67	0	10	87
random	6	1	78	1857812	4	4	4	1	0	1178	1	4	0	192	68	0	10	87
random	6	1	79	1859953	3	2	0	2	2	0	3	4	0	176	68	0	11	86
random	6	1	80	1863005	4	3	3	1	0	270	1	4	0	184	69	0	11	86
random	6	1	81	1863719	1	4	0	0	2	0	3	4	0	192	69	0	12	85
random	6	1	82	1866824	5	1	1	3	0	2348	2	4	0	168	70	0	12	85
random	6	1	83	1870116	3	2	0	0	2	0	3	4	0	176	70	0	13	84
random	6	1	84	1873489	6	3	3	1	0	1450	1	4	0	184	71	0	13	85
random	6	1	85	1876160	3	2	2	2	0	2272	2	4	0	176	72	0	13	85
random	6	1	86	1879325	1	3	3	1	0	1603	1	4	0	184	73	0	13	85
random	6	1	87	1881374	4	4	4	1	0	1020	1	4	0	192	74	0	13	85
random	6	1	88	1882751	2	1	1	1	0	1434	1	4	0	168	75	0	13	85
random	6	1	89	1884808	6	4	4	1	0	875	1	4	0	192	76	0	13	85
random	6	1	90	1886306	3	3	3	1	0	1803	1	4	0	184	77	0	13	86
random	6	1	91	1888443	5	4	4	1	0	1064	1	4	0	192	78	0	13	86
random	6	1	92	1890059	1	2	0	1	2	0	3	4	0	176	78	0	14	85
random	6	1	93	1892969	5	1	1	1	0	929	1	4	0	168	79	0	14	85
random	6	1	94	1894189	4	3	3	1	0	1909	1	4	0	184	80	0	14	85
random	6	1	95	1896457	6	1	1	1	0	941	1	4	0	168	81	0	14	85
random	6	1	96	1897895	2	2	2	1	0	1848	1	4	0	176	82	0	14	85
random	6	1	97	1900838	4	3	3	1	0	1675	1	4	0	184	83	0	14	86
random	6	1	98	1903169	3	2	2	1	0	1657	1	4	0	176	84	0	14	86
random	6	1	99	1905699	6	3	3	1	0	1861	1	4	0	184	85	0	14	86
random	6	1	100	1908009	1	4	4	2	0	1180	2	4	0	192	86	0	14	86
random	6	1	101	1910201	4	1	1	1	0	2279	1	4	0	168	87	0	14	86
random	6	1	102	1913517	5	2	0	1	2	0	3	4	0	176	87	0	15	85
random	6	1	103	1916955	2	4	4	1	0	1793	1	4	0	192	88	0	15	85
random	6	1	104	1919212	3	1	1	1	0	1170	1	4	0	168	89	0	15	86
random	6	1	105	1921324	1	3	3	1	0	2496	1	4	0	184	90	0	15	86
random	6	1	106	1924177	2	2	2	2	0	1055	2	4	0	176	91	0	15	86
random	6	1	107	1925861	5	4	4	3	0	1432	2	4	0	192	92	0	15	86
random	6	1	108	1927728	6	1	1	1	0	1153	1	4	0	168	93	0	15	86
random	6	1	109	1929692	5	4	4	1	0	2381	1	4	0	192	94	0	15	86
random	6	1	110	1932514	6	3	3	1	0	1446	1	4	0	184	95	0	15	86
random	6	1	111	1934304	2	2	2	1	0	1802	1	4	0	176	96	0	15	86
random	6	1	112	1936404	3	1	1	2	0	2489	2	4	0	168	97	0	15	87
random	6	1	113	1939845	1	2	0	1	2	0	3	4	0	176	97	0	16	86
random	6	1	114	1943267	2	3	3	1	0	807	1	4	0	184	98	0	16	86
random	6	1	115	1944917	3	1	1	2	0	1208	2	4	0	168	99	0	16	86
random	6	1	116	1946784	4	4	4	1	0	809	1	4	0	192	100	0	16	86
random	6	1	117	1948427	6	1	1	1	0	1036	1	4	0	168	101	0	16	86
random	6	1	118	1950334	5	3	3	1	0	1995	1	4	0	184	102	0	16	86
random	6	1	119	1952828	1	4	4	1	0	1866	1	4	0	192	103	0	16	87
random	6	1	120	1955352	4	2	0	1	2	0	3	4	0	176	103	0	17	86
fixed	7	1	1	1958777	4	1	1	1	0	925	1	4	0	200	1	0	0	100
fixed	7	1	2	1960740	1	2	0	2	2	0	3	4	0	208	1	0	1	50
fixed	7	1	3	1963783	6	4	4	3	0	1442	2	4	0	224	2	0	1	67
fixed	7	1	4	1965950	2	1	1	1	0	1022	1	4	0	200	3	0	1	75
fixed	7	1	5	1967741	5	3	3	1	0	1882	1	4	0	216	4	0	1	80
fixed	7	1	6	1970652	6	4	4	1	0	1031	1	4	0	224	5	0	1	83
fixed	7	1	7	1972667	3	1	1	1	0	1513	1	4	0	200	6	0	1	86
fixed	7	1	8	1974845	2	3	0	0	2	0	3	4	0	216	6	0	2	75
fixed	7	1	9	1977691	3	2	2	1	0	1980	1	4	0	208	7	0	2	78
fixed	7	1	10	1980382	1	4	4	1	0	1002	1	4	0	224	8	0	2	80
fixed	7	1	11	1981977	5	2	2	1	0	1215	1	4	0	208	9	0	2	82
fixed	7	1	12	1983847	4	3	3	1	0	1672	1	4	0	216	10	0	2	83
fixed	7	2	1	1986648	4	1	1	1	0	1073	1	4	0	200	1	0	0	8
fixed	7	2	2	1988316	1	2	2	3	0	1442	2	4	0	208	2	0	0	14
fixed	7	2	3	1990624	6	4	4	2	0	2136	2	4	0	224	3	0	0	20
fixed	7	2	4	1993325	2	1	1	1	0	1166	1	4	0	200	4	0	0	25
fixed	7	2	5	1994897	5	3	3	1	0	1468	1	4	0	216	5	0	0	29
fixed	7	2	6	1996777	6	4	4	1	0	1316	1	4	0	224	6	0	0	33
fixed	7	2	7	1998965	3	1	1	1	0	1111	1	4	0	200	7	0	0	37
fixed	7	2	8	2000413	2	3	0	2	2	0	3	4	0	216	7	0	1	35
fixed	7	2	9	2003947	3	2	2	1	0	852	1	4	0	208	8	0	1	38
fixed	7	2	10	2005261	1	4	4	1	0	1236	1	4	0	224	9	0	1	41
fixed	7	2	11	2007149	5	2	0	2	2	0	3	4	0	208	9	0	2	39
fixed	7	2	12	2010367	4	3	0	0	2	0	3	4	0	216	9	0	3	38
fixed	7	3	1	2013999	4	1	1	1	0	922	1	4	0	200	1	0	0	4
fixed	7	3	2	2015582	1	2	2	1	0	1880	1	4	0	208	2	0	0	8
fixed	7	3	3	2018251	6	4	4	1	0	1007	1	4	0	224	3	0	0	11
fixed	7	3	4	2020134	2	1	1	1	0	1007	1	4	0	200	4	0	0	14
fixed	7	3	5	2022119	5	3	3	1	0	1018	1	4	0	216	5	0	0	17
fixed	7	3	6	2023673	6	4	4	1	0	1169	1	4	0	224	6	0	0	20
fixed	7	3	7	2025817	3	1	1	2	0	1086	2	4	0	200	7	0	0	23
fixed	7	3	8	2027532	2	3	3	1	0	1957	1	4	0	216	8	0	0	25
fixed	7	3	9	2029895	3	2	2	1	0	1161	1	4	0	208	9	0	0	27
fixed	7	3	10	2031664	1	4	4	3	0	1166	2	4	0	224	10	0	0	29
fixed	7	3	11	2033542	5	2	0	0	2	0	3	4	0	208	10	0	1	29
fixed	7	3	12	2036874	4	3	3	1	0	1202	1	4	0	216	11	0	1	31
fixed	7	4	1	2039311	4	1	1	2	0	794	2	4	0	200	1	0	0	3
fixed	7	4	2	2041070	1	2	2	2	0	1016	2	4	0	208	2	0	0	5
fixed	7	4	3	2042487	6	4	4	1	0	1252	1	4	0	224	3	0	0	8
fixed	7	4	4	2044101	2	1	1	1	0	1040	1	4	0	200	4	0	0	10
fixed	7	4	5	2045990	5	3	3	1	0	1040	1	4	0	216	5	0	0	12
fixed	7	4	6	2047565	6	4	4	1	0	1109	1	4	0	224	6	0	0	14
fixed	7	4	7	2049710	3	1	0	0	2	0	3	4	0	200	6	0	1	14
fixed	7	4	8	2053227	2	3	3	1	0	693	1	4	0	216	7	0	1	16
fixed	7	4	9	2054882	3	2	2	2	0	1631	2	4	0	208	8	0	1	18
fixed	7	4	10	2057512	1	4	4	1	0	1192	1	4	0	224	9	0	1	20
fixed	7	4	11	2059322	5	2	2	1	0	1539	1	4	0	208	10	0	1	21
fixed	7	4	12	2061842	4	3	3	1	0	1704	1	4	0	216	11	0	1	23
fixed	7	5	1	2064155	4	1	1	2	0	1110	2	4	0	200	1	0	0	2
fixed	7	5	2	2066199	1	2	0	1	2	0	3	4	0	208	1	0	1	2
fixed	7	5	3	2069588	6	4	4	1	0	1376	1	4	0	224	2	0	1	4
fixed	7	5	4	2071847	2	1	1	1	0	2096	1	4	0	200	3	0	1	6
fixed	7	5	5	2074315	5	3	3	2	0	1832	2	4	0	216	4	0	1	8
fixed	7	5	6	2076726	6	4	4	1	0	1322	1	4	0	224	5	0	1	9
fixed	7	5	7	2078647	3	1	0	1	2	0	3	4	0	200	5	0	2	9
fixed	7	5	8	2081782	2	3	0	1	2	0	3	4	0	216	5	0	3	9
fixed	7	5	9	2085232	3	2	2	1	0	266	1	4	0	208	6	0	3	11
fixed	7	5	10	2085967	1	4	4	2	0	1410	2	4	0	224	7	0	3	12
fixed	7	5	11	2087741	5	2	2	1	0	1575	1	4	0	208	8	0	3	14
fixed	7	5	12	2089802	4	3	3	1	0	1624	1	4	0	216	9	0	3	15
fixed	7	6	1	2092257	4	1	1	1	0	976	1	4	0	200	1	0	0	2
fixed	7	6	2	2093734	1	2	2	1	0	1241	1	4	0	208	2	0	0	3
fixed	7	6	3	2095494	6	4	4	1	0	1143	1	4	0	224	3	0	0	5
fixed	7	6	4	2097361	2	1	1	3	0	1208	2	4	0	200	4	0	0	6
fixed	7	6	5	2099040	5	3	0	0	2	0	3	4	0	216	4	0	1	6
fixed	7	6	6	2101931	6	4	4	3	0	1358	2	4	0	224	5	0	1	8
fixed	7	6	7	2103962	3	1	1	1	0	1392	1	4	0	200	6	0	1	9
fixed	7	6	8	2105810	2	3	0	0	2	0	3	4	0	216	6	0	2	9
fixed	7	6	9	2109178	3	2	2	1	0	1044	1	4	0	208	7	0	2	10
fixed	7	6	10	2110825	1	4	4	1	0	989	1	4	0	224	8	0	2	11
fixed	7	6	11	2112109	5	2	0	2	2	0	3	4	0	208	8	0	3	11
fixed	7	6	12	2115530	4	3	3	1	0	1910	1	4	0	216	9	0	3	13
fixed	7	7	1	2118104	4	1	1	2	0	1465	2	4	0	200	1	0	0	1
fixed	7	7	2	2120186	1	2	0	2	2	0	3	4	0	208	1	0	1	1
fixed	7	7	3	2123342	6	4	4	1	0	1507	1	4	0	224	2	0	1	3
fixed	7	7	4	2125645	2	1	1	2	0	1434	2	4	0	200	3	0	1	4
fixed	7	7	5	2127626	5	3	3	1	0	414	1	4	0	216	4	0	1	5
fixed	7	7	6	2128808	6	4	0	2	2	0	3	4	0	224	4	0	2	5
fixed	7	7	7	2132112	3	1	1	1	0	936	1	4	0	200	5	0	2	6
fixed	7	7	8	2133483	2	3	3	1	0	1790	1	4	0	216	6	0	2	8
fixed	7	7	9	2135722	3	2	2	2	0	1111	2	4	0	208	7	0	2	9
fixed	7	7	10	2137346	1	4	4	1	0	866	1	4	0	224	8	0	2	10
fixed	7	7	11	2138667	5	2	0	0	2	0	3	4	0	208	8	0	3	10
fixed	7	7	12	2141909	4	3	3	1	0	1785	1	4	0	216	9	0	3	11
fixed	7	8	1	2144352	4	1	1	1	0	1185	1	4	0	200	1	0	0	1
fixed	7	8	2	2146139	1	2	2	1	0	1365	1	4	0	208	2	0	0	2
fixed	7	8	3	2148024	6	4	4	1	0	2485	1	4	0	224	3	0	0	3
fixed	7	8	4	2151309	2	1	1	2	0	1291	2	4	0	200	4	0	0	5
fixed	7	8	5	2153584	5	3	0	0	2	0	3	4	0	216	4	0	1	4
fixed	7	8	6	2156613	6	4	4	1	0	1194	1	4	0	224	5	0	1	6
fixed	7	8	7	2158477	3	1	1	1	0	1027	1	4	0	200	6	0	1	7
fixed	7	8	8	2159892	2	3	3	1	0	1087	1	4	0	216	7	0	1	8
fixed	7	8	9	2161840	3	2	2	1	0	1077	1	4	0	208	8	0	1	9
fixed	7	8	10	2163574	1	4	4	1	0	1411	1	4	0	224	9	0	1	10
fixed	7	8	11	2165540	5	2	0	0	2	0	3	4	0	208	9	0	2	9
fixed	7	8	12	2168712	4	3	0	0	2	0	3	4	0	216	9	0	3	9
fixed	7	9	1	2172220	4	1	0	0	2	0	3	4	0	200	0	0	1	0
fixed	7	9	2	2175142	1	2	0	0	2	0	3	4	0	208	0	0	2	0
fixed	7	9	3	2178359	6	4	0	0	2	0	3	4	0	224	0	0	3	0
fixed	7	9	4	2181683	2	1	0	0	2	0	3	4	0	200	0	0	4	0
fixed	7	9	5	2184484	5	3	0	2	2	0	3	4	0	216	0	0	5	0
fixed	7	9	6	2187658	6	4	4	2	0	911	2	4	0	224	1	0	5	1
fixed	7	9	7	2188962	3	1	1	1	0	880	1	4	0	200	2	0	5	2
fixed	7	9	8	2190252	2	3	3	1	0	1393	1	4	0	216	3	0	5	3
fixed	7	9	9	2191950	3	2	2	1	0	913	1	4	0	208	4	0	5	4
fixed	7	9	10	2193896	1	4	4	1	0	959	1	4	0	224	5	0	5	5
fixed	7	9	11	2195866	5	2	2	1	0	995	1	4	0	208	6	0	5	6
fixed	7	9	12	2197381	4	3	3	1	0	1675	1	4	0	216	7	0	5	6
fixed	7	10	1	2200039	4	1	1	1	0	843	1	4	0	200	1	0	0	1
fixed	7	10	2	2201730	1	2	0	1	2	0	3	4	0	208	1	0	1	1
fixed	7	10	3	2204797	6	4	4	1	0	1281	1	4	0	224	2	0	1	2
fixed	7	10	4	2206722	2	1	1	1	0	887	1	4	0	200	3	0	1	3
fixed	7	10	5	2208299	5	3	0	1	2	0	3	4	0	216	3	0	2	3
fixed	7	10	6	2211549	6	4	4	1	0	1131	1	4	0	224	4	0	2	4
fixed	7	10	7	2213434	3	1	1	1	0	1108	1	4	0	200	5	0	2	4
fixed	7	10	8	2215176	2	3	0	1	2	0	3	4	0	216	5	0	3	4
fixed	7	10	9	2218192	3	2	0	2	2	0	3	4	0	208	5	0	4	4
fixed	7	10	10	2221431	1	4	4	1	0	1273	1	4	0	224	6	0	4	5
fixed	7	10	11	2223371	5	2	2	2	0	1911	2	4	0	208	7	0	4	6
fixed	7	10	12	2226229	4	3	3	1	0	1366	1	4	0	216	8	0	4	7
