type	block	sequ.	trial	time	Pos.	Color	Button	NumRsp	Resp_1	RT_1	R_Code	Resp_2	RT_2	Trigg.	n_hit	n_inc	n_miss	score_%

random	1	1	1	1774	6	1	1	1	0	1960	1	4	0	8	1	0	0	100
random	1	1	2	4084	4	4	4	1	0	1078	1	4	0	32	2	0	0	100
random	1	1	3	5863	2	2	2	1	0	1299	1	4	0	16	3	0	0	100
random	1	1	4	7529	3	3	3	1	0	1332	1	4	0	24	4	0	0	100
random	1	1	5	9581	5	2	2	1	0	1141	1	4	0	16	5	0	0	100
random	1	1	6	11343	1	4	4	1	0	811	1	4	0	32	6	0	0	100
random	1	1	7	13104	6	1	1	1	0	832	1	4	0	8	7	0	0	100
random	1	1	8	14256	2	3	3	1	0	1583	1	4	0	24	8	0	0	100
random	1	1	9	16795	4	2	2	1	0	1035	1	4	0	16	9	0	0	100
random	1	1	10	18240	1	1	1	1	0	1015	1	4	0	8	10	0	0	100
random	1	1	11	19815	5	4	4	1	0	756	1	4	0	32	11	0	0	100
random	1	1	12	21308	3	3	3	1	0	1788	1	4	0	24	12	0	0	100
random	1	1	13	24231	5	2	2	1	0	1345	1	4	0	16	13	0	0	100
random	1	1	14	25951	1	4	4	1	0	848	1	4	0	32	14	0	0	100
random	1	1	15	27201	3	1	1	1	0	979	1	4	0	8	15	0	0	100
random	1	1	16	29116	4	3	3	1	0	1818	1	4	0	24	16	0	0	100
random	1	1	17	31278	6	4	4	1	0	1007	1	4	0	32	17	0	0	100
random	1	1	18	32824	2	1	1	1	0	861	1	4	0	8	18	0	0	100
random	1	1	19	34352	5	3	0	0	2	0	3	4	0	24	18	0	1	95
random	1	1	20	37801	2	2	2	1	0	1314	1	4	0	16	19	0	1	95
random	1	1	21	40066	3	3	3	1	0	1298	1	4	0	24	20	0	1	95
random	1	1	22	42115	6	1	1	1	0	867	1	4	0	8	21	0	1	95
random	1	1	23	43563	4	2	2	1	0	990	1	4	0	16	22	0	1	96
random	1	1	24	45089	1	4	4	1	0	941	1	4	0	32	23	0	1	96
random	1	1	25	47071	4	3	3	2	0	2001	2	4	0	24	24	0	1	96
random	1	1	26	49388	2	1	1	1	0	1047	1	4	0	8	25	0	1	96
random	1	1	27	50746	5	2	0	1	2	0	3	4	0	16	25	0	2	93
random	1	1	28	54077	6	4	4	1	0	937	1	4	0	32	26	0	2	93
random	1	1	29	55910	1	3	3	1	0	1291	1	4	0	24	27	0	2	93
random	1	1	30	58027	5	2	2	2	0	1514	2	4	0	16	28	0	2	93
random	1	1	31	60263	2	1	1	1	0	843	1	4	0	8	29	0	2	94
random	1	1	32	61547	3	3	3	1	0	1372	1	4	0	24	30	0	2	94
random	1	1	33	63259	6	4	4	1	0	1299	1	4	0	32	31	0	2	94
random	1	1	34	65037	4	2	2	1	0	1072	1	4	0	16	32	0	2	94
random	1	1	35	66683	3	4	4	1	0	1018	1	4	0	32	33	0	2	94
random	1	1	36	68142	1	1	1	1	0	941	1	4	0	8	34	0	2	94
random	1	1	37	70328	3	4	4	1	0	968	1	4	0	32	35	0	2	95
random	1	1	38	71612	5	3	3	1	0	1874	1	4	0	24	36	0	2	95
random	1	1	39	74511	6	1	1	1	0	1471	1	4	0	8	37	0	2	95
random	1	1	40	76951	1	2	2	1	0	808	1	4	0	16	38	0	2	95
random	1	1	41	78396	2	3	3	1	0	1098	1	4	0	24	39	0	2	95
random	1	1	42	80104	4	4	4	1	0	906	1	4	0	32	40	0	2	95
random	1	1	43	81714	1	2	2	1	0	1374	1	4	0	16	41	0	2	95
random	1	1	44	83614	6	3	3	2	0	1517	2	4	0	24	42	0	2	95
random	1	1	45	85719	3	1	1	1	0	1084	1	4	0	8	43	0	2	96
random	1	1	46	87806	4	4	4	1	0	1012	1	4	0	32	44	0	2	96
random	1	1	47	89811	2	2	2	1	0	1095	1	4	0	16	45	0	2	96
random	1	1	48	91280	5	1	1	1	0	913	1	4	0	8	46	0	2	96
random	1	1	49	92917	2	3	3	1	0	1923	1	4	0	24	47	0	2	96
random	1	1	50	95880	3	1	1	1	0	1206	1	4	0	8	48	0	2	96
random	1	1	51	97973	1	4	4	1	0	1654	1	4	0	32	49	0	2	96
random	1	1	52	100116	5	3	3	1	0	1778	1	4	0	24	50	0	2	96
random	1	1	53	102419	3	2	2	1	0	1081	1	4	0	16	51	0	2	96
random	1	1	54	104364	6	4	4	1	0	1055	1	4	0	32	52	0	2	96
random	1	1	55	106127	4	2	2	1	0	1420	1	4	0	16	53	0	2	96
random	1	1	56	108335	1	1	1	1	0	1087	1	4	0	8	54	0	2	96
random	1	1	57	110026	5	4	4	1	0	1095	1	4	0	32	55	0	2	96
random	1	1	58	111954	2	1	1	1	0	1037	1	4	0	8	56	0	2	97
random	1	1	59	113924	6	2	2	1	0	1242	1	4	0	16	57	0	2	97
random	1	1	60	116111	4	3	3	1	0	1541	1	4	0	24	58	0	2	97
random	1	1	61	118496	1	2	2	1	0	1088	1	4	0	16	59	0	2	97
random	1	1	62	119964	6	4	4	1	0	914	1	4	0	32	60	0	2	97
random	1	1	63	121593	4	1	1	1	0	1085	1	4	0	8	61	0	2	97
random	1	1	64	123171	2	2	2	1	0	1042	1	4	0	16	62	0	2	97
random	1	1	65	124960	4	3	3	1	0	1702	1	4	0	24	63	0	2	97
random	1	1	66	127377	3	1	1	1	0	760	1	4	0	8	64	0	2	97
random	1	1	67	128981	1	3	3	1	0	1972	1	4	0	24	65	0	2	97
random	1	1	68	131809	5	4	4	1	0	997	1	4	0	32	66	0	2	97
random	1	1	69	133171	2	2	2	1	0	971	1	4	0	16	67	0	2	97
random	1	1	70	134525	3	1	1	1	0	921	1	4	0	8	68	0	2	97
random	1	1	71	136085	5	4	4	1	0	959	1	4	0	32	69	0	2	97
random	1	1	72	137894	6	3	0	0	2	0	3	4	0	24	69	0	3	96
random	1	1	73	141169	2	1	1	1	0	1576	1	4	0	8	70	0	3	96
random	1	1	74	143161	5	3	3	1	0	1563	1	4	0	24	71	0	3	96
random	1	1	75	145310	1	4	4	1	0	1144	1	4	0	32	72	0	3	96
random	1	1	76	147348	6	2	2	1	0	1034	1	4	0	16	73	0	3	96
random	1	1	77	148907	2	1	1	1	0	992	1	4	0	8	74	0	3	96
random	1	1	78	150594	4	4	4	1	0	1096	1	4	0	32	75	0	3	96
random	1	1	79	152029	3	2	2	1	0	916	1	4	0	16	76	0	3	96
random	1	1	80	153348	4	3	3	1	0	1572	1	4	0	24	77	0	3	96
random	1	1	81	155858	1	4	4	1	0	1354	1	4	0	32	78	0	3	96
random	1	1	82	157941	5	1	1	1	0	633	1	4	0	8	79	0	3	96
random	1	1	83	159003	3	2	0	2	2	0	3	4	0	16	79	0	4	95
random	1	1	84	162300	6	3	3	2	0	1705	2	4	0	24	80	0	4	95
random	1	1	85	164877	3	2	2	1	0	1755	1	4	0	16	81	0	4	95
random	1	1	86	167588	1	3	0	0	2	0	3	4	0	24	81	0	5	94
random	1	1	87	170803	4	4	4	1	0	1057	1	4	0	32	82	0	5	94
random	1	1	88	172229	2	1	1	1	0	1028	1	4	0	8	83	0	5	94
random	1	1	89	174163	6	4	4	1	0	1099	1	4	0	32	84	0	5	94
random	1	1	90	176011	3	3	3	1	0	1444	1	4	0	24	85	0	5	94
random	1	1	91	178154	5	4	4	1	0	1201	1	4	0	32	86	0	5	95
random	1	1	92	180013	1	2	0	1	2	0	3	4	0	16	86	0	6	93
random	1	1	93	183094	5	1	1	1	0	1000	1	4	0	8	87	0	6	94
random	1	1	94	184905	4	3	3	1	0	1644	1	4	0	24	88	0	6	94
random	1	1	95	187495	6	1	1	1	0	790	1	4	0	8	89	0	6	94
random	1	1	96	188647	2	2	2	1	0	1469	1	4	0	16	90	0	6	94
random	1	1	97	190974	4	3	3	1	0	1770	1	4	0	24	91	0	6	94
random	1	1	98	193108	3	2	2	1	0	1392	1	4	0	16	92	0	6	94
random	1	1	99	194954	6	3	3	1	0	1930	1	4	0	24	93	0	6	94
random	1	1	100	197244	1	4	4	1	0	1017	1	4	0	32	94	0	6	94
random	1	1	101	199275	4	1	1	1	0	1019	1	4	0	8	95	0	6	94
random	1	1	102	200654	5	2	2	1	0	1000	1	4	0	16	96	0	6	94
random	1	1	103	202459	2	4	4	1	0	1404	1	4	0	32	97	0	6	94
random	1	1	104	204193	3	1	1	1	0	938	1	4	0	8	98	0	6	94
random	1	1	105	205968	1	3	3	1	0	2135	1	4	0	24	99	0	6	94
random	1	1	106	209029	2	2	2	1	0	1038	1	4	0	16	100	0	6	94
random	1	1	107	210440	5	4	4	1	0	1042	1	4	0	32	101	0	6	94
random	1	1	108	211922	6	1	1	1	0	827	1	4	0	8	102	0	6	94
random	1	1	109	213580	5	4	4	1	0	1477	1	4	0	32	103	0	6	94
random	1	1	110	215807	6	3	3	1	0	2022	1	4	0	24	104	0	6	95
random	1	1	111	218374	2	2	2	1	0	1241	1	4	0	16	105	0	6	95
random	1	1	112	220129	3	1	1	1	0	1087	1	4	0	8	106	0	6	95
random	1	1	113	221959	1	2	0	1	2	0	3	4	0	16	106	0	7	94
random	1	1	114	225148	2	3	3	1	0	283	1	4	0	24	107	0	7	94
random	1	1	115	226026	3	1	1	1	0	1293	1	4	0	8	108	0	7	94
random	1	1	116	228212	4	4	4	1	0	1145	1	4	0	32	109	0	7	94
random	1	1	117	229839	6	1	1	1	0	1004	1	4	0	8	110	0	7	94
random	1	1	118	231459	5	3	3	1	0	1055	1	4	0	24	111	0	7	94
random	1	1	119	232843	1	4	4	1	0	1005	1	4	0	32	112	0	7	94
random	1	1	120	234535	4	2	2	1	0	1221	1	4	0	16	113	0	7	94
fixed	2	1	1	237052	4	1	1	1	0	962	1	4	0	40	1	0	0	100
fixed	2	1	2	238316	1	2	0	1	2	0	3	4	0	48	1	0	1	50
fixed	2	1	3	241411	6	4	4	1	0	1138	1	4	0	64	2	0	1	67
fixed	2	1	4	243340	2	1	1	1	0	1072	1	4	0	40	3	0	1	75
fixed	2	1	5	245294	5	3	0	1	2	0	3	4	0	56	3	0	2	60
fixed	2	1	6	248200	6	4	4	1	0	1930	1	4	0	64	4	0	2	67
fixed	2	1	7	250880	3	1	1	1	0	1105	1	4	0	40	5	0	2	71
fixed	2	1	8	252560	2	3	3	1	0	1530	1	4	0	56	6	0	2	75
fixed	2	1	9	254790	3	2	2	1	0	1483	1	4	0	48	7	0	2	78
fixed	2	1	10	256926	1	4	4	1	0	1105	1	4	0	64	8	0	2	80
fixed	2	1	11	258331	5	2	0	2	2	0	3	4	0	48	8	0	3	73
fixed	2	1	12	261527	4	3	3	2	0	1310	2	4	0	56	9	0	3	75
fixed	2	2	1	263853	4	1	1	1	0	1219	1	4	0	40	10	0	3	77
fixed	2	2	2	265429	1	2	2	2	0	2113	2	4	0	48	11	0	3	79
fixed	2	2	3	268253	6	4	4	2	0	1137	2	4	0	64	12	0	3	80
fixed	2	2	4	269793	2	1	1	1	0	1528	1	4	0	40	13	0	3	81
fixed	2	2	5	271855	5	3	3	1	0	1192	1	4	0	56	14	0	3	82
fixed	2	2	6	274017	6	4	4	1	0	1085	1	4	0	64	15	0	3	83
fixed	2	2	7	275977	3	1	1	1	0	1026	1	4	0	40	16	0	3	84
fixed	2	2	8	277377	2	3	3	1	0	1743	1	4	0	56	17	0	3	85
fixed	2	2	9	279838	3	2	2	1	0	1671	1	4	0	48	18	0	3	86
fixed	2	2	10	281838	1	4	4	1	0	1138	1	4	0	64	19	0	3	86
fixed	2	2	11	283674	5	2	2	1	0	1764	1	4	0	48	20	0	3	87
fixed	2	2	12	286353	4	3	3	1	0	1027	1	4	0	56	21	0	3	88
fixed	2	3	1	288363	4	1	1	1	0	1149	1	4	0	40	22	0	3	88
fixed	2	3	2	290548	1	2	2	1	0	1417	1	4	0	48	23	0	3	88
fixed	2	3	3	292859	6	4	4	1	0	767	1	4	0	64	24	0	3	89
fixed	2	3	4	293974	2	1	1	1	0	1399	1	4	0	40	25	0	3	89
fixed	2	3	5	296291	5	3	3	1	0	1470	1	4	0	56	26	0	3	90
fixed	2	3	6	298327	6	4	4	1	0	1127	1	4	0	64	27	0	3	90
fixed	2	3	7	300376	3	1	1	1	0	864	1	4	0	40	28	0	3	90
fixed	2	3	8	301814	2	3	3	1	0	1259	1	4	0	56	29	0	3	91
fixed	2	3	9	304080	3	2	0	1	2	0	3	4	0	48	29	0	4	88
fixed	2	3	10	306874	1	4	4	1	0	1197	1	4	0	64	30	0	4	88
fixed	2	3	11	308685	5	2	2	1	0	1240	1	4	0	48	31	0	4	89
fixed	2	3	12	310918	4	3	3	1	0	1730	1	4	0	56	32	0	4	89
fixed	2	4	1	313391	4	1	1	1	0	993	1	4	0	40	33	0	4	89
fixed	2	4	2	315064	1	2	0	1	2	0	3	4	0	48	33	0	5	87
fixed	2	4	3	318319	6	4	4	1	0	1160	1	4	0	64	34	0	5	87
fixed	2	4	4	320187	2	1	1	1	0	866	1	4	0	40	35	0	5	88
fixed	2	4	5	321942	5	3	3	1	0	1183	1	4	0	56	36	0	5	88
fixed	2	4	6	323655	6	4	4	1	0	1054	1	4	0	64	37	0	5	88
fixed	2	4	7	325545	3	1	1	1	0	1038	1	4	0	40	38	0	5	88
fixed	2	4	8	327007	2	3	3	1	0	1176	1	4	0	56	39	0	5	89
fixed	2	4	9	328957	3	2	2	1	0	886	1	4	0	48	40	0	5	89
fixed	2	4	10	330590	1	4	4	1	0	1289	1	4	0	64	41	0	5	89
fixed	2	4	11	332262	5	2	2	1	0	1242	1	4	0	48	42	0	5	89
fixed	2	4	12	333976	4	3	0	0	2	0	3	4	0	56	42	0	6	88
fixed	2	5	1	337400	4	1	1	1	0	1000	1	4	0	40	43	0	6	88
fixed	2	5	2	338723	1	2	0	0	2	0	3	4	0	48	43	0	7	86
fixed	2	5	3	342162	6	4	4	2	0	950	2	4	0	64	44	0	7	86
fixed	2	5	4	343820	2	1	1	1	0	1000	1	4	0	40	45	0	7	87
fixed	2	5	5	345248	5	3	3	1	0	2484	1	4	0	56	46	0	7	87
fixed	2	5	6	348154	6	4	4	1	0	985	1	4	0	64	47	0	7	87
fixed	2	5	7	350036	3	1	1	1	0	873	1	4	0	40	48	0	7	87
fixed	2	5	8	351273	2	3	3	1	0	1381	1	4	0	56	49	0	7	88
fixed	2	5	9	353123	3	2	2	2	0	1630	2	4	0	48	50	0	7	88
fixed	2	5	10	355280	1	4	4	1	0	1235	1	4	0	64	51	0	7	88
fixed	2	5	11	357052	5	2	0	3	2	0	3	4	0	48	51	0	8	86
fixed	2	5	12	360033	4	3	3	1	0	250	1	4	0	56	52	0	8	87
fixed	2	6	1	360875	4	1	1	1	0	1374	1	4	0	40	53	0	8	87
fixed	2	6	2	363017	1	2	2	1	0	2091	1	4	0	48	54	0	8	87
fixed	2	6	3	365442	6	4	4	1	0	1149	1	4	0	64	55	0	8	87
fixed	2	6	4	367486	2	1	1	1	0	1414	1	4	0	40	56	0	8	88
fixed	2	6	5	369310	5	3	3	1	0	2216	1	4	0	56	57	0	8	88
fixed	2	6	6	372365	6	4	4	1	0	856	1	4	0	64	58	0	8	88
fixed	2	6	7	374222	3	1	1	1	0	984	1	4	0	40	59	0	8	88
fixed	2	6	8	375606	2	3	0	2	2	0	3	4	0	56	59	0	9	87
fixed	2	6	9	378659	3	2	2	2	0	1437	2	4	0	48	60	0	9	87
fixed	2	6	10	381023	1	4	0	0	2	0	3	4	0	64	60	0	10	86
fixed	2	6	11	384352	5	2	0	2	2	0	3	4	0	48	60	0	11	85
fixed	2	6	12	387654	4	3	0	0	2	0	3	4	0	56	60	0	12	83
fixed	2	7	1	390882	4	1	1	2	0	975	2	4	0	40	61	0	12	84
fixed	2	7	2	392248	1	2	2	1	0	1781	1	4	0	48	62	0	12	84
fixed	2	7	3	394434	6	4	4	1	0	1121	1	4	0	64	63	0	12	84
fixed	2	7	4	396371	2	1	1	1	0	863	1	4	0	40	64	0	12	84
fixed	2	7	5	397745	5	3	3	1	0	1116	1	4	0	56	65	0	12	84
fixed	2	7	6	399170	6	4	4	1	0	1208	1	4	0	64	66	0	12	85
fixed	2	7	7	400741	3	1	1	2	0	1565	2	4	0	40	67	0	12	85
fixed	2	7	8	403202	2	3	3	1	0	1085	1	4	0	56	68	0	12	85
fixed	2	7	9	404671	3	2	2	2	0	1191	2	4	0	48	69	0	12	85
fixed	2	7	10	406725	1	4	4	1	0	1016	1	4	0	64	70	0	12	85
fixed	2	7	11	408455	5	2	2	1	0	1375	1	4	0	48	71	0	12	86
fixed	2	7	12	410146	4	3	3	1	0	1991	1	4	0	56	72	0	12	86
fixed	2	8	1	413270	4	1	1	1	0	914	1	4	0	40	73	0	12	86
fixed	2	8	2	414747	1	2	0	1	2	0	3	4	0	48	73	0	13	85
fixed	2	8	3	418053	6	4	4	1	0	1080	1	4	0	64	74	0	13	85
fixed	2	8	4	419498	2	1	1	1	0	1019	1	4	0	40	75	0	13	85
fixed	2	8	5	421140	5	3	3	1	0	1445	1	4	0	56	76	0	13	85
fixed	2	8	6	423473	6	4	4	2	0	1051	2	4	0	64	77	0	13	86
fixed	2	8	7	425240	3	1	1	2	0	952	2	4	0	40	78	0	13	86
fixed	2	8	8	427101	2	3	0	0	2	0	3	4	0	56	78	0	14	85
fixed	2	8	9	430424	3	2	2	2	0	1060	2	4	0	48	79	0	14	85
fixed	2	8	10	432300	1	4	4	1	0	1044	1	4	0	64	80	0	14	85
fixed	2	8	11	433866	5	2	0	1	2	0	3	4	0	48	80	0	15	84
fixed	2	8	12	436836	4	3	3	1	0	1277	1	4	0	56	81	0	15	84
fixed	2	9	1	439267	4	1	1	1	0	853	1	4	0	40	82	0	15	85
fixed	2	9	2	440504	1	2	2	1	0	1425	1	4	0	48	83	0	15	85
fixed	2	9	3	442395	6	4	4	1	0	1017	1	4	0	64	84	0	15	85
fixed	2	9	4	444047	2	1	1	1	0	1203	1	4	0	40	85	0	15	85
fixed	2	9	5	445811	5	3	3	1	0	1777	1	4	0	56	86	0	15	85
fixed	2	9	6	447971	6	4	4	1	0	1213	1	4	0	64	87	0	15	85
fixed	2	9	7	449940	3	1	1	1	0	858	1	4	0	40	88	0	15	85
fixed	2	9	8	451284	2	3	3	1	0	2353	1	4	0	56	89	0	15	86
fixed	2	9	9	454499	3	2	2	1	0	1329	1	4	0	48	90	0	15	86
fixed	2	9	10	456764	1	4	4	1	0	1264	1	4	0	64	91	0	15	86
fixed	2	9	11	458359	5	2	0	2	2	0	3	4	0	48	91	0	16	85
fixed	2	9	12	461217	4	3	3	1	0	1836	1	4	0	56	92	0	16	85
fixed	2	10	1	464045	4	1	1	1	0	820	1	4	0	40	93	0	16	85
fixed	2	10	2	465528	1	2	0	0	2	0	3	4	0	48	93	0	17	85
fixed	2	10	3	468819	6	4	4	1	0	1098	1	4	0	64	94	0	17	85
fixed	2	10	4	470463	2	1	1	1	0	876	1	4	0	40	95	0	17	85
fixed	2	10	5	471700	5	3	3	1	0	1304	1	4	0	56	96	0	17	85
fixed	2	10	6	473525	6	4	4	1	0	883	1	4	0	64	97	0	17	85
fixed	2	10	7	474749	3	1	1	1	0	1031	1	4	0	40	98	0	17	85
fixed	2	10	8	476224	2	3	0	0	2	0	3	4	0	56	98	0	18	84
fixed	2	10	9	479119	3	2	2	2	0	1238	2	4	0	48	99	0	18	85
fixed	2	10	10	480687	1	4	4	2	0	1099	2	4	0	64	100	0	18	85
fixed	2	10	11	482196	5	2	0	0	2	0	3	4	0	48	100	0	19	84
fixed	2	10	12	485468	4	3	3	1	0	1793	1	4	0	56	101	0	19	84
fixed	3	1	1	488552	4	1	1	1	0	1070	1	4	0	72	1	0	0	100
fixed	3	1	2	490577	1	2	0	1	2	0	3	4	0	80	1	0	1	50
fixed	3	1	3	493501	6	4	4	1	0	836	1	4	0	96	2	0	1	67
fixed	3	1	4	494815	2	1	1	1	0	1365	1	4	0	72	3	0	1	75
fixed	3	1	5	496877	5	3	3	1	0	1213	1	4	0	88	4	0	1	80
fixed	3	1	6	498670	6	4	4	1	0	1098	1	4	0	96	5	0	1	83
fixed	3	1	7	500091	3	1	1	1	0	957	1	4	0	72	6	0	1	86
fixed	3	1	8	501426	2	3	3	1	0	1181	1	4	0	88	7	0	1	88
fixed	3	1	9	503288	3	2	2	2	0	1422	2	4	0	80	8	0	1	89
fixed	3	1	10	505402	1	4	4	1	0	1244	1	4	0	96	9	0	1	90
fixed	3	1	11	507250	5	2	2	1	0	942	1	4	0	80	10	0	1	91
fixed	3	1	12	509195	4	3	3	1	0	404	1	4	0	88	11	0	1	92
fixed	3	2	1	510792	4	1	1	1	0	912	1	4	0	72	12	0	1	92
fixed	3	2	2	512739	1	2	0	1	2	0	3	4	0	80	12	0	2	86
fixed	3	2	3	515938	6	4	4	1	0	950	1	4	0	96	13	0	2	87
fixed	3	2	4	517405	2	1	1	1	0	1056	1	4	0	72	14	0	2	88
fixed	3	2	5	519150	5	3	3	1	0	1302	1	4	0	88	15	0	2	88
fixed	3	2	6	521390	6	4	4	1	0	1127	1	4	0	96	16	0	2	89
fixed	3	2	7	523211	3	1	1	1	0	1010	1	4	0	72	17	0	2	89
fixed	3	2	8	524710	2	3	0	0	2	0	3	4	0	88	17	0	3	85
fixed	3	2	9	527625	3	2	2	1	0	1023	1	4	0	80	18	0	3	86
fixed	3	2	10	529647	1	4	4	1	0	1866	1	4	0	96	19	0	3	86
fixed	3	2	11	532082	5	2	2	1	0	1178	1	4	0	80	20	0	3	87
fixed	3	2	12	533904	4	3	3	2	0	1989	2	4	0	88	21	0	3	88
fixed	3	3	1	537191	4	1	1	2	0	1018	2	4	0	72	22	0	3	88
fixed	3	3	2	539228	1	2	2	1	0	1707	1	4	0	80	23	0	3	88
fixed	3	3	3	541811	6	4	4	1	0	910	1	4	0	96	24	0	3	89
fixed	3	3	4	543216	2	1	1	1	0	987	1	4	0	72	25	0	3	89
fixed	3	3	5	544734	5	3	3	1	0	1043	1	4	0	88	26	0	3	90
fixed	3	3	6	546117	6	4	4	1	0	1232	1	4	0	96	27	0	3	90
fixed	3	3	7	548235	3	1	1	2	0	1006	2	4	0	72	28	0	3	90
fixed	3	3	8	550003	2	3	3	1	0	27	1	4	0	88	29	0	3	91
fixed	3	3	9	550711	3	2	2	1	0	1157	1	4	0	80	30	0	3	91
fixed	3	3	10	552357	1	4	4	2	0	2032	2	4	0	96	31	0	3	91
fixed	3	3	11	554693	5	2	0	2	2	0	3	4	0	80	31	0	4	89
fixed	3	3	12	558105	4	3	3	1	0	292	1	4	0	88	32	0	4	89
fixed	3	4	1	559496	4	1	1	3	0	985	2	4	0	72	33	0	4	89
fixed	3	4	2	561115	1	2	0	2	2	0	3	4	0	80	33	0	5	87
fixed	3	4	3	564210	6	4	4	2	0	1001	2	4	0	96	34	0	5	87
fixed	3	4	4	565952	2	1	1	1	0	888	1	4	0	72	35	0	5	88
fixed	3	4	5	567177	5	3	3	1	0	1652	1	4	0	88	36	0	5	88
fixed	3	4	6	569715	6	4	4	1	0	1881	1	4	0	96	37	0	5	88
fixed	3	4	7	571920	3	1	1	1	0	979	1	4	0	72	38	0	5	88
fixed	3	4	8	573486	2	3	3	1	0	1201	1	4	0	88	39	0	5	89
fixed	3	4	9	575696	3	2	2	1	0	1139	1	4	0	80	40	0	5	89
fixed	3	4	10	577282	1	4	4	1	0	1320	1	4	0	96	41	0	5	89
fixed	3	4	11	579543	5	2	0	0	2	0	3	4	0	80	41	0	6	87
fixed	3	4	12	582788	4	3	3	1	0	78	1	4	0	88	42	0	6	88
fixed	3	5	1	584123	4	1	1	1	0	974	1	4	0	72	43	0	6	88
fixed	3	5	2	586131	1	2	0	2	2	0	3	4	0	80	43	0	7	86
fixed	3	5	3	589465	6	4	4	1	0	956	1	4	0	96	44	0	7	86
fixed	3	5	4	591049	2	1	1	2	0	1481	2	4	0	72	45	0	7	87
fixed	3	5	5	593023	5	3	3	1	0	2221	1	4	0	88	46	0	7	87
fixed	3	5	6	595908	6	4	4	1	0	1787	1	4	0	96	47	0	7	87
fixed	3	5	7	598016	3	1	1	1	0	1722	1	4	0	72	48	0	7	87
fixed	3	5	8	600637	2	3	3	1	0	915	1	4	0	88	49	0	7	88
fixed	3	5	9	602363	3	2	2	2	0	1130	2	4	0	80	50	0	7	88
fixed	3	5	10	604231	1	4	4	1	0	1851	1	4	0	96	51	0	7	88
fixed	3	5	11	606864	5	2	2	2	0	1315	2	4	0	80	52	0	7	88
fixed	3	5	12	609062	4	3	3	1	0	334	1	4	0	88	53	0	7	88
fixed	3	6	1	610521	4	1	0	3	2	0	3	4	0	72	53	0	8	87
fixed	3	6	2	613346	1	2	0	1	2	0	3	4	0	80	53	0	9	85
fixed	3	6	3	616466	6	4	4	1	0	972	1	4	0	96	54	0	9	86
fixed	3	6	4	618382	2	1	1	1	0	2203	1	4	0	72	55	0	9	86
fixed	3	6	5	621571	5	3	0	0	2	0	3	4	0	88	55	0	10	85
fixed	3	6	6	624632	6	4	4	3	0	1458	2	4	0	96	56	0	10	85
fixed	3	6	7	626762	3	1	1	2	0	2424	2	4	0	72	57	0	10	85
fixed	3	6	8	630218	2	3	3	1	0	1781	1	4	0	88	58	0	10	85
fixed	3	6	9	632745	3	2	0	1	2	0	3	4	0	80	58	0	11	84
fixed	3	6	10	636230	1	4	4	1	0	1191	1	4	0	96	59	0	11	84
fixed	3	6	11	638011	5	2	0	1	2	0	3	4	0	80	59	0	12	83
fixed	3	6	12	641140	4	3	3	1	0	1487	1	4	0	88	60	0	12	83
fixed	3	7	1	643452	4	1	1	2	0	1565	2	4	0	72	61	0	12	84
fixed	3	7	2	645634	1	2	0	1	2	0	3	4	0	80	61	0	13	82
fixed	3	7	3	648507	6	4	4	1	0	1191	1	4	0	96	62	0	13	83
fixed	3	7	4	650698	2	1	1	1	0	1659	1	4	0	72	63	0	13	83
fixed	3	7	5	652851	5	3	3	1	0	1551	1	4	0	88	64	0	13	83
fixed	3	7	6	655000	6	4	4	1	0	2140	1	4	0	96	65	0	13	83
fixed	3	7	7	658040	3	1	1	1	0	915	1	4	0	72	66	0	13	84
fixed	3	7	8	659846	2	3	3	1	0	1263	1	4	0	88	67	0	13	84
fixed	3	7	9	661625	3	2	2	1	0	1132	1	4	0	80	68	0	13	84
fixed	3	7	10	663170	1	4	4	1	0	1146	1	4	0	96	69	0	13	84
fixed	3	7	11	664772	5	2	2	1	0	1174	1	4	0	80	70	0	13	84
fixed	3	7	12	666867	4	3	0	0	2	0	3	4	0	88	70	0	14	83
fixed	3	8	1	670501	4	1	1	1	0	907	1	4	0	72	71	0	14	84
fixed	3	8	2	671735	1	2	2	1	0	1607	1	4	0	80	72	0	14	84
fixed	3	8	3	673933	6	4	4	1	0	1026	1	4	0	96	73	0	14	84
fixed	3	8	4	675362	2	1	1	1	0	1197	1	4	0	72	74	0	14	84
fixed	3	8	5	677139	5	3	3	1	0	1154	1	4	0	88	75	0	14	84
fixed	3	8	6	678884	6	4	4	1	0	993	1	4	0	96	76	0	14	84
fixed	3	8	7	680889	3	1	1	1	0	868	1	4	0	72	77	0	14	85
fixed	3	8	8	682389	2	3	3	1	0	1324	1	4	0	88	78	0	14	85
fixed	3	8	9	684441	3	2	2	1	0	1533	1	4	0	80	79	0	14	85
fixed	3	8	10	686975	1	4	4	1	0	1186	1	4	0	96	80	0	14	85
fixed	3	8	11	689157	5	2	2	1	0	934	1	4	0	80	81	0	14	85
fixed	3	8	12	690599	4	3	3	2	0	2432	2	4	0	88	82	0	14	85
fixed	3	9	1	693658	4	1	1	2	0	1030	2	4	0	72	83	0	14	86
fixed	3	9	2	695503	1	2	0	1	2	0	3	4	0	80	83	0	15	85
fixed	3	9	3	698901	6	4	4	2	0	1265	2	4	0	96	84	0	15	85
fixed	3	9	4	700488	2	1	1	1	0	909	1	4	0	72	85	0	15	85
fixed	3	9	5	702097	5	3	3	1	0	1449	1	4	0	88	86	0	15	85
fixed	3	9	6	704517	6	4	4	2	0	1043	2	4	0	96	87	0	15	85
fixed	3	9	7	706342	3	1	1	1	0	1069	1	4	0	72	88	0	15	85
fixed	3	9	8	708428	2	3	3	1	0	1293	1	4	0	88	89	0	15	86
fixed	3	9	9	710145	3	2	2	1	0	1381	1	4	0	80	90	0	15	86
fixed	3	9	10	712286	1	4	4	1	0	1345	1	4	0	96	91	0	15	86
fixed	3	9	11	713935	5	2	0	1	2	0	3	4	0	80	91	0	16	85
fixed	3	9	12	717176	4	3	0	0	2	0	3	4	0	88	91	0	17	84
fixed	3	10	1	720474	4	1	1	1	0	1015	1	4	0	72	92	0	17	84
fixed	3	10	2	722102	1	2	2	1	0	1746	1	4	0	80	93	0	17	85
fixed	3	10	3	724648	6	4	4	1	0	1574	1	4	0	96	94	0	17	85
fixed	3	10	4	726751	2	1	1	3	0	2117	2	4	0	72	95	0	17	85
fixed	3	10	5	729331	5	3	3	1	0	880	1	4	0	88	96	0	17	85
fixed	3	10	6	731120	6	4	4	1	0	1092	1	4	0	96	97	0	17	85
fixed	3	10	7	732560	3	1	1	2	0	1143	2	4	0	72	98	0	17	85
fixed	3	10	8	734016	2	3	3	1	0	1633	1	4	0	88	99	0	17	85
fixed	3	10	9	736243	3	2	2	1	0	675	1	4	0	80	100	0	17	85
fixed	3	10	10	737568	1	4	4	1	0	1187	1	4	0	96	101	0	17	86
fixed	3	10	11	739431	5	2	0	1	2	0	3	4	0	80	101	0	18	85
fixed	3	10	12	742584	4	3	3	2	0	1502	2	4	0	88	102	0	18	85
fixed	4	1	1	872862	4	1	1	1	0	1320	1	4	0	104	1	0	0	100
fixed	4	1	2	874702	1	2	0	1	2	0	3	4	0	112	1	0	1	50
fixed	4	1	3	878063	6	4	4	2	0	868	2	4	0	128	2	0	1	67
fixed	4	1	4	879732	2	1	1	1	0	933	1	4	0	104	3	0	1	75
fixed	4	1	5	881405	5	3	3	1	0	1494	1	4	0	120	4	0	1	80
fixed	4	1	6	883204	6	4	4	1	0	1042	1	4	0	128	5	0	1	83
fixed	4	1	7	884746	3	1	1	1	0	889	1	4	0	104	6	0	1	86
fixed	4	1	8	886328	2	3	3	1	0	1822	1	4	0	120	7	0	1	88
fixed	4	1	9	888723	3	2	2	1	0	1200	1	4	0	112	8	0	1	89
fixed	4	1	10	890427	1	4	4	1	0	1056	1	4	0	128	9	0	1	90
fixed	4	1	11	892350	5	2	2	1	0	1151	1	4	0	112	10	0	1	91
fixed	4	1	12	894009	4	3	3	1	0	1713	1	4	0	120	11	0	1	92
fixed	4	2	1	896807	4	1	1	1	0	978	1	4	0	104	12	0	1	92
fixed	4	2	2	898646	1	2	0	1	2	0	3	4	0	112	12	0	2	86
fixed	4	2	3	901531	6	4	4	2	0	922	2	4	0	128	13	0	2	87
fixed	4	2	4	903235	2	1	1	1	0	1034	1	4	0	104	14	0	2	88
fixed	4	2	5	904756	5	3	3	1	0	1474	1	4	0	120	15	0	2	88
fixed	4	2	6	906782	6	4	4	1	0	1092	1	4	0	128	16	0	2	89
fixed	4	2	7	908708	3	1	1	1	0	1274	1	4	0	104	17	0	2	89
fixed	4	2	8	910811	2	3	3	1	0	1265	1	4	0	120	18	0	2	90
fixed	4	2	9	913050	3	2	2	1	0	1650	1	4	0	112	19	0	2	90
fixed	4	2	10	914989	1	4	4	1	0	1040	1	4	0	128	20	0	2	91
fixed	4	2	11	916745	5	2	0	1	2	0	3	4	0	112	20	0	3	87
fixed	4	2	12	919813	4	3	3	1	0	1428	1	4	0	120	21	0	3	88
fixed	4	3	1	921985	4	1	1	1	0	856	1	4	0	104	22	0	3	88
fixed	4	3	2	923603	1	2	2	1	0	1539	1	4	0	112	23	0	3	88
fixed	4	3	3	925769	6	4	4	1	0	1064	1	4	0	128	24	0	3	89
fixed	4	3	4	927177	2	1	1	1	0	1924	1	4	0	104	25	0	3	89
fixed	4	3	5	929934	5	3	3	1	0	2263	1	4	0	120	26	0	3	90
fixed	4	3	6	932601	6	4	4	1	0	1230	1	4	0	128	27	0	3	90
fixed	4	3	7	934314	3	1	1	1	0	1269	1	4	0	104	28	0	3	90
fixed	4	3	8	936360	2	3	3	1	0	1079	1	4	0	120	29	0	3	91
fixed	4	3	9	938161	3	2	2	1	0	1251	1	4	0	112	30	0	3	91
fixed	4	3	10	940178	1	4	4	1	0	1277	1	4	0	128	31	0	3	91
fixed	4	3	11	942390	5	2	0	1	2	0	3	4	0	112	31	0	4	89
fixed	4	3	12	945695	4	3	3	1	0	1667	1	4	0	120	32	0	4	89
fixed	4	4	1	948650	4	1	1	1	0	998	1	4	0	104	33	0	4	89
fixed	4	4	2	950572	1	2	0	1	2	0	3	4	0	112	33	0	5	87
fixed	4	4	3	953941	6	4	4	2	0	1486	2	4	0	128	34	0	5	87
fixed	4	4	4	955800	2	1	1	1	0	1527	1	4	0	104	35	0	5	88
fixed	4	4	5	957741	5	3	3	1	0	1901	1	4	0	120	36	0	5	88
fixed	4	4	6	960342	6	4	4	1	0	1095	1	4	0	128	37	0	5	88
fixed	4	4	7	962359	3	1	1	2	0	1026	2	4	0	104	38	0	5	88
fixed	4	4	8	964407	2	3	3	1	0	1099	1	4	0	120	39	0	5	89
fixed	4	4	9	966036	3	2	2	1	0	1270	1	4	0	112	40	0	5	89
fixed	4	4	10	968176	1	4	4	1	0	1084	1	4	0	128	41	0	5	89
fixed	4	4	11	970126	5	2	0	1	2	0	3	4	0	112	41	0	6	87
fixed	4	4	12	973262	4	3	3	1	0	1588	1	4	0	120	42	0	6	88
fixed	4	5	1	975449	4	1	1	1	0	991	1	4	0	104	43	0	6	88
fixed	4	5	2	977307	1	2	2	2	0	1488	2	4	0	112	44	0	6	88
fixed	4	5	3	979663	6	4	4	2	0	1421	2	4	0	128	45	0	6	88
fixed	4	5	4	981448	2	1	1	2	0	1377	2	4	0	104	46	0	6	88
fixed	4	5	5	983164	5	3	3	1	0	1697	1	4	0	120	47	0	6	89
fixed	4	5	6	985181	6	4	4	1	0	1243	1	4	0	128	48	0	6	89
fixed	4	5	7	986862	3	1	1	2	0	1284	2	4	0	104	49	0	6	89
fixed	4	5	8	988740	2	3	3	1	0	564	1	4	0	120	50	0	6	89
fixed	4	5	9	989596	3	2	2	1	0	1176	1	4	0	112	51	0	6	89
fixed	4	5	10	991374	1	4	4	1	0	1261	1	4	0	128	52	0	6	90
fixed	4	5	11	993453	5	2	2	1	0	1693	1	4	0	112	53	0	6	90
fixed	4	5	12	996025	4	3	3	1	0	1240	1	4	0	120	54	0	6	90
fixed	4	6	1	997871	4	1	1	1	0	993	1	4	0	104	55	0	6	90
fixed	4	6	2	999708	1	2	2	1	0	1915	1	4	0	112	56	0	6	90
fixed	4	6	3	1001949	6	4	4	1	0	1261	1	4	0	128	57	0	6	90
fixed	4	6	4	1004162	2	1	1	1	0	967	1	4	0	104	58	0	6	91
fixed	4	6	5	1006004	5	3	3	1	0	1625	1	4	0	120	59	0	6	91
fixed	4	6	6	1008020	6	4	4	2	0	2364	2	4	0	128	60	0	6	91
fixed	4	6	7	1010768	3	1	1	1	0	1183	1	4	0	104	61	0	6	91
fixed	4	6	8	1012889	2	3	3	1	0	1837	1	4	0	120	62	0	6	91
fixed	4	6	9	1015414	3	2	2	2	0	1002	2	4	0	112	63	0	6	91
fixed	4	6	10	1016922	1	4	4	1	0	1843	1	4	0	128	64	0	6	91
fixed	4	6	11	1019518	5	2	2	1	0	1037	1	4	0	112	65	0	6	92
fixed	4	6	12	1021355	4	3	3	1	0	2271	1	4	0	120	66	0	6	92
fixed	4	7	1	1024453	4	1	1	1	0	611	1	4	0	104	67	0	6	92
fixed	4	7	2	1025641	1	2	0	0	2	0	3	4	0	112	67	0	7	91
fixed	4	7	3	1028540	6	4	4	1	0	2095	1	4	0	128	68	0	7	91
fixed	4	7	4	1031449	2	1	1	2	0	908	2	4	0	104	69	0	7	91
fixed	4	7	5	1033101	5	3	3	1	0	2102	1	4	0	120	70	0	7	91
fixed	4	7	6	1035744	6	4	4	1	0	1278	1	4	0	128	71	0	7	91
fixed	4	7	7	1037472	3	1	1	1	0	1484	1	4	0	104	72	0	7	91
fixed	4	7	8	1039496	2	3	3	1	0	1079	1	4	0	120	73	0	7	91
fixed	4	7	9	1041192	3	2	0	2	2	0	3	4	0	112	73	0	8	90
fixed	4	7	10	1044250	1	4	4	1	0	957	1	4	0	128	74	0	8	90
fixed	4	7	11	1046092	5	2	2	2	0	1743	2	4	0	112	75	0	8	90
fixed	4	7	12	1048132	4	3	3	1	0	1265	1	4	0	120	76	0	8	90
fixed	4	8	1	1049966	4	1	1	2	0	1083	2	4	0	104	77	0	8	91
fixed	4	8	2	1051695	1	2	2	1	0	2098	1	4	0	112	78	0	8	91
fixed	4	8	3	1054151	6	4	4	2	0	1074	2	4	0	128	79	0	8	91
fixed	4	8	4	1055797	2	1	1	2	0	1540	2	4	0	104	80	0	8	91
fixed	4	8	5	1057751	5	3	3	1	0	265	1	4	0	120	81	0	8	91
fixed	4	8	6	1058332	6	4	0	0	2	0	3	4	0	128	81	0	9	90
fixed	4	8	7	1061601	3	1	1	2	0	1046	2	4	0	104	82	0	9	90
fixed	4	8	8	1062990	2	3	3	1	0	484	1	4	0	120	83	0	9	90
fixed	4	8	9	1063965	3	2	0	1	2	0	3	4	0	112	83	0	10	89
fixed	4	8	10	1067151	1	4	4	1	0	1067	1	4	0	128	84	0	10	89
fixed	4	8	11	1069147	5	2	2	2	0	1030	2	4	0	112	85	0	10	89
fixed	4	8	12	1070984	4	3	3	1	0	1905	1	4	0	120	86	0	10	90
fixed	4	9	1	1073941	4	1	1	1	0	899	1	4	0	104	87	0	10	90
fixed	4	9	2	1075432	1	2	2	2	0	1764	2	4	0	112	88	0	10	90
fixed	4	9	3	1077836	6	4	4	1	0	1134	1	4	0	128	89	0	10	90
fixed	4	9	4	1079970	2	1	1	2	0	2228	2	4	0	104	90	0	10	90
fixed	4	9	5	1083070	5	3	3	1	0	25	1	4	0	120	91	0	10	90
fixed	4	9	6	1083395	6	4	4	1	0	1995	1	4	0	128	92	0	10	90
fixed	4	9	7	1086209	3	1	0	3	2	0	3	4	0	104	92	0	11	89
fixed	4	9	8	1089176	2	3	3	1	0	2046	1	4	0	120	93	0	11	89
fixed	4	9	9	1092058	3	2	2	1	0	1116	1	4	0	112	94	0	11	90
fixed	4	9	10	1093809	1	4	4	1	0	1018	1	4	0	128	95	0	11	90
fixed	4	9	11	1095809	5	2	0	1	2	0	3	4	0	112	95	0	12	89
fixed	4	9	12	1099156	4	3	0	0	2	0	3	4	0	120	95	0	13	88
fixed	4	10	1	1102361	4	1	1	2	0	1600	2	4	0	104	96	0	13	88
fixed	4	10	2	1104436	1	2	0	0	2	0	3	4	0	112	96	0	14	87
fixed	4	10	3	1107929	6	4	4	1	0	940	1	4	0	128	97	0	14	87
fixed	4	10	4	1109706	2	1	1	1	0	1161	1	4	0	104	98	0	14	88
fixed	4	10	5	1111315	5	3	0	0	2	0	3	4	0	120	98	0	15	87
fixed	4	10	6	1114214	6	4	4	1	0	930	1	4	0	128	99	0	15	87
fixed	4	10	7	1115988	3	1	1	3	0	2455	2	4	0	104	100	0	15	87
fixed	4	10	8	1119355	2	3	3	1	0	920	1	4	0	120	101	0	15	87
fixed	4	10	9	1121294	3	2	0	2	2	0	3	4	0	112	101	0	16	86
fixed	4	10	10	1124692	1	4	4	1	0	1118	1	4	0	128	102	0	16	86
fixed	4	10	11	1126599	5	2	0	1	2	0	3	4	0	112	102	0	17	86
fixed	4	10	12	1129586	4	3	3	1	0	247	1	4	0	120	103	0	17	86
fixed	5	1	1	1130995	4	1	0	1	2	0	3	4	0	136	0	0	1	0
fixed	5	1	2	1134455	1	2	0	1	2	0	3	4	0	144	0	0	2	0
fixed	5	1	3	1137873	6	4	4	2	0	1120	2	4	0	160	1	0	2	33
fixed	5	1	4	1139583	2	1	1	1	0	1367	1	4	0	136	2	0	2	50
fixed	5	1	5	1141694	5	3	3	1	0	1734	1	4	0	152	3	0	2	60
fixed	5	1	6	1144055	6	4	4	1	0	1002	1	4	0	160	4	0	2	67
fixed	5	1	7	1146011	3	1	1	1	0	1807	1	4	0	136	5	0	2	71
fixed	5	1	8	1148856	2	3	3	1	0	1182	1	4	0	152	6	0	2	75
fixed	5	1	9	1150549	3	2	2	1	0	1191	1	4	0	144	7	0	2	78
fixed	5	1	10	1152468	1	4	0	1	2	0	3	4	0	160	7	0	3	70
fixed	5	1	11	1155386	5	2	2	1	0	2410	1	4	0	144	8	0	3	73
fixed	5	1	12	1158571	4	3	0	0	2	0	3	4	0	152	8	0	4	67
fixed	5	2	1	1162191	4	1	0	0	2	0	3	4	0	136	8	0	5	62
fixed	5	2	2	1165633	1	2	0	0	2	0	3	4	0	144	8	0	6	57
fixed	5	2	3	1168899	6	4	4	1	0	870	1	4	0	160	9	0	6	60
fixed	5	2	4	1170409	2	1	1	1	0	997	1	4	0	136	10	0	6	63
fixed	5	2	5	1172355	5	3	3	1	0	1515	1	4	0	152	11	0	6	65
fixed	5	2	6	1174732	6	4	4	2	0	839	2	4	0	160	12	0	6	67
fixed	5	2	7	1176430	3	1	1	1	0	783	1	4	0	136	13	0	6	68
fixed	5	2	8	1177693	2	3	3	1	0	2009	1	4	0	152	14	0	6	70
fixed	5	2	9	1180672	3	2	2	1	0	939	1	4	0	144	15	0	6	71
fixed	5	2	10	1182252	1	4	4	1	0	848	1	4	0	160	16	0	6	73
fixed	5	2	11	1183590	5	2	2	1	0	1048	1	4	0	144	17	0	6	74
fixed	5	2	12	1184984	4	3	3	1	0	1276	1	4	0	152	18	0	6	75
fixed	5	3	1	1186885	4	1	1	1	0	828	1	4	0	136	19	0	6	76
fixed	5	3	2	1188319	1	2	0	1	2	0	3	4	0	144	19	0	7	73
fixed	5	3	3	1191690	6	4	4	2	0	992	2	4	0	160	20	0	7	74
fixed	5	3	4	1193623	2	1	1	1	0	742	1	4	0	136	21	0	7	75
fixed	5	3	5	1194799	5	3	3	1	0	1573	1	4	0	152	22	0	7	76
fixed	5	3	6	1197351	6	4	4	1	0	969	1	4	0	160	23	0	7	77
fixed	5	3	7	1198863	3	1	1	1	0	1080	1	4	0	136	24	0	7	77
fixed	5	3	8	1200620	2	3	3	1	0	1646	1	4	0	152	25	0	7	78
fixed	5	3	9	1202831	3	2	2	1	0	1128	1	4	0	144	26	0	7	79
fixed	5	3	10	1204746	1	4	4	1	0	943	1	4	0	160	27	0	7	79
fixed	5	3	11	1206113	5	2	2	1	0	1029	1	4	0	144	28	0	7	80
fixed	5	3	12	1207725	4	3	3	1	0	1505	1	4	0	152	29	0	7	81
fixed	5	4	1	1210058	4	1	1	1	0	942	1	4	0	136	30	0	7	81
fixed	5	4	2	1211318	1	2	0	2	2	0	3	4	0	144	30	0	8	79
fixed	5	4	3	1214715	6	4	4	1	0	977	1	4	0	160	31	0	8	79
fixed	5	4	4	1216600	2	1	1	1	0	953	1	4	0	136	32	0	8	80
fixed	5	4	5	1217938	5	3	3	1	0	1137	1	4	0	152	33	0	8	80
fixed	5	4	6	1219541	6	4	4	1	0	1229	1	4	0	160	34	0	8	81
fixed	5	4	7	1221098	3	1	1	1	0	1795	1	4	0	136	35	0	8	81
fixed	5	4	8	1223750	2	3	3	1	0	1730	1	4	0	152	36	0	8	82
fixed	5	4	9	1226493	3	2	2	1	0	1270	1	4	0	144	37	0	8	82
fixed	5	4	10	1228612	1	4	4	1	0	1220	1	4	0	160	38	0	8	83
fixed	5	4	11	1230243	5	2	2	1	0	1103	1	4	0	144	39	0	8	83
fixed	5	4	12	1232171	4	3	3	1	0	1454	1	4	0	152	40	0	8	83
fixed	5	5	1	1234201	4	1	1	1	0	1215	1	4	0	136	41	0	8	84
fixed	5	5	2	1236443	1	2	2	2	0	1081	2	4	0	144	42	0	8	84
fixed	5	5	3	1237813	6	4	4	2	0	1327	2	4	0	160	43	0	8	84
fixed	5	5	4	1239614	2	1	1	1	0	1218	1	4	0	136	44	0	8	85
fixed	5	5	5	1241353	5	3	3	1	0	1785	1	4	0	152	45	0	8	85
fixed	5	5	6	1243939	6	4	4	1	0	1043	1	4	0	160	46	0	8	85
fixed	5	5	7	1245754	3	1	1	1	0	958	1	4	0	136	47	0	8	85
fixed	5	5	8	1247630	2	3	3	1	0	615	1	4	0	152	48	0	8	86
fixed	5	5	9	1249231	3	2	2	3	0	1595	2	4	0	144	49	0	8	86
fixed	5	5	10	1251689	1	4	4	1	0	1019	1	4	0	160	50	0	8	86
fixed	5	5	11	1253069	5	2	2	1	0	1432	1	4	0	144	51	0	8	86
fixed	5	5	12	1255053	4	3	3	3	0	2212	2	4	0	152	52	0	8	87
fixed	5	6	1	1258260	4	1	1	1	0	1148	1	4	0	136	53	0	8	87
fixed	5	6	2	1259702	1	2	0	1	2	0	3	4	0	144	53	0	9	85
fixed	5	6	3	1262779	6	4	4	1	0	1053	1	4	0	160	54	0	9	86
fixed	5	6	4	1264745	2	1	1	1	0	1434	1	4	0	136	55	0	9	86
fixed	5	6	5	1266755	5	3	3	1	0	1093	1	4	0	152	56	0	9	86
fixed	5	6	6	1268530	6	4	4	1	0	994	1	4	0	160	57	0	9	86
fixed	5	6	7	1270469	3	1	1	1	0	1079	1	4	0	136	58	0	9	87
fixed	5	6	8	1271872	2	3	3	1	0	2340	1	4	0	152	59	0	9	87
fixed	5	6	9	1275025	3	2	2	1	0	887	1	4	0	144	60	0	9	87
fixed	5	6	10	1276758	1	4	0	2	2	0	3	4	0	160	60	0	10	86
fixed	5	6	11	1280092	5	2	2	1	0	1768	1	4	0	144	61	0	10	86
fixed	5	6	12	1282501	4	3	3	1	0	1186	1	4	0	152	62	0	10	86
fixed	5	7	1	1284274	4	1	1	2	0	1295	2	4	0	136	63	0	10	86
fixed	5	7	2	1286087	1	2	2	1	0	962	1	4	0	144	64	0	10	86
fixed	5	7	3	1287561	6	4	4	1	0	2140	1	4	0	160	65	0	10	87
fixed	5	7	4	1290647	2	1	1	1	0	865	1	4	0	136	66	0	10	87
fixed	5	7	5	1291942	5	3	3	1	0	1802	1	4	0	152	67	0	10	87
fixed	5	7	6	1294303	6	4	4	1	0	998	1	4	0	160	68	0	10	87
fixed	5	7	7	1296014	3	1	1	1	0	1134	1	4	0	136	69	0	10	87
fixed	5	7	8	1297679	2	3	3	1	0	1191	1	4	0	152	70	0	10	88
fixed	5	7	9	1299568	3	2	2	1	0	1967	1	4	0	144	71	0	10	88
fixed	5	7	10	1301982	1	4	4	1	0	1456	1	4	0	160	72	0	10	88
fixed	5	7	11	1304437	5	2	2	1	0	33	1	4	0	144	73	0	10	88
fixed	5	7	12	1305082	4	3	3	2	0	1221	2	4	0	152	74	0	10	88
fixed	5	8	1	1307381	4	1	1	2	0	1260	2	4	0	136	75	0	10	88
fixed	5	8	2	1309088	1	2	2	2	0	2412	2	4	0	144	76	0	10	88
fixed	5	8	3	1312421	6	4	4	1	0	1671	1	4	0	160	77	0	10	89
fixed	5	8	4	1314712	2	1	1	1	0	1510	1	4	0	136	78	0	10	89
fixed	5	8	5	1317206	5	3	3	1	0	92	1	4	0	152	79	0	10	89
fixed	5	8	6	1317611	6	4	4	1	0	2147	1	4	0	160	80	0	10	89
fixed	5	8	7	1320255	3	1	1	2	0	1019	2	4	0	136	81	0	10	89
fixed	5	8	8	1321570	2	3	3	1	0	1731	1	4	0	152	82	0	10	89
fixed	5	8	9	1323864	3	2	0	1	2	0	3	4	0	144	82	0	11	88
fixed	5	8	10	1327299	1	4	0	1	2	0	3	4	0	160	82	0	12	87
fixed	5	8	11	1330479	5	2	0	0	2	0	3	4	0	144	82	0	13	86
fixed	5	8	12	1333550	4	3	0	1	2	0	3	4	0	152	82	0	14	85
fixed	5	9	1	1336970	4	1	1	3	0	1911	2	4	0	136	83	0	14	86
fixed	5	9	2	1339245	1	2	0	2	2	0	3	4	0	144	83	0	15	85
fixed	5	9	3	1342183	6	4	4	1	0	946	1	4	0	160	84	0	15	85
fixed	5	9	4	1343667	2	1	0	1	2	0	3	4	0	136	84	0	16	84
fixed	5	9	5	1346820	5	3	0	1	2	0	3	4	0	152	84	0	17	83
fixed	5	9	6	1349726	6	4	4	1	0	867	1	4	0	160	85	0	17	83
fixed	5	9	7	1350928	3	1	1	3	0	1248	2	4	0	136	86	0	17	83
fixed	5	9	8	1353085	2	3	3	1	0	1356	1	4	0	152	87	0	17	84
fixed	5	9	9	1354869	3	2	0	2	2	0	3	4	0	144	87	0	18	83
fixed	5	9	10	1357757	1	4	4	2	0	966	2	4	0	160	88	0	18	83
fixed	5	9	11	1359045	5	2	0	1	2	0	3	4	0	144	88	0	19	82
fixed	5	9	12	1362049	4	3	3	1	0	432	1	4	0	152	89	0	19	82
fixed	5	10	1	1363402	4	1	1	2	0	1271	2	4	0	136	90	0	19	83
fixed	5	10	2	1365173	1	2	0	1	2	0	3	4	0	144	90	0	20	82
fixed	5	10	3	1368047	6	4	4	1	0	1042	1	4	0	160	91	0	20	82
fixed	5	10	4	1370090	2	1	1	1	0	1748	1	4	0	136	92	0	20	82
fixed	5	10	5	1372695	5	3	3	1	0	1670	1	4	0	152	93	0	20	82
fixed	5	10	6	1375201	6	4	4	1	0	1115	1	4	0	160	94	0	20	82
fixed	5	10	7	1376684	3	1	1	1	0	1900	1	4	0	136	95	0	20	83
fixed	5	10	8	1379493	2	3	3	1	0	1478	1	4	0	152	96	0	20	83
fixed	5	10	9	1381867	3	2	2	1	0	1065	1	4	0	144	97	0	20	83
fixed	5	10	10	1383673	1	4	4	1	0	997	1	4	0	160	98	0	20	83
fixed	5	10	11	1385537	5	2	0	1	2	0	3	4	0	144	98	0	21	82
fixed	5	10	12	1388863	4	3	3	2	0	1681	2	4	0	152	99	0	21	83
random	6	1	1	1494654	6	1	1	1	0	1768	1	4	0	168	1	0	0	100
random	6	1	2	1496715	4	4	4	1	0	1001	1	4	0	192	2	0	0	100
random	6	1	3	1498585	2	2	2	1	0	969	1	4	0	176	3	0	0	100
random	6	1	4	1500120	3	3	3	1	0	1056	1	4	0	184	4	0	0	100
random	6	1	5	1502172	5	2	2	1	0	1058	1	4	0	176	5	0	0	100
random	6	1	6	1503516	1	4	4	1	0	977	1	4	0	192	6	0	0	100
random	6	1	7	1505193	6	1	1	1	0	906	1	4	0	168	7	0	0	100
random	6	1	8	1506959	2	3	3	1	0	1175	1	4	0	184	8	0	0	100
random	6	1	9	1508609	4	2	2	1	0	977	1	4	0	176	9	0	0	100
random	6	1	10	1510236	1	1	1	1	0	1108	1	4	0	168	10	0	0	100
random	6	1	11	1512267	5	4	4	1	0	950	1	4	0	192	11	0	0	100
random	6	1	12	1514001	3	3	3	1	0	1165	1	4	0	184	12	0	0	100
random	6	1	13	1516393	5	2	2	1	0	959	1	4	0	176	13	0	0	100
random	6	1	14	1518394	1	4	4	1	0	1003	1	4	0	192	14	0	0	100
random	6	1	15	1520411	3	1	1	1	0	917	1	4	0	168	15	0	0	100
random	6	1	16	1522039	4	3	3	1	0	1072	1	4	0	184	16	0	0	100
random	6	1	17	1523770	6	4	4	1	0	943	1	4	0	192	17	0	0	100
random	6	1	18	1525173	2	1	1	1	0	964	1	4	0	168	18	0	0	100
random	6	1	19	1526434	5	3	3	1	0	1758	1	4	0	184	19	0	0	100
random	6	1	20	1528798	2	2	2	1	0	1554	1	4	0	176	20	0	0	100
random	6	1	21	1531214	3	3	3	1	0	1523	1	4	0	184	21	0	0	100
random	6	1	22	1533457	6	1	1	1	0	1460	1	4	0	168	22	0	0	100
random	6	1	23	1535441	4	2	2	1	0	984	1	4	0	176	23	0	0	100
random	6	1	24	1536760	1	4	4	1	0	1056	1	4	0	192	24	0	0	100
random	6	1	25	1538514	4	3	3	1	0	1718	1	4	0	184	25	0	0	100
random	6	1	26	1541182	2	1	1	1	0	958	1	4	0	168	26	0	0	100
random	6	1	27	1543144	5	2	2	1	0	1490	1	4	0	176	27	0	0	100
random	6	1	28	1545224	6	4	4	1	0	1106	1	4	0	192	28	0	0	100
random	6	1	29	1547201	1	3	3	1	0	1502	1	4	0	184	29	0	0	100
random	6	1	30	1549142	5	2	2	1	0	980	1	4	0	176	30	0	0	100
random	6	1	31	1550817	2	1	1	1	0	965	1	4	0	168	31	0	0	100
random	6	1	32	1552092	3	3	3	1	0	1312	1	4	0	184	32	0	0	100
random	6	1	33	1554154	6	4	4	2	0	1216	2	4	0	192	33	0	0	100
random	6	1	34	1556334	4	2	2	1	0	1956	1	4	0	176	34	0	0	100
random	6	1	35	1559330	3	4	4	1	0	1356	1	4	0	192	35	0	0	100
random	6	1	36	1561146	1	1	1	1	0	968	1	4	0	168	36	0	0	100
random	6	1	37	1562657	3	4	4	1	0	1392	1	4	0	192	37	0	0	100
random	6	1	38	1565075	5	3	3	1	0	2170	1	4	0	184	38	0	0	100
random	6	1	39	1567764	6	1	1	1	0	1240	1	4	0	168	39	0	0	100
random	6	1	40	1569776	1	2	2	1	0	794	1	4	0	176	40	0	0	100
random	6	1	41	1571459	2	3	3	1	0	1059	1	4	0	184	41	0	0	100
random	6	1	42	1573236	4	4	4	1	0	976	1	4	0	192	42	0	0	100
random	6	1	43	1574947	1	2	0	1	2	0	3	4	0	176	42	0	1	98
random	6	1	44	1578273	6	3	3	1	0	1555	1	4	0	184	43	0	1	98
random	6	1	45	1580137	3	1	1	1	0	1195	1	4	0	168	44	0	1	98
random	6	1	46	1582092	4	4	4	1	0	1921	1	4	0	192	45	0	1	98
random	6	1	47	1584557	2	2	2	1	0	1129	1	4	0	176	46	0	1	98
random	6	1	48	1586089	5	1	1	1	0	1047	1	4	0	168	47	0	1	98
random	6	1	49	1587936	2	3	3	1	0	953	1	4	0	184	48	0	1	98
random	6	1	50	1589934	3	1	1	1	0	1069	1	4	0	168	49	0	1	98
random	6	1	51	1591717	1	4	4	2	0	1185	2	4	0	192	50	0	1	98
random	6	1	52	1593724	5	3	3	1	0	2068	1	4	0	184	51	0	1	98
random	6	1	53	1596609	3	2	2	1	0	1186	1	4	0	176	52	0	1	98
random	6	1	54	1598714	6	4	4	2	0	1320	2	4	0	192	53	0	1	98
random	6	1	55	1600705	4	2	2	2	0	1156	2	4	0	176	54	0	1	98
random	6	1	56	1602323	1	1	1	1	0	1088	1	4	0	168	55	0	1	98
random	6	1	57	1604316	5	4	4	2	0	1995	2	4	0	192	56	0	1	98
random	6	1	58	1606897	2	1	1	1	0	1734	1	4	0	168	57	0	1	98
random	6	1	59	1609178	6	2	2	1	0	973	1	4	0	176	58	0	1	98
random	6	1	60	1610968	4	3	0	1	2	0	3	4	0	184	58	0	2	97
random	6	1	61	1614534	1	2	2	1	0	1402	1	4	0	176	59	0	2	97
random	6	1	62	1616260	6	4	4	2	0	1073	2	4	0	192	60	0	2	97
random	6	1	63	1618181	4	1	1	1	0	1640	1	4	0	168	61	0	2	97
random	6	1	64	1620570	2	2	2	1	0	1115	1	4	0	176	62	0	2	97
random	6	1	65	1621981	4	3	3	1	0	1159	1	4	0	184	63	0	2	97
random	6	1	66	1623580	3	1	1	1	0	2211	1	4	0	168	64	0	2	97
random	6	1	67	1626788	1	3	3	1	0	1060	1	4	0	184	65	0	2	97
random	6	1	68	1628485	5	4	4	1	0	1115	1	4	0	192	66	0	2	97
random	6	1	69	1630025	2	2	2	1	0	1162	1	4	0	176	67	0	2	97
random	6	1	70	1632053	3	1	1	2	0	1133	2	4	0	168	68	0	2	97
random	6	1	71	1633641	5	4	4	2	0	1617	2	4	0	192	69	0	2	97
random	6	1	72	1636075	6	3	3	1	0	906	1	4	0	184	70	0	2	97
random	6	1	73	1638159	2	1	1	2	0	1026	2	4	0	168	71	0	2	97
random	6	1	74	1640136	5	3	3	1	0	1534	1	4	0	184	72	0	2	97
random	6	1	75	1642160	1	4	4	1	0	1224	1	4	0	192	73	0	2	97
random	6	1	76	1644137	6	2	2	3	0	2060	2	4	0	176	74	0	2	97
random	6	1	77	1646660	2	1	1	2	0	1490	2	4	0	168	75	0	2	97
random	6	1	78	1648499	4	4	0	0	2	0	3	4	0	192	75	0	3	96
random	6	1	79	1651477	3	2	2	1	0	854	1	4	0	176	76	0	3	96
random	6	1	80	1653285	4	3	0	0	2	0	3	4	0	184	76	0	4	95
random	6	1	81	1656521	1	4	4	1	0	1512	1	4	0	192	77	0	4	95
random	6	1	82	1658891	5	1	1	2	0	883	2	4	0	168	78	0	4	95
random	6	1	83	1660539	3	2	2	2	0	1374	2	4	0	176	79	0	4	95
random	6	1	84	1662905	6	3	3	1	0	178	1	4	0	184	80	0	4	95
random	6	1	85	1664206	3	2	2	1	0	1458	1	4	0	176	81	0	4	95
random	6	1	86	1666322	1	3	3	1	0	1193	1	4	0	184	82	0	4	95
random	6	1	87	1668114	4	4	4	1	0	1141	1	4	0	192	83	0	4	95
random	6	1	88	1670087	2	1	1	1	0	1433	1	4	0	168	84	0	4	95
random	6	1	89	1672507	6	4	4	1	0	2483	1	4	0	192	85	0	4	96
random	6	1	90	1675641	3	3	3	1	0	1174	1	4	0	184	86	0	4	96
random	6	1	91	1677833	5	4	4	1	0	1218	1	4	0	192	87	0	4	96
random	6	1	92	1680009	1	2	0	3	2	0	3	4	0	176	87	0	5	95
random	6	1	93	1683007	5	1	1	1	0	1126	1	4	0	168	88	0	5	95
random	6	1	94	1684464	4	3	0	0	2	0	3	4	0	184	88	0	6	94
random	6	1	95	1687427	6	1	1	3	0	1299	2	4	0	168	89	0	6	94
random	6	1	96	1689602	2	2	0	2	2	0	3	4	0	176	89	0	7	93
random	6	1	97	1693328	4	3	3	1	0	1417	1	4	0	184	90	0	7	93
random	6	1	98	1695327	3	2	2	2	0	1933	2	4	0	176	91	0	7	93
random	6	1	99	1697785	6	3	0	0	2	0	3	4	0	184	91	0	8	92
random	6	1	100	1701000	1	4	4	1	0	1028	1	4	0	192	92	0	8	92
random	6	1	101	1702390	4	1	1	1	0	1673	1	4	0	168	93	0	8	92
random	6	1	102	1705057	5	2	0	2	2	0	3	4	0	176	93	0	9	91
random	6	1	103	1708035	2	4	4	2	0	1938	2	4	0	192	94	0	9	91
random	6	1	104	1710462	3	1	1	1	0	1980	1	4	0	168	95	0	9	91
random	6	1	105	1712734	1	3	3	1	0	1515	1	4	0	184	96	0	9	91
random	6	1	106	1714878	2	2	2	2	0	1000	2	4	0	176	97	0	9	92
random	6	1	107	1716462	5	4	4	2	0	1134	2	4	0	192	98	0	9	92
random	6	1	108	1718018	6	1	1	1	0	1612	1	4	0	168	99	0	9	92
random	6	1	109	1720895	5	4	4	1	0	1369	1	4	0	192	100	0	9	92
random	6	1	110	1722794	6	3	3	1	0	321	1	4	0	184	101	0	9	92
random	6	1	111	1723883	2	2	0	0	2	0	3	4	0	176	101	0	10	91
random	6	1	112	1727110	3	1	1	1	0	1106	1	4	0	168	102	0	10	91
random	6	1	113	1729240	1	2	2	1	0	2240	1	4	0	176	103	0	10	91
random	6	1	114	1732186	2	3	3	1	0	1084	1	4	0	184	104	0	10	91
random	6	1	115	1733606	3	1	1	2	0	1039	2	4	0	168	105	0	10	91
random	6	1	116	1735255	4	4	4	2	0	1185	2	4	0	192	106	0	10	91
random	6	1	117	1737117	6	1	1	3	0	1978	2	4	0	168	107	0	10	91
random	6	1	118	1739453	5	3	3	1	0	1160	1	4	0	184	108	0	10	92
random	6	1	119	1741258	1	4	4	4	0	1291	2	4	0	192	109	0	10	92
random	6	1	120	1743023	4	2	0	1	2	0	3	4	0	176	109	0	11	91
fixed	7	1	1	1746355	4	1	0	0	2	0	3	4	0	200	0	0	1	0
fixed	7	1	2	1749271	1	2	0	2	2	0	3	4	0	208	0	0	2	0
fixed	7	1	3	1752055	6	4	4	2	0	1305	2	4	0	224	1	0	2	33
fixed	7	1	4	1754113	2	1	1	1	0	1570	1	4	0	200	2	0	2	50
fixed	7	1	5	1756399	5	3	3	1	0	1537	1	4	0	216	3	0	2	60
fixed	7	1	6	1758796	6	4	4	3	0	1116	2	4	0	224	4	0	2	67
fixed	7	1	7	1760625	3	1	1	2	0	1638	2	4	0	200	5	0	2	71
fixed	7	1	8	1762804	2	3	3	1	0	1674	1	4	0	216	6	0	2	75
fixed	7	1	9	1764779	3	2	2	2	0	1287	2	4	0	208	7	0	2	78
fixed	7	1	10	1766561	1	4	4	2	0	1163	2	4	0	224	8	0	2	80
fixed	7	1	11	1768465	5	2	0	1	2	0	3	4	0	208	8	0	3	73
fixed	7	1	12	1771478	4	3	3	1	0	1059	1	4	0	216	9	0	3	75
fixed	7	2	1	1773274	4	1	0	2	2	0	3	4	0	200	0	0	1	0
fixed	7	2	2	1776348	1	2	0	2	2	0	3	4	0	208	0	0	2	0
fixed	7	2	3	1779666	6	4	4	1	0	1072	1	4	0	224	1	0	2	7
fixed	7	2	4	1781578	2	1	1	4	0	2303	2	4	0	200	2	0	2	13
fixed	7	2	5	1784267	5	3	0	0	2	0	3	4	0	216	2	0	3	12
fixed	7	2	6	1787334	6	4	4	1	0	1532	1	4	0	224	3	0	3	17
fixed	7	2	7	1789765	3	1	1	1	0	1372	1	4	0	200	4	0	3	21
fixed	7	2	8	1792020	2	3	3	1	0	1853	1	4	0	216	5	0	3	25
fixed	7	2	9	1794381	3	2	2	1	0	1417	1	4	0	208	6	0	3	29
fixed	7	2	10	1796354	1	4	4	1	0	1661	1	4	0	224	7	0	3	32
fixed	7	2	11	1798867	5	2	0	1	2	0	3	4	0	208	7	0	4	30
fixed	7	2	12	1801890	4	3	3	1	0	139	1	4	0	216	8	0	4	33
fixed	7	3	1	1802913	4	1	1	2	0	975	2	4	0	200	1	0	0	4
fixed	7	3	2	1804472	1	2	2	1	0	2102	1	4	0	208	2	0	0	8
fixed	7	3	3	1807297	6	4	4	2	0	1238	2	4	0	224	3	0	0	11
fixed	7	3	4	1809428	2	1	1	1	0	1939	1	4	0	200	4	0	0	14
fixed	7	3	5	1812282	5	3	3	1	0	1867	1	4	0	216	5	0	0	17
fixed	7	3	6	1815174	6	4	4	2	0	2184	2	4	0	224	6	0	0	20
fixed	7	3	7	1817659	3	1	1	1	0	1351	1	4	0	200	7	0	0	23
fixed	7	3	8	1819355	2	3	0	0	2	0	3	4	0	216	7	0	1	22
fixed	7	3	9	1822252	3	2	2	1	0	949	1	4	0	208	8	0	1	24
fixed	7	3	10	1823512	1	4	4	2	0	1399	2	4	0	224	9	0	1	26
fixed	7	3	11	1825667	5	2	2	2	0	1180	2	4	0	208	10	0	1	29
fixed	7	3	12	1827350	4	3	3	1	0	252	1	4	0	216	11	0	1	31
fixed	7	4	1	1828743	4	1	1	1	0	937	1	4	0	200	1	0	0	3
fixed	7	4	2	1830697	1	2	0	1	2	0	3	4	0	208	1	0	1	3
fixed	7	4	3	1834178	6	4	4	2	0	947	2	4	0	224	2	0	1	5
fixed	7	4	4	1835582	2	1	1	1	0	1512	1	4	0	200	3	0	1	8
fixed	7	4	5	1837905	5	3	3	1	0	1718	1	4	0	216	4	0	1	10
fixed	7	4	6	1840398	6	4	4	1	0	1700	1	4	0	224	5	0	1	12
fixed	7	4	7	1843080	3	1	1	1	0	1186	1	4	0	200	6	0	1	14
fixed	7	4	8	1845004	2	3	3	1	0	537	1	4	0	216	7	0	1	16
fixed	7	4	9	1846140	3	2	2	2	0	1777	2	4	0	208	8	0	1	18
fixed	7	4	10	1848771	1	4	0	1	2	0	3	4	0	224	8	0	2	17
fixed	7	4	11	1852056	5	2	0	0	2	0	3	4	0	208	8	0	3	17
fixed	7	4	12	1855195	4	3	3	1	0	1025	1	4	0	216	9	0	3	19
fixed	7	5	1	1857046	4	1	1	1	0	843	1	4	0	200	1	0	0	2
fixed	7	5	2	1858405	1	2	2	1	0	1305	1	4	0	208	2	0	0	4
fixed	7	5	3	1860404	6	4	4	2	0	1124	2	4	0	224	3	0	0	6
fixed	7	5	4	1862367	2	1	1	1	0	2001	1	4	0	200	4	0	0	8
fixed	7	5	5	1865015	5	3	3	1	0	1409	1	4	0	216	5	0	0	9
fixed	7	5	6	1866751	6	4	0	1	2	0	3	4	0	224	5	0	1	9
fixed	7	5	7	1869938	3	1	0	0	2	0	3	4	0	200	5	0	2	9
fixed	7	5	8	1873061	2	3	0	1	2	0	3	4	0	216	5	0	3	9
fixed	7	5	9	1876456	3	2	0	0	2	0	3	4	0	208	5	0	4	9
fixed	7	5	10	1879739	1	4	4	1	0	1082	1	4	0	224	6	0	4	10
fixed	7	5	11	1881125	5	2	0	0	2	0	3	4	0	208	6	0	5	10
fixed	7	5	12	1884107	4	3	3	1	0	809	1	4	0	216	7	0	5	12
fixed	7	6	1	1886151	4	1	0	2	2	0	3	4	0	200	0	0	1	0
fixed	7	6	2	1889085	1	2	0	1	2	0	3	4	0	208	0	0	2	0
fixed	7	6	3	1892131	6	4	4	1	0	1076	1	4	0	224	1	0	2	2
fixed	7	6	4	1894150	2	1	0	1	2	0	3	4	0	200	1	0	3	2
fixed	7	6	5	1897445	5	3	3	1	0	1515	1	4	0	216	2	0	3	3
fixed	7	6	6	1899439	6	4	4	1	0	927	1	4	0	224	3	0	3	5
fixed	7	6	7	1900857	3	1	1	1	0	2275	1	4	0	200	4	0	3	6
fixed	7	6	8	1904117	2	3	3	1	0	1417	1	4	0	216	5	0	3	7
fixed	7	6	9	1906339	3	2	0	2	2	0	3	4	0	208	5	0	4	7
fixed	7	6	10	1909675	1	4	4	1	0	1037	1	4	0	224	6	0	4	9
fixed	7	6	11	1911105	5	2	0	2	2	0	3	4	0	208	6	0	5	8
fixed	7	6	12	1913934	4	3	3	1	0	1321	1	4	0	216	7	0	5	10
fixed	7	7	1	1915824	4	1	0	1	2	0	3	4	0	200	0	0	1	0
fixed	7	7	2	1918766	1	2	0	1	2	0	3	4	0	208	0	0	2	0
fixed	7	7	3	1922177	6	4	4	1	0	1132	1	4	0	224	1	0	2	1
fixed	7	7	4	1924222	2	1	1	1	0	1598	1	4	0	200	2	0	2	3
fixed	7	7	5	1926206	5	3	3	1	0	1834	1	4	0	216	3	0	2	4
fixed	7	7	6	1928742	6	4	4	2	0	1246	2	4	0	224	4	0	2	5
fixed	7	7	7	1930651	3	1	1	1	0	949	1	4	0	200	5	0	2	6
fixed	7	7	8	1931917	2	3	0	0	2	0	3	4	0	216	5	0	3	6
fixed	7	7	9	1935279	3	2	2	1	0	809	1	4	0	208	6	0	3	7
fixed	7	7	10	1936971	1	4	4	1	0	1034	1	4	0	224	7	0	3	9
fixed	7	7	11	1938471	5	2	2	1	0	1186	1	4	0	208	8	0	3	10
fixed	7	7	12	1940169	4	3	3	1	0	1650	1	4	0	216	9	0	3	11
fixed	7	8	1	1942456	4	1	1	1	0	1137	1	4	0	200	1	0	0	1
fixed	7	8	2	1944260	1	2	2	1	0	989	1	4	0	208	2	0	0	2
fixed	7	8	3	1945734	6	4	4	1	0	2270	1	4	0	224	3	0	0	3
fixed	7	8	4	1948736	2	1	1	1	0	1055	1	4	0	200	4	0	0	5
fixed	7	8	5	1950224	5	3	3	1	0	1864	1	4	0	216	5	0	0	6
fixed	7	8	6	1952677	6	4	4	1	0	1313	1	4	0	224	6	0	0	7
fixed	7	8	7	1954474	3	1	1	2	0	852	2	4	0	200	7	0	0	8
fixed	7	8	8	1956295	2	3	3	1	0	607	1	4	0	216	8	0	0	9
fixed	7	8	9	1957612	3	2	2	1	0	1343	1	4	0	208	9	0	0	10
fixed	7	8	10	1959357	1	4	4	2	0	1582	2	4	0	224	10	0	0	11
fixed	7	8	11	1961603	5	2	2	1	0	1086	1	4	0	208	11	0	0	12
fixed	7	8	12	1963320	4	3	0	1	2	0	3	4	0	216	11	0	1	11
fixed	7	9	1	1967033	4	1	1	1	0	1112	1	4	0	200	1	0	0	1
fixed	7	9	2	1968982	1	2	0	2	2	0	3	4	0	208	1	0	1	1
fixed	7	9	3	1972145	6	4	4	2	0	1063	2	4	0	224	2	0	1	2
fixed	7	9	4	1973937	2	1	1	1	0	1084	1	4	0	200	3	0	1	3
fixed	7	9	5	1975703	5	3	3	1	0	1761	1	4	0	216	4	0	1	4
fixed	7	9	6	1977932	6	4	4	2	0	1003	2	4	0	224	5	0	1	5
fixed	7	9	7	1979644	3	1	1	1	0	1362	1	4	0	200	6	0	1	6
fixed	7	9	8	1981319	2	3	3	1	0	915	1	4	0	216	7	0	1	7
fixed	7	9	9	1983143	3	2	2	2	0	1062	2	4	0	208	8	0	1	8
fixed	7	9	10	1984632	1	4	4	1	0	2127	1	4	0	224	9	0	1	8
fixed	7	9	11	1987517	5	2	2	1	0	1268	1	4	0	208	10	0	1	9
fixed	7	9	12	1989325	4	3	3	1	0	1120	1	4	0	216	11	0	1	10
fixed	7	10	1	1991342	4	1	1	1	0	1058	1	4	0	200	1	0	0	1
fixed	7	10	2	1993328	1	2	2	2	0	1750	2	4	0	208	2	0	0	2
fixed	7	10	3	1996064	6	4	4	2	0	955	2	4	0	224	3	0	0	3
fixed	7	10	4	1997961	2	1	1	3	0	1978	2	4	0	200	4	0	0	4
fixed	7	10	5	2000796	5	3	3	1	0	1842	1	4	0	216	5	0	0	4
fixed	7	10	6	2003113	6	4	4	2	0	1128	2	4	0	224	6	0	0	5
fixed	7	10	7	2004525	3	1	1	1	0	1756	1	4	0	200	7	0	0	6
fixed	7	10	8	2006704	2	3	0	0	2	0	3	4	0	216	7	0	1	6
fixed	7	10	9	2009959	3	2	0	1	2	0	3	4	0	208	7	0	2	6
fixed	7	10	10	2013442	1	4	4	1	0	1307	1	4	0	224	8	0	2	7
fixed	7	10	11	2015482	5	2	0	1	2	0	3	4	0	208	8	0	3	7
fixed	7	10	12	2018594	4	3	3	1	0	760	1	4	0	216	9	0	3	8
