type	block	sequ.	trial	time	Pos.	Color	Button	NumRsp	Resp_1	RT_1	R_Code	Resp_2	RT_2	Trigg.	n_hit	n_inc	n_miss	score_%

random	1	1	1	2086	6	1	1	1	0	1720	1	4	0	8	1	0	0	100
random	1	1	2	4500	4	4	4	1	0	1298	1	4	0	32	2	0	0	100
random	1	1	3	6430	2	2	2	1	0	904	1	4	0	16	3	0	0	100
random	1	1	4	8253	3	3	3	1	0	683	1	4	0	24	4	0	0	100
random	1	1	5	9440	5	2	2	1	0	1184	1	4	0	16	5	0	0	100
random	1	1	6	11486	1	4	4	1	0	994	1	4	0	32	6	0	0	100
random	1	1	7	12855	6	1	1	1	0	984	1	4	0	8	7	0	0	100
random	1	1	8	14141	2	3	3	1	0	1466	1	4	0	24	8	0	0	100
random	1	1	9	16133	4	2	2	1	0	1189	1	4	0	16	9	0	0	100
random	1	1	10	18118	1	1	1	1	0	953	1	4	0	8	10	0	0	100
random	1	1	11	19918	5	4	4	1	0	717	1	4	0	32	11	0	0	100
random	1	1	12	21429	3	3	0	1	2	0	3	4	0	24	11	0	1	92
random	1	1	13	24559	5	2	2	1	0	960	1	4	0	16	12	0	1	92
random	1	1	14	26143	1	4	4	1	0	1109	1	4	0	32	13	0	1	93
random	1	1	15	28171	3	1	1	1	0	831	1	4	0	8	14	0	1	93
random	1	1	16	29706	4	3	0	1	2	0	3	4	0	24	14	0	2	88
random	1	1	17	32515	6	4	4	1	0	919	1	4	0	32	15	0	2	88
random	1	1	18	33740	2	1	1	1	0	995	1	4	0	8	16	0	2	89
random	1	1	19	35718	5	3	3	1	0	2248	1	4	0	24	17	0	2	89
random	1	1	20	38466	2	2	2	1	0	1435	1	4	0	16	18	0	2	90
random	1	1	21	40687	3	3	0	1	2	0	3	4	0	24	18	0	3	86
random	1	1	22	43842	6	1	1	1	0	967	1	4	0	8	19	0	3	86
random	1	1	23	45574	4	2	2	1	0	966	1	4	0	16	20	0	3	87
random	1	1	24	47221	1	4	4	1	0	1176	1	4	0	32	21	0	3	88
random	1	1	25	49020	4	3	0	0	2	0	3	4	0	24	21	0	4	84
random	1	1	26	51913	2	1	1	1	0	1114	1	4	0	8	22	0	4	85
random	1	1	27	53922	5	2	2	1	0	1309	1	4	0	16	23	0	4	85
random	1	1	28	55696	6	4	4	1	0	1282	1	4	0	32	24	0	4	86
random	1	1	29	57990	1	3	3	1	0	960	1	4	0	24	25	0	4	86
random	1	1	30	59903	5	2	2	1	0	1111	1	4	0	16	26	0	4	87
random	1	1	31	61719	2	1	1	1	0	1082	1	4	0	8	27	0	4	87
random	1	1	32	63647	3	3	3	1	0	1889	1	4	0	24	28	0	4	88
random	1	1	33	66207	6	4	4	1	0	820	1	4	0	32	29	0	4	88
random	1	1	34	67423	4	2	2	1	0	761	1	4	0	16	30	0	4	88
random	1	1	35	68985	3	4	4	1	0	790	1	4	0	32	31	0	4	89
random	1	1	36	70594	1	1	1	1	0	706	1	4	0	8	32	0	4	89
random	1	1	37	72445	3	4	4	1	0	868	1	4	0	32	33	0	4	89
random	1	1	38	73697	5	3	3	1	0	2351	1	4	0	24	34	0	4	89
random	1	1	39	76672	6	1	1	1	0	777	1	4	0	8	35	0	4	90
random	1	1	40	77788	1	2	2	1	0	705	1	4	0	16	36	0	4	90
random	1	1	41	79132	2	3	3	1	0	857	1	4	0	24	37	0	4	90
random	1	1	42	80522	4	4	4	1	0	734	1	4	0	32	38	0	4	90
random	1	1	43	82194	1	2	2	1	0	1055	1	4	0	16	39	0	4	91
random	1	1	44	84160	6	3	3	1	0	1100	1	4	0	24	40	0	4	91
random	1	1	45	85852	3	1	1	1	0	780	1	4	0	8	41	0	4	91
random	1	1	46	87211	4	4	4	1	0	747	1	4	0	32	42	0	4	91
random	1	1	47	88577	2	2	2	1	0	1025	1	4	0	16	43	0	4	91
random	1	1	48	89978	5	1	1	1	0	797	1	4	0	8	44	0	4	92
random	1	1	49	91959	2	3	0	1	2	0	3	4	0	24	44	0	5	90
random	1	1	50	95231	3	1	1	1	0	935	1	4	0	8	45	0	5	90
random	1	1	51	96568	1	4	4	1	0	902	1	4	0	32	46	0	5	90
random	1	1	52	98324	5	3	3	1	0	1876	1	4	0	24	47	0	5	90
random	1	1	53	101067	3	2	2	1	0	832	1	4	0	16	48	0	5	91
random	1	1	54	102259	6	4	4	1	0	909	1	4	0	32	49	0	5	91
random	1	1	55	103798	4	2	2	1	0	972	1	4	0	16	50	0	5	91
random	1	1	56	105737	1	1	1	1	0	658	1	4	0	8	51	0	5	91
random	1	1	57	107040	5	4	4	1	0	899	1	4	0	32	52	0	5	91
random	1	1	58	108289	2	1	1	1	0	886	1	4	0	8	53	0	5	91
random	1	1	59	110031	6	2	2	1	0	956	1	4	0	16	54	0	5	92
random	1	1	60	111477	4	3	3	1	0	1207	1	4	0	24	55	0	5	92
random	1	1	61	113395	1	2	2	1	0	1493	1	4	0	16	56	0	5	92
random	1	1	62	115288	6	4	4	1	0	781	1	4	0	32	57	0	5	92
random	1	1	63	116524	4	1	1	1	0	609	1	4	0	8	58	0	5	92
random	1	1	64	117953	2	2	0	1	2	0	3	4	0	16	58	0	6	91
random	1	1	65	121470	4	3	3	1	0	2440	1	4	0	24	59	0	6	91
random	1	1	66	124328	3	1	1	1	0	878	1	4	0	8	60	0	6	91
random	1	1	67	125636	1	3	3	1	0	2423	1	4	0	24	61	0	6	91
random	1	1	68	128583	5	4	4	1	0	970	1	4	0	32	62	0	6	91
random	1	1	69	129912	2	2	2	1	0	1002	1	4	0	16	63	0	6	91
random	1	1	70	131738	3	1	1	1	0	628	1	4	0	8	64	0	6	91
random	1	1	71	132883	5	4	4	1	0	916	1	4	0	32	65	0	6	92
random	1	1	72	134202	6	3	0	1	2	0	3	4	0	24	65	0	7	90
random	1	1	73	137454	2	1	1	1	0	1026	1	4	0	8	66	0	7	90
random	1	1	74	139307	5	3	3	1	0	1844	1	4	0	24	67	0	7	91
random	1	1	75	141931	1	4	4	1	0	693	1	4	0	32	68	0	7	91
random	1	1	76	143441	6	2	2	1	0	1109	1	4	0	16	69	0	7	91
random	1	1	77	145002	2	1	1	1	0	843	1	4	0	8	70	0	7	91
random	1	1	78	146836	4	4	4	1	0	685	1	4	0	32	71	0	7	91
random	1	1	79	148225	3	2	2	1	0	1003	1	4	0	16	72	0	7	91
random	1	1	80	149818	4	3	3	1	0	967	1	4	0	24	73	0	7	91
random	1	1	81	151599	1	4	4	1	0	708	1	4	0	32	74	0	7	91
random	1	1	82	152625	5	1	1	1	0	744	1	4	0	8	75	0	7	91
random	1	1	83	153869	3	2	0	1	2	0	3	4	0	16	75	0	8	90
random	1	1	84	157247	6	3	3	1	0	836	1	4	0	24	76	0	8	90
random	1	1	85	159174	3	2	2	1	0	1506	1	4	0	16	77	0	8	91
random	1	1	86	161237	1	3	3	1	0	1459	1	4	0	24	78	0	8	91
random	1	1	87	163524	4	4	4	1	0	874	1	4	0	32	79	0	8	91
random	1	1	88	165134	2	1	1	1	0	550	1	4	0	8	80	0	8	91
random	1	1	89	166392	6	4	4	1	0	697	1	4	0	32	81	0	8	91
random	1	1	90	167959	3	3	3	1	0	1999	1	4	0	24	82	0	8	91
random	1	1	91	170375	5	4	4	1	0	1000	1	4	0	32	83	0	8	91
random	1	1	92	171665	1	2	2	1	0	1186	1	4	0	16	84	0	8	91
random	1	1	93	173230	5	1	1	1	0	935	1	4	0	8	85	0	8	91
random	1	1	94	175070	4	3	0	1	2	0	3	4	0	24	85	0	9	90
random	1	1	95	178480	6	1	1	1	0	825	1	4	0	8	86	0	9	91
random	1	1	96	179693	2	2	2	1	0	1293	1	4	0	16	87	0	9	91
random	1	1	97	181562	4	3	3	1	0	1358	1	4	0	24	88	0	9	91
random	1	1	98	183473	3	2	2	1	0	925	1	4	0	16	89	0	9	91
random	1	1	99	185413	6	3	3	1	0	1411	1	4	0	24	90	0	9	91
random	1	1	100	187199	1	4	4	1	0	848	1	4	0	32	91	0	9	91
random	1	1	101	188664	4	1	1	1	0	633	1	4	0	8	92	0	9	91
random	1	1	102	189972	5	2	2	1	0	1186	1	4	0	16	93	0	9	91
random	1	1	103	191705	2	4	4	1	0	841	1	4	0	32	94	0	9	91
random	1	1	104	192917	3	1	1	1	0	854	1	4	0	8	95	0	9	91
random	1	1	105	194714	1	3	0	1	2	0	3	4	0	24	95	0	10	90
random	1	1	106	198217	2	2	2	1	0	1061	1	4	0	16	96	0	10	91
random	1	1	107	200245	5	4	4	1	0	991	1	4	0	32	97	0	10	91
random	1	1	108	201978	6	1	1	1	0	797	1	4	0	8	98	0	10	91
random	1	1	109	204018	5	4	4	1	0	951	1	4	0	32	99	0	10	91
random	1	1	110	205838	6	3	0	1	2	0	3	4	0	24	99	0	11	90
random	1	1	111	208701	2	2	2	1	0	1137	1	4	0	16	100	0	11	90
random	1	1	112	210576	3	1	1	1	0	826	1	4	0	8	101	0	11	90
random	1	1	113	212116	1	2	2	1	0	1193	1	4	0	16	102	0	11	90
random	1	1	114	214041	2	3	3	1	0	622	1	4	0	24	103	0	11	90
random	1	1	115	215261	3	1	1	1	0	811	1	4	0	8	104	0	11	90
random	1	1	116	216888	4	4	4	1	0	854	1	4	0	32	105	0	11	91
random	1	1	117	218440	6	1	1	1	0	812	1	4	0	8	106	0	11	91
random	1	1	118	220023	5	3	0	1	2	0	3	4	0	24	106	0	12	90
random	1	1	119	223479	1	4	4	1	0	959	1	4	0	32	107	0	12	90
random	1	1	120	225254	4	2	2	1	0	1140	1	4	0	16	108	0	12	90
fixed	2	1	1	227623	4	1	1	1	0	871	1	4	0	40	1	0	0	100
fixed	2	1	2	229015	1	2	2	1	0	1284	1	4	0	48	2	0	0	100
fixed	2	1	3	230883	6	4	4	1	0	901	1	4	0	64	3	0	0	100
fixed	2	1	4	232799	2	1	1	1	0	820	1	4	0	40	4	0	0	100
fixed	2	1	5	234160	5	3	3	1	0	1322	1	4	0	56	5	0	0	100
fixed	2	1	6	236276	6	4	4	1	0	865	1	4	0	64	6	0	0	100
fixed	2	1	7	237700	3	1	1	1	0	764	1	4	0	40	7	0	0	100
fixed	2	1	8	238889	2	3	3	1	0	1730	1	4	0	56	8	0	0	100
fixed	2	1	9	240928	3	2	2	2	0	916	2	4	0	48	9	0	0	100
fixed	2	1	10	242356	1	4	4	1	0	688	1	4	0	64	10	0	0	100
fixed	2	1	11	243755	5	2	2	1	0	1012	1	4	0	48	11	0	0	100
fixed	2	1	12	245298	4	3	3	1	0	867	1	4	0	56	12	0	0	100
fixed	2	2	1	246873	4	1	1	1	0	856	1	4	0	40	13	0	0	100
fixed	2	2	2	248670	1	2	2	1	0	988	1	4	0	48	14	0	0	100
fixed	2	2	3	250457	6	4	4	1	0	864	1	4	0	64	15	0	0	100
fixed	2	2	4	251819	2	1	1	1	0	894	1	4	0	40	16	0	0	100
fixed	2	2	5	253281	5	3	0	1	2	0	3	4	0	56	16	0	1	94
fixed	2	2	6	256537	6	4	4	1	0	687	1	4	0	64	17	0	1	94
fixed	2	2	7	258128	3	1	1	1	0	684	1	4	0	40	18	0	1	95
fixed	2	2	8	259722	2	3	3	1	0	1128	1	4	0	56	19	0	1	95
fixed	2	2	9	261648	3	2	2	1	0	622	1	4	0	48	20	0	1	95
fixed	2	2	10	262745	1	4	4	1	0	808	1	4	0	64	21	0	1	95
fixed	2	2	11	264216	5	2	2	1	0	1161	1	4	0	48	22	0	1	96
fixed	2	2	12	265743	4	3	3	1	0	1049	1	4	0	56	23	0	1	96
fixed	2	3	1	267991	4	1	1	1	0	689	1	4	0	40	24	0	1	96
fixed	2	3	2	269261	1	2	2	1	0	1244	1	4	0	48	25	0	1	96
fixed	2	3	3	271482	6	4	4	1	0	749	1	4	0	64	26	0	1	96
fixed	2	3	4	273210	2	1	1	1	0	717	1	4	0	40	27	0	1	96
fixed	2	3	5	274605	5	3	3	1	0	817	1	4	0	56	28	0	1	97
fixed	2	3	6	276377	6	4	4	1	0	798	1	4	0	64	29	0	1	97
fixed	2	3	7	277584	3	1	1	1	0	827	1	4	0	40	30	0	1	97
fixed	2	3	8	279030	2	3	3	1	0	1670	1	4	0	56	31	0	1	97
fixed	2	3	9	281599	3	2	2	1	0	633	1	4	0	48	32	0	1	97
fixed	2	3	10	283052	1	4	4	1	0	652	1	4	0	64	33	0	1	97
fixed	2	3	11	284023	5	2	2	1	0	1435	1	4	0	48	34	0	1	97
fixed	2	3	12	286162	4	3	3	1	0	696	1	4	0	56	35	0	1	97
fixed	2	4	1	287639	4	1	1	1	0	737	1	4	0	40	36	0	1	97
fixed	2	4	2	288860	1	2	2	1	0	2062	1	4	0	48	37	0	1	97
fixed	2	4	3	291920	6	4	4	1	0	804	1	4	0	64	38	0	1	97
fixed	2	4	4	293738	2	1	1	1	0	679	1	4	0	40	39	0	1	98
fixed	2	4	5	295253	5	3	3	1	0	887	1	4	0	56	40	0	1	98
fixed	2	4	6	296533	6	4	4	1	0	977	1	4	0	64	41	0	1	98
fixed	2	4	7	297825	3	1	1	1	0	890	1	4	0	40	42	0	1	98
fixed	2	4	8	299093	2	3	3	1	0	1276	1	4	0	56	43	0	1	98
fixed	2	4	9	301217	3	2	2	1	0	707	1	4	0	48	44	0	1	98
fixed	2	4	10	302818	1	4	4	1	0	583	1	4	0	64	45	0	1	98
fixed	2	4	11	303816	5	2	2	1	0	1196	1	4	0	48	46	0	1	98
fixed	2	4	12	305383	4	3	3	1	0	754	1	4	0	56	47	0	1	98
fixed	2	5	1	306720	4	1	1	1	0	601	1	4	0	40	48	0	1	98
fixed	2	5	2	307803	1	2	2	1	0	963	1	4	0	48	49	0	1	98
fixed	2	5	3	309192	6	4	4	1	0	696	1	4	0	64	50	0	1	98
fixed	2	5	4	310578	2	1	1	1	0	678	1	4	0	40	51	0	1	98
fixed	2	5	5	312296	5	3	3	1	0	605	1	4	0	56	52	0	1	98
fixed	2	5	6	313310	6	4	4	1	0	842	1	4	0	64	53	0	1	98
fixed	2	5	7	314920	3	1	1	1	0	662	1	4	0	40	54	0	1	98
fixed	2	5	8	316535	2	3	3	1	0	1066	1	4	0	56	55	0	1	98
fixed	2	5	9	317889	3	2	2	1	0	768	1	4	0	48	56	0	1	98
fixed	2	5	10	319161	1	4	4	1	0	547	1	4	0	64	57	0	1	98
fixed	2	5	11	320244	5	2	2	1	0	765	1	4	0	48	58	0	1	98
fixed	2	5	12	321880	4	3	3	1	0	967	1	4	0	56	59	0	1	98
fixed	2	6	1	323728	4	1	1	1	0	697	1	4	0	40	60	0	1	98
fixed	2	6	2	325192	1	2	2	1	0	1147	1	4	0	48	61	0	1	98
fixed	2	6	3	327129	6	4	4	1	0	609	1	4	0	64	62	0	1	98
fixed	2	6	4	328496	2	1	1	1	0	703	1	4	0	40	63	0	1	98
fixed	2	6	5	329903	5	3	3	1	0	524	1	4	0	56	64	0	1	98
fixed	2	6	6	331075	6	4	4	1	0	786	1	4	0	64	65	0	1	98
fixed	2	6	7	332782	3	1	1	1	0	777	1	4	0	40	66	0	1	99
fixed	2	6	8	334483	2	3	3	1	0	1058	1	4	0	56	67	0	1	99
fixed	2	6	9	336457	3	2	2	1	0	565	1	4	0	48	68	0	1	99
fixed	2	6	10	337364	1	4	4	1	0	591	1	4	0	64	69	0	1	99
fixed	2	6	11	338797	5	2	2	1	0	1002	1	4	0	48	70	0	1	99
fixed	2	6	12	340475	4	3	3	1	0	1124	1	4	0	56	71	0	1	99
fixed	2	7	1	342173	4	1	1	2	0	595	2	4	0	40	72	0	1	99
fixed	2	7	2	343791	1	2	2	1	0	807	1	4	0	48	73	0	1	99
fixed	2	7	3	345503	6	4	4	1	0	783	1	4	0	64	74	0	1	99
fixed	2	7	4	347042	2	1	1	1	0	941	1	4	0	40	75	0	1	99
fixed	2	7	5	348547	5	3	3	1	0	1070	1	4	0	56	76	0	1	99
fixed	2	7	6	350210	6	4	4	1	0	711	1	4	0	64	77	0	1	99
fixed	2	7	7	351467	3	1	1	1	0	1130	1	4	0	40	78	0	1	99
fixed	2	7	8	353410	2	3	3	1	0	1160	1	4	0	56	79	0	1	99
fixed	2	7	9	355017	3	2	2	1	0	612	1	4	0	48	80	0	1	99
fixed	2	7	10	356093	1	4	4	1	0	822	1	4	0	64	81	0	1	99
fixed	2	7	11	357489	5	2	2	1	0	1131	1	4	0	48	82	0	1	99
fixed	2	7	12	359455	4	3	3	2	0	984	2	4	0	56	83	0	1	99
fixed	2	8	1	361721	4	1	1	1	0	775	1	4	0	40	84	0	1	99
fixed	2	8	2	363103	1	2	2	1	0	1269	1	4	0	48	85	0	1	99
fixed	2	8	3	364856	6	4	4	1	0	771	1	4	0	64	86	0	1	99
fixed	2	8	4	365969	2	1	1	1	0	884	1	4	0	40	87	0	1	99
fixed	2	8	5	367865	5	3	3	1	0	508	1	4	0	56	88	0	1	99
fixed	2	8	6	369033	6	4	4	1	0	810	1	4	0	64	89	0	1	99
fixed	2	8	7	370655	3	1	1	1	0	838	1	4	0	40	90	0	1	99
fixed	2	8	8	372057	2	3	0	0	2	0	3	4	0	56	90	0	2	98
fixed	2	8	9	374936	3	2	2	1	0	544	1	4	0	48	91	0	2	98
fixed	2	8	10	375962	1	4	4	1	0	796	1	4	0	64	92	0	2	98
fixed	2	8	11	377165	5	2	2	1	0	1178	1	4	0	48	93	0	2	98
fixed	2	8	12	378744	4	3	3	1	0	958	1	4	0	56	94	0	2	98
fixed	2	9	1	380367	4	1	1	1	0	658	1	4	0	40	95	0	2	98
fixed	2	9	2	381573	1	2	2	1	0	999	1	4	0	48	96	0	2	98
fixed	2	9	3	383517	6	4	4	1	0	637	1	4	0	64	97	0	2	98
fixed	2	9	4	384699	2	1	1	1	0	762	1	4	0	40	98	0	2	98
fixed	2	9	5	386455	5	3	3	1	0	944	1	4	0	56	99	0	2	98
fixed	2	9	6	388312	6	4	4	1	0	762	1	4	0	64	100	0	2	98
fixed	2	9	7	389811	3	1	1	1	0	634	1	4	0	40	101	0	2	98
fixed	2	9	8	391334	2	3	3	1	0	945	1	4	0	56	102	0	2	98
fixed	2	9	9	393010	3	2	2	1	0	699	1	4	0	48	103	0	2	98
fixed	2	9	10	394427	1	4	4	1	0	695	1	4	0	64	104	0	2	98
fixed	2	9	11	396129	5	2	2	1	0	990	1	4	0	48	105	0	2	98
fixed	2	9	12	397647	4	3	3	1	0	718	1	4	0	56	106	0	2	98
fixed	2	10	1	399130	4	1	1	1	0	551	1	4	0	40	107	0	2	98
fixed	2	10	2	400638	1	2	2	1	0	831	1	4	0	48	108	0	2	98
fixed	2	10	3	402254	6	4	4	1	0	619	1	4	0	64	109	0	2	98
fixed	2	10	4	403837	2	1	1	1	0	712	1	4	0	40	110	0	2	98
fixed	2	10	5	405441	5	3	3	1	0	1076	1	4	0	56	111	0	2	98
fixed	2	10	6	407171	6	4	4	1	0	731	1	4	0	64	112	0	2	98
fixed	2	10	7	408502	3	1	1	1	0	698	1	4	0	40	113	0	2	98
fixed	2	10	8	410104	2	3	3	1	0	1150	1	4	0	56	114	0	2	98
fixed	2	10	9	411586	3	2	2	1	0	848	1	4	0	48	115	0	2	98
fixed	2	10	10	412958	1	4	4	1	0	574	1	4	0	64	116	0	2	98
fixed	2	10	11	413972	5	2	2	1	0	875	1	4	0	48	117	0	2	98
fixed	2	10	12	415751	4	3	3	1	0	656	1	4	0	56	118	0	2	98
fixed	3	1	1	417322	4	1	1	1	0	604	1	4	0	72	1	0	0	100
fixed	3	1	2	418810	1	2	2	1	0	885	1	4	0	80	2	0	0	100
fixed	3	1	3	420313	6	4	4	1	0	630	1	4	0	96	3	0	0	100
fixed	3	1	4	421916	2	1	1	1	0	634	1	4	0	72	4	0	0	100
fixed	3	1	5	423275	5	3	3	1	0	520	1	4	0	88	5	0	0	100
fixed	3	1	6	424362	6	4	4	1	0	698	1	4	0	96	6	0	0	100
fixed	3	1	7	425411	3	1	1	1	0	1030	1	4	0	72	7	0	0	100
fixed	3	1	8	427112	2	3	3	1	0	1334	1	4	0	88	8	0	0	100
fixed	3	1	9	429083	3	2	2	1	0	563	1	4	0	80	9	0	0	100
fixed	3	1	10	430409	1	4	4	1	0	682	1	4	0	96	10	0	0	100
fixed	3	1	11	431944	5	2	2	1	0	849	1	4	0	80	11	0	0	100
fixed	3	1	12	433774	4	3	3	1	0	1108	1	4	0	88	12	0	0	100
fixed	3	2	1	435786	4	1	1	1	0	638	1	4	0	72	13	0	0	100
fixed	3	2	2	436900	1	2	2	1	0	1520	1	4	0	80	14	0	0	100
fixed	3	2	3	439365	6	4	4	1	0	671	1	4	0	96	15	0	0	100
fixed	3	2	4	440992	2	1	1	1	0	554	1	4	0	72	16	0	0	100
fixed	3	2	5	442380	5	3	3	1	0	776	1	4	0	88	17	0	0	100
fixed	3	2	6	444148	6	4	4	1	0	765	1	4	0	96	18	0	0	100
fixed	3	2	7	445451	3	1	1	1	0	557	1	4	0	72	19	0	0	100
fixed	3	2	8	446335	2	3	3	1	0	832	1	4	0	88	20	0	0	100
fixed	3	2	9	447707	3	2	2	1	0	454	1	4	0	80	21	0	0	100
fixed	3	2	10	449026	1	4	4	1	0	1142	1	4	0	96	22	0	0	100
fixed	3	2	11	450659	5	2	2	1	0	745	1	4	0	80	23	0	0	100
fixed	3	2	12	452187	4	3	3	1	0	832	1	4	0	88	24	0	0	100
fixed	3	3	1	453730	4	1	1	1	0	526	1	4	0	72	25	0	0	100
fixed	3	3	2	454927	1	2	2	1	0	1404	1	4	0	80	26	0	0	100
fixed	3	3	3	457188	6	4	4	1	0	596	1	4	0	96	27	0	0	100
fixed	3	3	4	458301	2	1	1	1	0	685	1	4	0	72	28	0	0	100
fixed	3	3	5	460009	5	3	3	1	0	717	1	4	0	88	29	0	0	100
fixed	3	3	6	461538	6	4	4	1	0	660	1	4	0	96	30	0	0	100
fixed	3	3	7	463104	3	1	1	1	0	569	1	4	0	72	31	0	0	100
fixed	3	3	8	464319	2	3	3	1	0	1142	1	4	0	88	32	0	0	100
fixed	3	3	9	465972	3	2	2	1	0	664	1	4	0	80	33	0	0	100
fixed	3	3	10	467603	1	4	4	1	0	803	1	4	0	96	34	0	0	100
fixed	3	3	11	468968	5	2	2	1	0	881	1	4	0	80	35	0	0	100
fixed	3	3	12	470226	4	3	3	1	0	988	1	4	0	88	36	0	0	100
fixed	3	4	1	472460	4	1	1	1	0	661	1	4	0	72	37	0	0	100
fixed	3	4	2	474130	1	2	2	1	0	1166	1	4	0	80	38	0	0	100
fixed	3	4	3	476130	6	4	4	1	0	458	1	4	0	96	39	0	0	100
fixed	3	4	4	477125	2	1	1	1	0	688	1	4	0	72	40	0	0	100
fixed	3	4	5	478381	5	3	3	1	0	1347	1	4	0	88	41	0	0	100
fixed	3	4	6	480740	6	4	4	1	0	927	1	4	0	96	42	0	0	100
fixed	3	4	7	482289	3	1	1	1	0	781	1	4	0	72	43	0	0	100
fixed	3	4	8	483414	2	3	3	1	0	1398	1	4	0	88	44	0	0	100
fixed	3	4	9	485427	3	2	2	1	0	688	1	4	0	80	45	0	0	100
fixed	3	4	10	486946	1	4	4	1	0	767	1	4	0	96	46	0	0	100
fixed	3	4	11	488160	5	2	2	1	0	853	1	4	0	80	47	0	0	100
fixed	3	4	12	490028	4	3	3	1	0	1317	1	4	0	88	48	0	0	100
fixed	3	5	1	492091	4	1	1	1	0	629	1	4	0	72	49	0	0	100
fixed	3	5	2	493224	1	2	2	1	0	902	1	4	0	80	50	0	0	100
fixed	3	5	3	494523	6	4	4	1	0	791	1	4	0	96	51	0	0	100
fixed	3	5	4	495967	2	1	1	1	0	641	1	4	0	72	52	0	0	100
fixed	3	5	5	497466	5	3	3	1	0	698	1	4	0	88	53	0	0	100
fixed	3	5	6	499105	6	4	4	1	0	869	1	4	0	96	54	0	0	100
fixed	3	5	7	500551	3	1	1	1	0	559	1	4	0	72	55	0	0	100
fixed	3	5	8	501727	2	3	3	1	0	822	1	4	0	88	56	0	0	100
fixed	3	5	9	502909	3	2	2	1	0	772	1	4	0	80	57	0	0	100
fixed	3	5	10	504250	1	4	4	1	0	595	1	4	0	96	58	0	0	100
fixed	3	5	11	505281	5	2	2	1	0	1111	1	4	0	80	59	0	0	100
fixed	3	5	12	507384	4	3	3	1	0	878	1	4	0	88	60	0	0	100
fixed	3	6	1	509333	4	1	1	1	0	675	1	4	0	72	61	0	0	100
fixed	3	6	2	510460	1	2	2	1	0	852	1	4	0	80	62	0	0	100
fixed	3	6	3	512126	6	4	4	1	0	637	1	4	0	96	63	0	0	100
fixed	3	6	4	513356	2	1	1	1	0	841	1	4	0	72	64	0	0	100
fixed	3	6	5	514816	5	3	3	1	0	883	1	4	0	88	65	0	0	100
fixed	3	6	6	516165	6	4	4	1	0	666	1	4	0	96	66	0	0	100
fixed	3	6	7	517749	3	1	1	1	0	567	1	4	0	72	67	0	0	100
fixed	3	6	8	519004	2	3	3	1	0	945	1	4	0	88	68	0	0	100
fixed	3	6	9	520841	3	2	2	1	0	788	1	4	0	80	69	0	0	100
fixed	3	6	10	522017	1	4	4	1	0	754	1	4	0	96	70	0	0	100
fixed	3	6	11	523588	5	2	2	1	0	1136	1	4	0	80	71	0	0	100
fixed	3	6	12	525179	4	3	3	1	0	1172	1	4	0	88	72	0	0	100
fixed	3	7	1	527144	4	1	1	1	0	529	1	4	0	72	73	0	0	100
fixed	3	7	2	528341	1	2	2	1	0	767	1	4	0	80	74	0	0	100
fixed	3	7	3	529930	6	4	4	1	0	643	1	4	0	96	75	0	0	100
fixed	3	7	4	530857	2	1	1	1	0	876	1	4	0	72	76	0	0	100
fixed	3	7	5	532459	5	3	0	1	2	0	3	4	0	88	76	0	1	99
fixed	3	7	6	535781	6	4	4	1	0	787	1	4	0	96	77	0	1	99
fixed	3	7	7	537320	3	1	1	1	0	594	1	4	0	72	78	0	1	99
fixed	3	7	8	538457	2	3	0	1	2	0	3	4	0	88	78	0	2	98
fixed	3	7	9	541703	3	2	2	1	0	720	1	4	0	80	79	0	2	98
fixed	3	7	10	542775	1	4	4	1	0	731	1	4	0	96	80	0	2	98
fixed	3	7	11	544503	5	2	2	1	0	1066	1	4	0	80	81	0	2	98
fixed	3	7	12	546108	4	3	3	1	0	662	1	4	0	88	82	0	2	98
fixed	3	8	1	547794	4	1	1	1	0	670	1	4	0	72	83	0	2	98
fixed	3	8	2	549481	1	2	2	1	0	767	1	4	0	80	84	0	2	98
fixed	3	8	3	550730	6	4	4	1	0	618	1	4	0	96	85	0	2	98
fixed	3	8	4	551857	2	1	1	1	0	610	1	4	0	72	86	0	2	98
fixed	3	8	5	553086	5	3	3	1	0	463	1	4	0	88	87	0	2	98
fixed	3	8	6	554104	6	4	4	1	0	1123	1	4	0	96	88	0	2	98
fixed	3	8	7	555983	3	1	1	1	0	587	1	4	0	72	89	0	2	98
fixed	3	8	8	557150	2	3	3	1	0	970	1	4	0	88	90	0	2	98
fixed	3	8	9	558668	3	2	2	1	0	562	1	4	0	80	91	0	2	98
fixed	3	8	10	559773	1	4	4	1	0	579	1	4	0	96	92	0	2	98
fixed	3	8	11	560852	5	2	2	1	0	742	1	4	0	80	93	0	2	98
fixed	3	8	12	562412	4	3	3	1	0	939	1	4	0	88	94	0	2	98
fixed	3	9	1	564586	4	1	1	1	0	591	1	4	0	72	95	0	2	98
fixed	3	9	2	565978	1	2	2	1	0	1132	1	4	0	80	96	0	2	98
fixed	3	9	3	567621	6	4	4	1	0	479	1	4	0	96	97	0	2	98
fixed	3	9	4	568545	2	1	1	1	0	703	1	4	0	72	98	0	2	98
fixed	3	9	5	569639	5	3	3	1	0	641	1	4	0	88	99	0	2	98
fixed	3	9	6	571119	6	4	4	1	0	706	1	4	0	96	100	0	2	98
fixed	3	9	7	572800	3	1	1	1	0	724	1	4	0	72	101	0	2	98
fixed	3	9	8	574085	2	3	3	1	0	1301	1	4	0	88	102	0	2	98
fixed	3	9	9	576131	3	2	2	1	0	622	1	4	0	80	103	0	2	98
fixed	3	9	10	577409	1	4	4	1	0	648	1	4	0	96	104	0	2	98
fixed	3	9	11	578709	5	2	2	1	0	849	1	4	0	80	105	0	2	98
fixed	3	9	12	580303	4	3	3	1	0	1246	1	4	0	88	106	0	2	98
fixed	3	10	1	582413	4	1	1	1	0	668	1	4	0	72	107	0	2	98
fixed	3	10	2	583467	1	2	2	1	0	951	1	4	0	80	108	0	2	98
fixed	3	10	3	584895	6	4	4	1	0	699	1	4	0	96	109	0	2	98
fixed	3	10	4	586161	2	1	1	1	0	765	1	4	0	72	110	0	2	98
fixed	3	10	5	587713	5	3	3	1	0	852	1	4	0	88	111	0	2	98
fixed	3	10	6	589422	6	4	4	1	0	827	1	4	0	96	112	0	2	98
fixed	3	10	7	591109	3	1	1	1	0	660	1	4	0	72	113	0	2	98
fixed	3	10	8	592488	2	3	3	1	0	873	1	4	0	88	114	0	2	98
fixed	3	10	9	594294	3	2	2	1	0	653	1	4	0	80	115	0	2	98
fixed	3	10	10	595286	1	4	4	1	0	587	1	4	0	96	116	0	2	98
fixed	3	10	11	596196	5	2	2	1	0	740	1	4	0	80	117	0	2	98
fixed	3	10	12	597500	4	3	3	2	0	917	2	4	0	88	118	0	2	98
fixed	4	1	1	706682	4	1	1	1	0	844	1	4	0	104	1	0	0	100
fixed	4	1	2	708275	1	2	2	1	0	921	1	4	0	112	2	0	0	100
fixed	4	1	3	709939	6	4	4	1	0	650	1	4	0	128	3	0	0	100
fixed	4	1	4	711398	2	1	1	1	0	733	1	4	0	104	4	0	0	100
fixed	4	1	5	713118	5	3	3	1	0	908	1	4	0	120	5	0	0	100
fixed	4	1	6	714668	6	4	4	1	0	602	1	4	0	128	6	0	0	100
fixed	4	1	7	716217	3	1	1	1	0	745	1	4	0	104	7	0	0	100
fixed	4	1	8	717842	2	3	3	1	0	988	1	4	0	120	8	0	0	100
fixed	4	1	9	719319	3	2	2	1	0	741	1	4	0	112	9	0	0	100
fixed	4	1	10	721007	1	4	4	1	0	510	1	4	0	128	10	0	0	100
fixed	4	1	11	722508	5	2	2	1	0	782	1	4	0	112	11	0	0	100
fixed	4	1	12	723698	4	3	3	1	0	876	1	4	0	120	12	0	0	100
fixed	4	2	1	725614	4	1	1	1	0	803	1	4	0	104	13	0	0	100
fixed	4	2	2	727264	1	2	2	1	0	989	1	4	0	112	14	0	0	100
fixed	4	2	3	728777	6	4	4	1	0	741	1	4	0	128	15	0	0	100
fixed	4	2	4	729840	2	1	1	1	0	848	1	4	0	104	16	0	0	100
fixed	4	2	5	731618	5	3	0	1	2	0	3	4	0	120	16	0	1	94
fixed	4	2	6	734744	6	4	4	1	0	704	1	4	0	128	17	0	1	94
fixed	4	2	7	736180	3	1	1	1	0	659	1	4	0	104	18	0	1	95
fixed	4	2	8	737558	2	3	3	1	0	889	1	4	0	120	19	0	1	95
fixed	4	2	9	739013	3	2	2	1	0	691	1	4	0	112	20	0	1	95
fixed	4	2	10	740633	1	4	4	1	0	702	1	4	0	128	21	0	1	95
fixed	4	2	11	741930	5	2	2	1	0	984	1	4	0	112	22	0	1	96
fixed	4	2	12	743441	4	3	3	1	0	951	1	4	0	120	23	0	1	96
fixed	4	3	1	745078	4	1	1	1	0	706	1	4	0	104	24	0	1	96
fixed	4	3	2	746217	1	2	2	1	0	1138	1	4	0	112	25	0	1	96
fixed	4	3	3	748322	6	4	4	1	0	553	1	4	0	128	26	0	1	96
fixed	4	3	4	749737	2	1	1	1	0	701	1	4	0	104	27	0	1	96
fixed	4	3	5	751115	5	3	3	1	0	715	1	4	0	120	28	0	1	97
fixed	4	3	6	752692	6	4	4	1	0	640	1	4	0	128	29	0	1	97
fixed	4	3	7	753838	3	1	1	1	0	791	1	4	0	104	30	0	1	97
fixed	4	3	8	754940	2	3	3	1	0	913	1	4	0	120	31	0	1	97
fixed	4	3	9	756204	3	2	2	1	0	691	1	4	0	112	32	0	1	97
fixed	4	3	10	757869	1	4	4	1	0	485	1	4	0	128	33	0	1	97
fixed	4	3	11	759183	5	2	2	1	0	645	1	4	0	112	34	0	1	97
fixed	4	3	12	760768	4	3	3	1	0	962	1	4	0	120	35	0	1	97
fixed	4	4	1	762655	4	1	1	1	0	650	1	4	0	104	36	0	1	97
fixed	4	4	2	763851	1	2	2	1	0	911	1	4	0	112	37	0	1	97
fixed	4	4	3	765360	6	4	4	1	0	487	1	4	0	128	38	0	1	97
fixed	4	4	4	766576	2	1	1	1	0	796	1	4	0	104	39	0	1	98
fixed	4	4	5	767961	5	3	3	1	0	721	1	4	0	120	40	0	1	98
fixed	4	4	6	769214	6	4	4	1	0	612	1	4	0	128	41	0	1	98
fixed	4	4	7	770143	3	1	1	1	0	821	1	4	0	104	42	0	1	98
fixed	4	4	8	771277	2	3	3	1	0	901	1	4	0	120	43	0	1	98
fixed	4	4	9	773179	3	2	2	1	0	844	1	4	0	112	44	0	1	98
fixed	4	4	10	774457	1	4	4	1	0	654	1	4	0	128	45	0	1	98
fixed	4	4	11	776133	5	2	2	1	0	839	1	4	0	112	46	0	1	98
fixed	4	4	12	777659	4	3	0	1	2	0	3	4	0	120	46	0	2	96
fixed	4	5	1	781334	4	1	1	1	0	787	1	4	0	104	47	0	2	96
fixed	4	5	2	782593	1	2	2	1	0	1261	1	4	0	112	48	0	2	96
fixed	4	5	3	784778	6	4	4	1	0	737	1	4	0	128	49	0	2	96
fixed	4	5	4	786273	2	1	1	1	0	858	1	4	0	104	50	0	2	96
fixed	4	5	5	787787	5	3	3	1	0	1217	1	4	0	120	51	0	2	96
fixed	4	5	6	790032	6	4	4	1	0	731	1	4	0	128	52	0	2	96
fixed	4	5	7	791785	3	1	1	1	0	696	1	4	0	104	53	0	2	96
fixed	4	5	8	793261	2	3	3	1	0	1425	1	4	0	120	54	0	2	96
fixed	4	5	9	795054	3	2	2	1	0	894	1	4	0	112	55	0	2	96
fixed	4	5	10	796919	1	4	4	1	0	598	1	4	0	128	56	0	2	97
fixed	4	5	11	798507	5	2	2	1	0	891	1	4	0	112	57	0	2	97
fixed	4	5	12	800336	4	3	3	1	0	910	1	4	0	120	58	0	2	97
fixed	4	6	1	801851	4	1	1	1	0	822	1	4	0	104	59	0	2	97
fixed	4	6	2	803672	1	2	2	1	0	904	1	4	0	112	60	0	2	97
fixed	4	6	3	805032	6	4	4	1	0	855	1	4	0	128	61	0	2	97
fixed	4	6	4	806749	2	1	1	1	0	854	1	4	0	104	62	0	2	97
fixed	4	6	5	808012	5	3	3	1	0	1145	1	4	0	120	63	0	2	97
fixed	4	6	6	809728	6	4	4	1	0	704	1	4	0	128	64	0	2	97
fixed	4	6	7	811194	3	1	1	1	0	690	1	4	0	104	65	0	2	97
fixed	4	6	8	812553	2	3	3	1	0	905	1	4	0	120	66	0	2	97
fixed	4	6	9	813826	3	2	2	1	0	827	1	4	0	112	67	0	2	97
fixed	4	6	10	815580	1	4	4	1	0	673	1	4	0	128	68	0	2	97
fixed	4	6	11	817019	5	2	2	1	0	875	1	4	0	112	69	0	2	97
fixed	4	6	12	818879	4	3	3	1	0	756	1	4	0	120	70	0	2	97
fixed	4	7	1	820848	4	1	1	1	0	641	1	4	0	104	71	0	2	97
fixed	4	7	2	822070	1	2	2	1	0	893	1	4	0	112	72	0	2	97
fixed	4	7	3	823332	6	4	4	1	0	536	1	4	0	128	73	0	2	97
fixed	4	7	4	824839	2	1	1	1	0	584	1	4	0	104	74	0	2	97
fixed	4	7	5	826113	5	3	3	1	0	674	1	4	0	120	75	0	2	97
fixed	4	7	6	827497	6	4	4	1	0	687	1	4	0	128	76	0	2	97
fixed	4	7	7	828821	3	1	1	1	0	671	1	4	0	104	77	0	2	97
fixed	4	7	8	830496	2	3	3	1	0	801	1	4	0	120	78	0	2	98
fixed	4	7	9	831833	3	2	2	1	0	688	1	4	0	112	79	0	2	98
fixed	4	7	10	833124	1	4	4	1	0	617	1	4	0	128	80	0	2	98
fixed	4	7	11	834691	5	2	2	1	0	719	1	4	0	112	81	0	2	98
fixed	4	7	12	835706	4	3	3	1	0	756	1	4	0	120	82	0	2	98
fixed	4	8	1	837388	4	1	1	1	0	636	1	4	0	104	83	0	2	98
fixed	4	8	2	838987	1	2	2	1	0	833	1	4	0	112	84	0	2	98
fixed	4	8	3	840647	6	4	4	1	0	746	1	4	0	128	85	0	2	98
fixed	4	8	4	841801	2	1	1	1	0	906	1	4	0	104	86	0	2	98
fixed	4	8	5	843385	5	3	3	1	0	542	1	4	0	120	87	0	2	98
fixed	4	8	6	844551	6	4	4	1	0	661	1	4	0	128	88	0	2	98
fixed	4	8	7	845660	3	1	1	1	0	726	1	4	0	104	89	0	2	98
fixed	4	8	8	846788	2	3	3	1	0	935	1	4	0	120	90	0	2	98
fixed	4	8	9	848216	3	2	2	1	0	642	1	4	0	112	91	0	2	98
fixed	4	8	10	849347	1	4	4	1	0	738	1	4	0	128	92	0	2	98
fixed	4	8	11	850606	5	2	2	1	0	749	1	4	0	112	93	0	2	98
fixed	4	8	12	852063	4	3	3	1	0	871	1	4	0	120	94	0	2	98
fixed	4	9	1	854012	4	1	1	1	0	692	1	4	0	104	95	0	2	98
fixed	4	9	2	855052	1	2	2	1	0	808	1	4	0	112	96	0	2	98
fixed	4	9	3	856669	6	4	4	1	0	436	1	4	0	128	97	0	2	98
fixed	4	9	4	857799	2	1	1	1	0	564	1	4	0	104	98	0	2	98
fixed	4	9	5	859175	5	3	3	1	0	530	1	4	0	120	99	0	2	98
fixed	4	9	6	860227	6	4	4	1	0	645	1	4	0	128	100	0	2	98
fixed	4	9	7	861322	3	1	1	1	0	767	1	4	0	104	101	0	2	98
fixed	4	9	8	862441	2	3	3	1	0	992	1	4	0	120	102	0	2	98
fixed	4	9	9	863893	3	2	2	1	0	666	1	4	0	112	103	0	2	98
fixed	4	9	10	865074	1	4	4	1	0	720	1	4	0	128	104	0	2	98
fixed	4	9	11	866520	5	2	2	1	0	691	1	4	0	112	105	0	2	98
fixed	4	9	12	868052	4	3	3	1	0	986	1	4	0	120	106	0	2	98
fixed	4	10	1	870102	4	1	1	1	0	771	1	4	0	104	107	0	2	98
fixed	4	10	2	871297	1	2	2	1	0	896	1	4	0	112	108	0	2	98
fixed	4	10	3	872638	6	4	4	1	0	487	1	4	0	128	109	0	2	98
fixed	4	10	4	874019	2	1	1	1	0	829	1	4	0	104	110	0	2	98
fixed	4	10	5	875712	5	3	3	1	0	582	1	4	0	120	111	0	2	98
fixed	4	10	6	877304	6	4	4	1	0	834	1	4	0	128	112	0	2	98
fixed	4	10	7	879093	3	1	1	1	0	798	1	4	0	104	113	0	2	98
fixed	4	10	8	880502	2	3	3	1	0	843	1	4	0	120	114	0	2	98
fixed	4	10	9	882034	3	2	2	1	0	641	1	4	0	112	115	0	2	98
fixed	4	10	10	883671	1	4	4	1	0	500	1	4	0	128	116	0	2	98
fixed	4	10	11	885028	5	2	0	1	2	0	3	4	0	112	116	0	3	97
fixed	4	10	12	888493	4	3	0	1	2	0	3	4	0	120	116	0	4	97
fixed	5	1	1	892521	4	1	1	1	0	773	1	4	0	136	1	0	0	100
fixed	5	1	2	894237	1	2	2	1	0	813	1	4	0	144	2	0	0	100
fixed	5	1	3	895836	6	4	4	1	0	569	1	4	0	160	3	0	0	100
fixed	5	1	4	897361	2	1	1	1	0	657	1	4	0	136	4	0	0	100
fixed	5	1	5	898496	5	3	3	1	0	784	1	4	0	152	5	0	0	100
fixed	5	1	6	900172	6	4	4	1	0	794	1	4	0	160	6	0	0	100
fixed	5	1	7	901800	3	1	1	1	0	692	1	4	0	136	7	0	0	100
fixed	5	1	8	903269	2	3	3	1	0	1014	1	4	0	152	8	0	0	100
fixed	5	1	9	905001	3	2	2	1	0	797	1	4	0	144	9	0	0	100
fixed	5	1	10	906719	1	4	4	1	0	620	1	4	0	160	10	0	0	100
fixed	5	1	11	908022	5	2	2	1	0	797	1	4	0	144	11	0	0	100
fixed	5	1	12	909390	4	3	3	1	0	691	1	4	0	152	12	0	0	100
fixed	5	2	1	910802	4	1	1	1	0	631	1	4	0	136	13	0	0	100
fixed	5	2	2	911784	1	2	2	1	0	1158	1	4	0	144	14	0	0	100
fixed	5	2	3	913802	6	4	4	1	0	640	1	4	0	160	15	0	0	100
fixed	5	2	4	914938	2	1	1	1	0	824	1	4	0	136	16	0	0	100
fixed	5	2	5	916744	5	3	3	1	0	468	1	4	0	152	17	0	0	100
fixed	5	2	6	917641	6	4	4	1	0	765	1	4	0	160	18	0	0	100
fixed	5	2	7	919151	3	1	1	1	0	758	1	4	0	136	19	0	0	100
fixed	5	2	8	920501	2	3	3	1	0	981	1	4	0	152	20	0	0	100
fixed	5	2	9	922449	3	2	2	1	0	946	1	4	0	144	21	0	0	100
fixed	5	2	10	923995	1	4	4	1	0	737	1	4	0	160	22	0	0	100
fixed	5	2	11	925399	5	2	2	1	0	741	1	4	0	144	23	0	0	100
fixed	5	2	12	927100	4	3	3	2	0	2245	2	4	0	152	24	0	0	100
fixed	5	3	1	930117	4	1	1	1	0	781	1	4	0	136	25	0	0	100
fixed	5	3	2	931333	1	2	2	1	0	873	1	4	0	144	26	0	0	100
fixed	5	3	3	933071	6	4	4	1	0	528	1	4	0	160	27	0	0	100
fixed	5	3	4	933970	2	1	1	1	0	706	1	4	0	136	28	0	0	100
fixed	5	3	5	935467	5	3	3	1	0	1018	1	4	0	152	29	0	0	100
fixed	5	3	6	937218	6	4	4	1	0	696	1	4	0	160	30	0	0	100
fixed	5	3	7	938446	3	1	1	1	0	836	1	4	0	136	31	0	0	100
fixed	5	3	8	940180	2	3	3	1	0	963	1	4	0	152	32	0	0	100
fixed	5	3	9	941780	3	2	2	1	0	871	1	4	0	144	33	0	0	100
fixed	5	3	10	943080	1	4	4	1	0	672	1	4	0	160	34	0	0	100
fixed	5	3	11	944616	5	2	2	1	0	1287	1	4	0	144	35	0	0	100
fixed	5	3	12	946613	4	3	3	1	0	594	1	4	0	152	36	0	0	100
fixed	5	4	1	948160	4	1	1	1	0	737	1	4	0	136	37	0	0	100
fixed	5	4	2	949333	1	2	2	1	0	1503	1	4	0	144	38	0	0	100
fixed	5	4	3	951865	6	4	4	1	0	660	1	4	0	160	39	0	0	100
fixed	5	4	4	953359	2	1	1	1	0	812	1	4	0	136	40	0	0	100
fixed	5	4	5	954540	5	3	3	1	0	698	1	4	0	152	41	0	0	100
fixed	5	4	6	955689	6	4	4	1	0	650	1	4	0	160	42	0	0	100
fixed	5	4	7	956709	3	1	1	1	0	647	1	4	0	136	43	0	0	100
fixed	5	4	8	958040	2	3	0	0	2	0	3	4	0	152	43	0	1	98
fixed	5	4	9	960881	3	2	2	1	0	1022	1	4	0	144	44	0	1	98
fixed	5	4	10	962358	1	4	4	1	0	640	1	4	0	160	45	0	1	98
fixed	5	4	11	963924	5	2	2	1	0	1141	1	4	0	144	46	0	1	98
fixed	5	4	12	965681	4	3	3	1	0	795	1	4	0	152	47	0	1	98
fixed	5	5	1	967758	4	1	1	1	0	795	1	4	0	136	48	0	1	98
fixed	5	5	2	969132	1	2	2	1	0	1112	1	4	0	144	49	0	1	98
fixed	5	5	3	970739	6	4	4	1	0	501	1	4	0	160	50	0	1	98
fixed	5	5	4	971912	2	1	1	1	0	443	1	4	0	136	51	0	1	98
fixed	5	5	5	972993	5	3	3	1	0	965	1	4	0	152	52	0	1	98
fixed	5	5	6	974614	6	4	4	1	0	584	1	4	0	160	53	0	1	98
fixed	5	5	7	976190	3	1	1	1	0	558	1	4	0	136	54	0	1	98
fixed	5	5	8	977398	2	3	3	1	0	818	1	4	0	152	55	0	1	98
fixed	5	5	9	978852	3	2	2	1	0	597	1	4	0	144	56	0	1	98
fixed	5	5	10	979888	1	4	4	1	0	1177	1	4	0	160	57	0	1	98
fixed	5	5	11	981767	5	2	2	1	0	770	1	4	0	144	58	0	1	98
fixed	5	5	12	983078	4	3	3	1	0	658	1	4	0	152	59	0	1	98
fixed	5	6	1	985017	4	1	1	1	0	607	1	4	0	136	60	0	1	98
fixed	5	6	2	986210	1	2	2	1	0	1133	1	4	0	144	61	0	1	98
fixed	5	6	3	988075	6	4	4	1	0	430	1	4	0	160	62	0	1	98
fixed	5	6	4	988941	2	1	1	1	0	641	1	4	0	136	63	0	1	98
fixed	5	6	5	990193	5	3	3	1	0	597	1	4	0	152	64	0	1	98
fixed	5	6	6	991571	6	4	4	1	0	834	1	4	0	160	65	0	1	98
fixed	5	6	7	992855	3	1	1	1	0	748	1	4	0	136	66	0	1	99
fixed	5	6	8	994551	2	3	3	1	0	844	1	4	0	152	67	0	1	99
fixed	5	6	9	996028	3	2	2	1	0	605	1	4	0	144	68	0	1	99
fixed	5	6	10	997314	1	4	4	1	0	447	1	4	0	160	69	0	1	99
fixed	5	6	11	998792	5	2	2	1	0	1224	1	4	0	144	70	0	1	99
fixed	5	6	12	1000325	4	3	3	1	0	647	1	4	0	152	71	0	1	99
fixed	5	7	1	1002092	4	1	1	1	0	668	1	4	0	136	72	0	1	99
fixed	5	7	2	1003808	1	2	2	1	0	924	1	4	0	144	73	0	1	99
fixed	5	7	3	1005569	6	4	4	1	0	417	1	4	0	160	74	0	1	99
fixed	5	7	4	1006840	2	1	1	1	0	539	1	4	0	136	75	0	1	99
fixed	5	7	5	1008276	5	3	3	1	0	1086	1	4	0	152	76	0	1	99
fixed	5	7	6	1010246	6	4	4	1	0	627	1	4	0	160	77	0	1	99
fixed	5	7	7	1011616	3	1	1	1	0	761	1	4	0	136	78	0	1	99
fixed	5	7	8	1013060	2	3	3	1	0	788	1	4	0	152	79	0	1	99
fixed	5	7	9	1014255	3	2	2	1	0	697	1	4	0	144	80	0	1	99
fixed	5	7	10	1015443	1	4	4	1	0	503	1	4	0	160	81	0	1	99
fixed	5	7	11	1016740	5	2	2	1	0	1144	1	4	0	144	82	0	1	99
fixed	5	7	12	1018583	4	3	3	1	0	970	1	4	0	152	83	0	1	99
fixed	5	8	1	1020203	4	1	1	1	0	693	1	4	0	136	84	0	1	99
fixed	5	8	2	1021291	1	2	2	1	0	871	1	4	0	144	85	0	1	99
fixed	5	8	3	1022675	6	4	4	1	0	628	1	4	0	160	86	0	1	99
fixed	5	8	4	1023768	2	1	1	1	0	750	1	4	0	136	87	0	1	99
fixed	5	8	5	1025017	5	3	3	1	0	1041	1	4	0	152	88	0	1	99
fixed	5	8	6	1027035	6	4	4	1	0	644	1	4	0	160	89	0	1	99
fixed	5	8	7	1028158	3	1	1	1	0	844	1	4	0	136	90	0	1	99
fixed	5	8	8	1029559	2	3	3	1	0	881	1	4	0	152	91	0	1	99
fixed	5	8	9	1031334	3	2	2	1	0	694	1	4	0	144	92	0	1	99
fixed	5	8	10	1032713	1	4	4	1	0	428	1	4	0	160	93	0	1	99
fixed	5	8	11	1033973	5	2	2	1	0	1174	1	4	0	144	94	0	1	99
fixed	5	8	12	1035545	4	3	3	1	0	908	1	4	0	152	95	0	1	99
fixed	5	9	1	1037412	4	1	1	1	0	628	1	4	0	136	96	0	1	99
fixed	5	9	2	1038806	1	2	2	1	0	794	1	4	0	144	97	0	1	99
fixed	5	9	3	1040536	6	4	4	1	0	656	1	4	0	160	98	0	1	99
fixed	5	9	4	1041599	2	1	1	1	0	779	1	4	0	136	99	0	1	99
fixed	5	9	5	1043019	5	3	3	1	0	703	1	4	0	152	100	0	1	99
fixed	5	9	6	1044178	6	4	4	1	0	670	1	4	0	160	101	0	1	99
fixed	5	9	7	1045583	3	1	1	1	0	514	1	4	0	136	102	0	1	99
fixed	5	9	8	1046533	2	3	3	1	0	866	1	4	0	152	103	0	1	99
fixed	5	9	9	1047824	3	2	2	1	0	675	1	4	0	144	104	0	1	99
fixed	5	9	10	1049106	1	4	4	1	0	581	1	4	0	160	105	0	1	99
fixed	5	9	11	1050051	5	2	2	1	0	845	1	4	0	144	106	0	1	99
fixed	5	9	12	1051312	4	3	3	1	0	631	1	4	0	152	107	0	1	99
fixed	5	10	1	1052917	4	1	1	1	0	660	1	4	0	136	108	0	1	99
fixed	5	10	2	1054085	1	2	2	1	0	762	1	4	0	144	109	0	1	99
fixed	5	10	3	1055238	6	4	4	1	0	601	1	4	0	160	110	0	1	99
fixed	5	10	4	1056297	2	1	1	1	0	549	1	4	0	136	111	0	1	99
fixed	5	10	5	1057581	5	3	3	1	0	438	1	4	0	152	112	0	1	99
fixed	5	10	6	1058782	6	4	4	1	0	619	1	4	0	160	113	0	1	99
fixed	5	10	7	1060440	3	1	1	1	0	789	1	4	0	136	114	0	1	99
fixed	5	10	8	1061958	2	3	3	1	0	1149	1	4	0	152	115	0	1	99
fixed	5	10	9	1063969	3	2	2	1	0	560	1	4	0	144	116	0	1	99
fixed	5	10	10	1065393	1	4	4	1	0	604	1	4	0	160	117	0	1	99
fixed	5	10	11	1066944	5	2	2	1	0	746	1	4	0	144	118	0	1	99
fixed	5	10	12	1068524	4	3	3	1	0	663	1	4	0	152	119	0	1	99
random	6	1	1	1157371	6	1	1	1	0	947	1	4	0	168	1	0	0	100
random	6	1	2	1159335	4	4	4	1	0	1009	1	4	0	192	2	0	0	100
random	6	1	3	1160954	2	2	0	1	2	0	3	4	0	176	2	0	1	67
random	6	1	4	1163881	3	3	3	1	0	960	1	4	0	184	3	0	1	75
random	6	1	5	1165384	5	2	2	1	0	696	1	4	0	176	4	0	1	80
random	6	1	6	1166584	1	4	4	1	0	717	1	4	0	192	5	0	1	83
random	6	1	7	1167591	6	1	1	1	0	827	1	4	0	168	6	0	1	86
random	6	1	8	1169052	2	3	3	1	0	949	1	4	0	184	7	0	1	88
random	6	1	9	1170790	4	2	2	1	0	731	1	4	0	176	8	0	1	89
random	6	1	10	1172149	1	1	0	1	2	0	3	4	0	168	8	0	2	80
random	6	1	11	1175572	5	4	4	1	0	905	1	4	0	192	9	0	2	82
random	6	1	12	1177150	3	3	3	1	0	1054	1	4	0	184	10	0	2	83
random	6	1	13	1179327	5	2	2	1	0	1489	1	4	0	176	11	0	2	85
random	6	1	14	1181196	1	4	4	1	0	906	1	4	0	192	12	0	2	86
random	6	1	15	1182924	3	1	1	1	0	833	1	4	0	168	13	0	2	87
random	6	1	16	1184410	4	3	3	1	0	1074	1	4	0	184	14	0	2	88
random	6	1	17	1186427	6	4	4	1	0	805	1	4	0	192	15	0	2	88
random	6	1	18	1188036	2	1	1	1	0	753	1	4	0	168	16	0	2	89
random	6	1	19	1189324	5	3	3	1	0	1226	1	4	0	184	17	0	2	89
random	6	1	20	1191272	2	2	2	1	0	599	1	4	0	176	18	0	2	90
random	6	1	21	1192757	3	3	3	1	0	1129	1	4	0	184	19	0	2	90
random	6	1	22	1194448	6	1	1	1	0	745	1	4	0	168	20	0	2	91
random	6	1	23	1195776	4	2	2	1	0	1081	1	4	0	176	21	0	2	91
random	6	1	24	1197313	1	4	4	1	0	624	1	4	0	192	22	0	2	92
random	6	1	25	1199026	4	3	3	1	0	1135	1	4	0	184	23	0	2	92
random	6	1	26	1200589	2	1	1	1	0	861	1	4	0	168	24	0	2	92
random	6	1	27	1201809	5	2	2	1	0	954	1	4	0	176	25	0	2	93
random	6	1	28	1203774	6	4	4	1	0	734	1	4	0	192	26	0	2	93
random	6	1	29	1205126	1	3	3	1	0	901	1	4	0	184	27	0	2	93
random	6	1	30	1206606	5	2	2	1	0	919	1	4	0	176	28	0	2	93
random	6	1	31	1208358	2	1	1	1	0	724	1	4	0	168	29	0	2	94
random	6	1	32	1209505	3	3	3	1	0	859	1	4	0	184	30	0	2	94
random	6	1	33	1211261	6	4	4	1	0	633	1	4	0	192	31	0	2	94
random	6	1	34	1212761	4	2	2	1	0	689	1	4	0	176	32	0	2	94
random	6	1	35	1214488	3	4	4	1	0	745	1	4	0	192	33	0	2	94
random	6	1	36	1215861	1	1	1	1	0	831	1	4	0	168	34	0	2	94
random	6	1	37	1217838	3	4	4	1	0	1002	1	4	0	192	35	0	2	95
random	6	1	38	1219811	5	3	3	1	0	871	1	4	0	184	36	0	2	95
random	6	1	39	1221090	6	1	1	1	0	1041	1	4	0	168	37	0	2	95
random	6	1	40	1222437	1	2	2	1	0	976	1	4	0	176	38	0	2	95
random	6	1	41	1223989	2	3	3	1	0	814	1	4	0	184	39	0	2	95
random	6	1	42	1225525	4	4	4	1	0	557	1	4	0	192	40	0	2	95
random	6	1	43	1227087	1	2	2	1	0	947	1	4	0	176	41	0	2	95
random	6	1	44	1228741	6	3	3	1	0	637	1	4	0	184	42	0	2	95
random	6	1	45	1229803	3	1	1	1	0	824	1	4	0	168	43	0	2	96
random	6	1	46	1231334	4	4	4	1	0	591	1	4	0	192	44	0	2	96
random	6	1	47	1232910	2	2	2	1	0	756	1	4	0	176	45	0	2	96
random	6	1	48	1234617	5	1	1	1	0	756	1	4	0	168	46	0	2	96
random	6	1	49	1236434	2	3	3	1	0	1223	1	4	0	184	47	0	2	96
random	6	1	50	1238411	3	1	1	1	0	915	1	4	0	168	48	0	2	96
random	6	1	51	1239651	1	4	4	1	0	719	1	4	0	192	49	0	2	96
random	6	1	52	1241340	5	3	3	1	0	807	1	4	0	184	50	0	2	96
random	6	1	53	1242536	3	2	2	1	0	740	1	4	0	176	51	0	2	96
random	6	1	54	1244051	6	4	4	1	0	1060	1	4	0	192	52	0	2	96
random	6	1	55	1245659	4	2	2	1	0	824	1	4	0	176	53	0	2	96
random	6	1	56	1247176	1	1	1	2	0	2464	2	4	0	168	54	0	2	96
random	6	1	57	1250025	5	4	4	1	0	863	1	4	0	192	55	0	2	96
random	6	1	58	1251387	2	1	1	1	0	629	1	4	0	168	56	0	2	97
random	6	1	59	1252901	6	2	2	1	0	1118	1	4	0	176	57	0	2	97
random	6	1	60	1254862	4	3	3	1	0	946	1	4	0	184	58	0	2	97
random	6	1	61	1256383	1	2	2	1	0	994	1	4	0	176	59	0	2	97
random	6	1	62	1257680	6	4	4	1	0	1051	1	4	0	192	60	0	2	97
random	6	1	63	1259059	4	1	1	1	0	801	1	4	0	168	61	0	2	97
random	6	1	64	1260509	2	2	2	1	0	811	1	4	0	176	62	0	2	97
random	6	1	65	1262011	4	3	3	1	0	611	1	4	0	184	63	0	2	97
random	6	1	66	1263654	3	1	1	1	0	886	1	4	0	168	64	0	2	97
random	6	1	67	1265405	1	3	3	1	0	828	1	4	0	184	65	0	2	97
random	6	1	68	1266576	5	4	4	1	0	874	1	4	0	192	66	0	2	97
random	6	1	69	1268036	2	2	2	1	0	916	1	4	0	176	67	0	2	97
random	6	1	70	1269482	3	1	1	1	0	719	1	4	0	168	68	0	2	97
random	6	1	71	1270963	5	4	4	1	0	897	1	4	0	192	69	0	2	97
random	6	1	72	1272610	6	3	3	1	0	915	1	4	0	184	70	0	2	97
random	6	1	73	1274811	2	1	1	1	0	1037	1	4	0	168	71	0	2	97
random	6	1	74	1276893	5	3	3	1	0	805	1	4	0	184	72	0	2	97
random	6	1	75	1278645	1	4	4	1	0	667	1	4	0	192	73	0	2	97
random	6	1	76	1279650	6	2	2	1	0	1073	1	4	0	176	74	0	2	97
random	6	1	77	1281540	2	1	1	2	0	1521	2	4	0	168	75	0	2	97
random	6	1	78	1284030	4	4	4	1	0	863	1	4	0	192	76	0	2	97
random	6	1	79	1285596	3	2	2	1	0	837	1	4	0	176	77	0	2	97
random	6	1	80	1286927	4	3	3	1	0	812	1	4	0	184	78	0	2	98
random	6	1	81	1288569	1	4	4	1	0	887	1	4	0	192	79	0	2	98
random	6	1	82	1289953	5	1	1	1	0	628	1	4	0	168	80	0	2	98
random	6	1	83	1291176	3	2	2	1	0	928	1	4	0	176	81	0	2	98
random	6	1	84	1292607	6	3	3	1	0	644	1	4	0	184	82	0	2	98
random	6	1	85	1293892	3	2	2	1	0	1029	1	4	0	176	83	0	2	98
random	6	1	86	1295507	1	3	3	1	0	817	1	4	0	184	84	0	2	98
random	6	1	87	1297164	4	4	4	1	0	874	1	4	0	192	85	0	2	98
random	6	1	88	1298962	2	1	1	1	0	575	1	4	0	168	86	0	2	98
random	6	1	89	1300485	6	4	4	1	0	798	1	4	0	192	87	0	2	98
random	6	1	90	1302231	3	3	3	1	0	1148	1	4	0	184	88	0	2	98
random	6	1	91	1303927	5	4	4	1	0	908	1	4	0	192	89	0	2	98
random	6	1	92	1305147	1	2	2	1	0	825	1	4	0	176	90	0	2	98
random	6	1	93	1306504	5	1	1	1	0	871	1	4	0	168	91	0	2	98
random	6	1	94	1308232	4	3	3	1	0	886	1	4	0	184	92	0	2	98
random	6	1	95	1309838	6	1	1	1	0	890	1	4	0	168	93	0	2	98
random	6	1	96	1311495	2	2	2	1	0	924	1	4	0	176	94	0	2	98
random	6	1	97	1312988	4	3	3	1	0	932	1	4	0	184	95	0	2	98
random	6	1	98	1314887	3	2	2	1	0	772	1	4	0	176	96	0	2	98
random	6	1	99	1316694	6	3	3	1	0	816	1	4	0	184	97	0	2	98
random	6	1	100	1318209	1	4	4	1	0	663	1	4	0	192	98	0	2	98
random	6	1	101	1319886	4	1	1	1	0	592	1	4	0	168	99	0	2	98
random	6	1	102	1321357	5	2	2	1	0	706	1	4	0	176	100	0	2	98
random	6	1	103	1322722	2	4	4	1	0	840	1	4	0	192	101	0	2	98
random	6	1	104	1324285	3	1	1	1	0	726	1	4	0	168	102	0	2	98
random	6	1	105	1325751	1	3	3	1	0	904	1	4	0	184	103	0	2	98
random	6	1	106	1327691	2	2	2	1	0	773	1	4	0	176	104	0	2	98
random	6	1	107	1328970	5	4	4	1	0	736	1	4	0	192	105	0	2	98
random	6	1	108	1330346	6	1	1	1	0	837	1	4	0	168	106	0	2	98
random	6	1	109	1332052	5	4	4	1	0	829	1	4	0	192	107	0	2	98
random	6	1	110	1333582	6	3	3	1	0	796	1	4	0	184	108	0	2	98
random	6	1	111	1335175	2	2	2	1	0	672	1	4	0	176	109	0	2	98
random	6	1	112	1336205	3	1	1	1	0	885	1	4	0	168	110	0	2	98
random	6	1	113	1337671	1	2	2	2	0	2103	2	4	0	176	111	0	2	98
random	6	1	114	1340108	2	3	3	1	0	1168	1	4	0	184	112	0	2	98
random	6	1	115	1341763	3	1	1	1	0	698	1	4	0	168	113	0	2	98
random	6	1	116	1343211	4	4	4	1	0	796	1	4	0	192	114	0	2	98
random	6	1	117	1344991	6	1	1	1	0	713	1	4	0	168	115	0	2	98
random	6	1	118	1346513	5	3	3	1	0	921	1	4	0	184	116	0	2	98
random	6	1	119	1348451	1	4	4	1	0	663	1	4	0	192	117	0	2	98
random	6	1	120	1349563	4	2	2	1	0	1063	1	4	0	176	118	0	2	98
fixed	7	1	1	1352049	4	1	1	1	0	782	1	4	0	200	1	0	0	100
fixed	7	1	2	1353586	1	2	2	1	0	805	1	4	0	208	2	0	0	100
fixed	7	1	3	1355415	6	4	4	1	0	527	1	4	0	224	3	0	0	100
fixed	7	1	4	1356318	2	1	1	1	0	721	1	4	0	200	4	0	0	100
fixed	7	1	5	1357739	5	3	3	1	0	749	1	4	0	216	5	0	0	100
fixed	7	1	6	1359132	6	4	4	1	0	778	1	4	0	224	6	0	0	100
fixed	7	1	7	1360429	3	1	1	1	0	571	1	4	0	200	7	0	0	100
fixed	7	1	8	1361468	2	3	3	1	0	743	1	4	0	216	8	0	0	100
fixed	7	1	9	1362858	3	2	2	1	0	724	1	4	0	208	9	0	0	100
fixed	7	1	10	1364026	1	4	4	1	0	723	1	4	0	224	10	0	0	100
fixed	7	1	11	1365760	5	2	2	1	0	1057	1	4	0	208	11	0	0	100
fixed	7	1	12	1367225	4	3	3	1	0	939	1	4	0	216	12	0	0	100
fixed	7	2	1	1369226	4	1	1	1	0	718	1	4	0	200	1	0	0	8
fixed	7	2	2	1370456	1	2	2	1	0	867	1	4	0	208	2	0	0	14
fixed	7	2	3	1371627	6	4	4	1	0	633	1	4	0	224	3	0	0	20
fixed	7	2	4	1372823	2	1	1	1	0	662	1	4	0	200	4	0	0	25
fixed	7	2	5	1374251	5	3	3	1	0	482	1	4	0	216	5	0	0	29
fixed	7	2	6	1375208	6	4	4	1	0	705	1	4	0	224	6	0	0	33
fixed	7	2	7	1376921	3	1	1	1	0	649	1	4	0	200	7	0	0	37
fixed	7	2	8	1378304	2	3	3	1	0	822	1	4	0	216	8	0	0	40
fixed	7	2	9	1380041	3	2	2	1	0	612	1	4	0	208	9	0	0	43
fixed	7	2	10	1380986	1	4	4	1	0	564	1	4	0	224	10	0	0	45
fixed	7	2	11	1382346	5	2	2	1	0	1067	1	4	0	208	11	0	0	48
fixed	7	2	12	1383869	4	3	3	1	0	946	1	4	0	216	12	0	0	50
fixed	7	3	1	1385633	4	1	1	1	0	510	1	4	0	200	1	0	0	4
fixed	7	3	2	1387126	1	2	2	1	0	848	1	4	0	208	2	0	0	8
fixed	7	3	3	1388489	6	4	4	1	0	606	1	4	0	224	3	0	0	11
fixed	7	3	4	1389923	2	1	1	1	0	730	1	4	0	200	4	0	0	14
fixed	7	3	5	1391550	5	3	3	2	0	1973	2	4	0	216	5	0	0	17
fixed	7	3	6	1394305	6	4	4	1	0	1064	1	4	0	224	6	0	0	20
fixed	7	3	7	1395745	3	1	1	1	0	755	1	4	0	200	7	0	0	23
fixed	7	3	8	1397341	2	3	3	1	0	896	1	4	0	216	8	0	0	25
fixed	7	3	9	1399191	3	2	2	1	0	625	1	4	0	208	9	0	0	27
fixed	7	3	10	1400378	1	4	4	1	0	671	1	4	0	224	10	0	0	29
fixed	7	3	11	1401900	5	2	2	1	0	1055	1	4	0	208	11	0	0	31
fixed	7	3	12	1403523	4	3	3	1	0	738	1	4	0	216	12	0	0	33
fixed	7	4	1	1405232	4	1	1	1	0	617	1	4	0	200	1	0	0	3
fixed	7	4	2	1406401	1	2	2	1	0	792	1	4	0	208	2	0	0	5
fixed	7	4	3	1407502	6	4	4	1	0	601	1	4	0	224	3	0	0	8
fixed	7	4	4	1408635	2	1	1	1	0	690	1	4	0	200	4	0	0	10
fixed	7	4	5	1409665	5	3	3	1	0	1174	1	4	0	216	5	0	0	12
fixed	7	4	6	1411209	6	4	4	1	0	701	1	4	0	224	6	0	0	14
fixed	7	4	7	1412846	3	1	1	1	0	711	1	4	0	200	7	0	0	16
fixed	7	4	8	1414396	2	3	3	1	0	813	1	4	0	216	8	0	0	18
fixed	7	4	9	1415583	3	2	2	1	0	715	1	4	0	208	9	0	0	20
fixed	7	4	10	1416639	1	4	4	1	0	631	1	4	0	224	10	0	0	22
fixed	7	4	11	1417945	5	2	2	1	0	647	1	4	0	208	11	0	0	23
fixed	7	4	12	1419084	4	3	3	1	0	1023	1	4	0	216	12	0	0	25
fixed	7	5	1	1421087	4	1	1	1	0	594	1	4	0	200	1	0	0	2
fixed	7	5	2	1422313	1	2	2	1	0	758	1	4	0	208	2	0	0	4
fixed	7	5	3	1423490	6	4	4	1	0	532	1	4	0	224	3	0	0	6
fixed	7	5	4	1424935	2	1	1	1	0	791	1	4	0	200	4	0	0	8
fixed	7	5	5	1426642	5	3	3	1	0	855	1	4	0	216	5	0	0	9
fixed	7	5	6	1428290	6	4	4	1	0	609	1	4	0	224	6	0	0	11
fixed	7	5	7	1429622	3	1	1	1	0	624	1	4	0	200	7	0	0	13
fixed	7	5	8	1430772	2	3	3	1	0	1016	1	4	0	216	8	0	0	14
fixed	7	5	9	1432425	3	2	2	1	0	666	1	4	0	208	9	0	0	16
fixed	7	5	10	1433729	1	4	4	1	0	627	1	4	0	224	10	0	0	17
fixed	7	5	11	1434998	5	2	2	1	0	781	1	4	0	208	11	0	0	19
fixed	7	5	12	1436761	4	3	3	1	0	866	1	4	0	216	12	0	0	20
fixed	7	6	1	1438196	4	1	1	1	0	605	1	4	0	200	1	0	0	2
fixed	7	6	2	1439531	1	2	2	1	0	836	1	4	0	208	2	0	0	3
fixed	7	6	3	1441133	6	4	4	1	0	448	1	4	0	224	3	0	0	5
fixed	7	6	4	1442505	2	1	1	2	0	734	2	4	0	200	4	0	0	6
fixed	7	6	5	1444259	5	3	3	1	0	1068	1	4	0	216	5	0	0	8
fixed	7	6	6	1446280	6	4	4	1	0	694	1	4	0	224	6	0	0	9
fixed	7	6	7	1447769	3	1	1	1	0	792	1	4	0	200	7	0	0	10
fixed	7	6	8	1449114	2	3	3	1	0	807	1	4	0	216	8	0	0	12
fixed	7	6	9	1450288	3	2	2	1	0	605	1	4	0	208	9	0	0	13
fixed	7	6	10	1451748	1	4	4	1	0	591	1	4	0	224	10	0	0	14
fixed	7	6	11	1453378	5	2	2	1	0	770	1	4	0	208	11	0	0	15
fixed	7	6	12	1454982	4	3	3	1	0	967	1	4	0	216	12	0	0	17
fixed	7	7	1	1456741	4	1	1	1	0	571	1	4	0	200	1	0	0	1
fixed	7	7	2	1457695	1	2	2	1	0	803	1	4	0	208	2	0	0	3
fixed	7	7	3	1459235	6	4	4	1	0	650	1	4	0	224	3	0	0	4
fixed	7	7	4	1460531	2	1	1	1	0	739	1	4	0	200	4	0	0	5
fixed	7	7	5	1462259	5	3	3	1	0	1002	1	4	0	216	5	0	0	6
fixed	7	7	6	1463968	6	4	4	1	0	898	1	4	0	224	6	0	0	8
fixed	7	7	7	1465505	3	1	1	1	0	681	1	4	0	200	7	0	0	9
fixed	7	7	8	1466909	2	3	3	1	0	709	1	4	0	216	8	0	0	10
fixed	7	7	9	1468215	3	2	2	1	0	550	1	4	0	208	9	0	0	11
fixed	7	7	10	1469379	1	4	4	1	0	741	1	4	0	224	10	0	0	12
fixed	7	7	11	1471119	5	2	2	1	0	707	1	4	0	208	11	0	0	13
fixed	7	7	12	1472295	4	3	3	1	0	1049	1	4	0	216	12	0	0	14
fixed	7	8	1	1474468	4	1	1	1	0	605	1	4	0	200	1	0	0	1
fixed	7	8	2	1475613	1	2	2	1	0	749	1	4	0	208	2	0	0	2
fixed	7	8	3	1476695	6	4	4	1	0	631	1	4	0	224	3	0	0	3
fixed	7	8	4	1478233	2	1	1	1	0	709	1	4	0	200	4	0	0	5
fixed	7	8	5	1479347	5	3	3	1	0	934	1	4	0	216	5	0	0	6
fixed	7	8	6	1481045	6	4	4	1	0	823	1	4	0	224	6	0	0	7
fixed	7	8	7	1482451	3	1	1	1	0	675	1	4	0	200	7	0	0	8
fixed	7	8	8	1483476	2	3	3	1	0	775	1	4	0	216	8	0	0	9
fixed	7	8	9	1485082	3	2	2	1	0	643	1	4	0	208	9	0	0	10
fixed	7	8	10	1486370	1	4	4	1	0	637	1	4	0	224	10	0	0	11
fixed	7	8	11	1487538	5	2	2	1	0	595	1	4	0	208	11	0	0	12
fixed	7	8	12	1488797	4	3	3	1	0	534	1	4	0	216	12	0	0	13
fixed	7	9	1	1489939	4	1	1	1	0	629	1	4	0	200	1	0	0	1
fixed	7	9	2	1490932	1	2	2	1	0	844	1	4	0	208	2	0	0	2
fixed	7	9	3	1492472	6	4	4	1	0	587	1	4	0	224	3	0	0	3
fixed	7	9	4	1493877	2	1	1	1	0	663	1	4	0	200	4	0	0	4
fixed	7	9	5	1495294	5	3	3	1	0	907	1	4	0	216	5	0	0	5
fixed	7	9	6	1496713	6	4	4	1	0	647	1	4	0	224	6	0	0	6
fixed	7	9	7	1498096	3	1	1	1	0	540	1	4	0	200	7	0	0	7
fixed	7	9	8	1499448	2	3	3	1	0	1115	1	4	0	216	8	0	0	8
fixed	7	9	9	1500919	3	2	2	1	0	644	1	4	0	208	9	0	0	9
fixed	7	9	10	1502134	1	4	4	1	0	665	1	4	0	224	10	0	0	9
fixed	7	9	11	1503681	5	2	2	1	0	864	1	4	0	208	11	0	0	10
fixed	7	9	12	1505507	4	3	3	1	0	675	1	4	0	216	12	0	0	11
fixed	7	10	1	1506847	4	1	1	1	0	505	1	4	0	200	1	0	0	1
fixed	7	10	2	1508252	1	2	2	1	0	918	1	4	0	208	2	0	0	2
fixed	7	10	3	1510073	6	4	4	1	0	457	1	4	0	224	3	0	0	3
fixed	7	10	4	1511310	2	1	1	1	0	788	1	4	0	200	4	0	0	4
fixed	7	10	5	1512415	5	3	3	1	0	1286	1	4	0	216	5	0	0	4
fixed	7	10	6	1514378	6	4	4	1	0	611	1	4	0	224	6	0	0	5
fixed	7	10	7	1515511	3	1	1	1	0	579	1	4	0	200	7	0	0	6
fixed	7	10	8	1516554	2	3	3	1	0	1006	1	4	0	216	8	0	0	7
fixed	7	10	9	1518253	3	2	2	1	0	615	1	4	0	208	9	0	0	8
fixed	7	10	10	1519248	1	4	4	1	0	652	1	4	0	224	10	0	0	8
fixed	7	10	11	1520927	5	2	2	1	0	909	1	4	0	208	11	0	0	9
fixed	7	10	12	1522610	4	3	3	1	0	702	1	4	0	216	12	0	0	10
