type	block	sequ.	trial	time	Pos.	Color	Button	NumRsp	Resp_1	RT_1	R_Code	Resp_2	RT_2	Trigg.	n_hit	n_inc	n_miss	score_%

random	1	1	1	3057	6	1	1	1	0	1389	1	4	0	8	1	0	0	100
random	1	1	2	5459	4	4	4	1	0	1320	1	4	0	32	2	0	0	100
random	1	1	3	7634	2	2	0	0	2	0	3	4	0	16	2	0	1	67
random	1	1	4	11011	3	3	3	1	0	1212	1	4	0	24	3	0	1	75
random	1	1	5	12787	5	2	2	1	0	1257	1	4	0	16	4	0	1	80
random	1	1	6	14927	1	4	4	1	0	775	1	4	0	32	5	0	1	83
random	1	1	7	16234	6	1	1	1	0	976	1	4	0	8	6	0	1	86
random	1	1	8	18159	2	3	3	1	0	1166	1	4	0	24	7	0	1	88
random	1	1	9	20179	4	2	2	1	0	1081	1	4	0	16	8	0	1	89
random	1	1	10	21603	1	1	1	1	0	1148	1	4	0	8	9	0	1	90
random	1	1	11	23249	5	4	4	1	0	750	1	4	0	32	10	0	1	91
random	1	1	12	24376	3	3	3	1	0	1358	1	4	0	24	11	0	1	92
random	1	1	13	26933	5	2	2	1	0	1442	1	4	0	16	12	0	1	92
random	1	1	14	29091	1	4	4	1	0	831	1	4	0	32	13	0	1	93
random	1	1	15	30391	3	1	1	1	0	1104	1	4	0	8	14	0	1	93
random	1	1	16	31827	4	3	3	1	0	1251	1	4	0	24	15	0	1	94
random	1	1	17	33538	6	4	4	1	0	682	1	4	0	32	16	0	1	94
random	1	1	18	35103	2	1	1	1	0	1192	1	4	0	8	17	0	1	94
random	1	1	19	37114	5	3	3	1	0	1227	1	4	0	24	18	0	1	95
random	1	1	20	39011	2	2	2	1	0	1154	1	4	0	16	19	0	1	95
random	1	1	21	40812	3	3	3	1	0	1159	1	4	0	24	20	0	1	95
random	1	1	22	42965	6	1	1	1	0	1163	1	4	0	8	21	0	1	95
random	1	1	23	44570	4	2	2	1	0	1407	1	4	0	16	22	0	1	96
random	1	1	24	46339	1	4	4	1	0	596	1	4	0	32	23	0	1	96
random	1	1	25	47602	4	3	3	1	0	1471	1	4	0	24	24	0	1	96
random	1	1	26	49921	2	1	1	1	0	1029	1	4	0	8	25	0	1	96
random	1	1	27	51966	5	2	2	1	0	1174	1	4	0	16	26	0	1	96
random	1	1	28	53594	6	4	4	1	0	601	1	4	0	32	27	0	1	96
random	1	1	29	54605	1	3	3	1	0	1094	1	4	0	24	28	0	1	97
random	1	1	30	56195	5	2	2	1	0	1331	1	4	0	16	29	0	1	97
random	1	1	31	58226	2	1	1	1	0	884	1	4	0	8	30	0	1	97
random	1	1	32	59907	3	3	3	1	0	1262	1	4	0	24	31	0	1	97
random	1	1	33	61826	6	4	4	1	0	748	1	4	0	32	32	0	1	97
random	1	1	34	63062	4	2	2	1	0	1216	1	4	0	16	33	0	1	97
random	1	1	35	64879	3	4	4	1	0	811	1	4	0	32	34	0	1	97
random	1	1	36	66195	1	1	1	1	0	899	1	4	0	8	35	0	1	97
random	1	1	37	68002	3	4	4	1	0	847	1	4	0	32	36	0	1	97
random	1	1	38	69415	5	3	3	1	0	1115	1	4	0	24	37	0	1	97
random	1	1	39	70816	6	1	1	1	0	856	1	4	0	8	38	0	1	97
random	1	1	40	72160	1	2	2	1	0	846	1	4	0	16	39	0	1	98
random	1	1	41	73655	2	3	3	1	0	1015	1	4	0	24	40	0	1	98
random	1	1	42	75345	4	4	4	1	0	728	1	4	0	32	41	0	1	98
random	1	1	43	76926	1	2	2	1	0	1101	1	4	0	16	42	0	1	98
random	1	1	44	78636	6	3	3	1	0	948	1	4	0	24	43	0	1	98
random	1	1	45	79895	3	1	1	1	0	895	1	4	0	8	44	0	1	98
random	1	1	46	81807	4	4	4	1	0	582	1	4	0	32	45	0	1	98
random	1	1	47	83145	2	2	2	1	0	981	1	4	0	16	46	0	1	98
random	1	1	48	85033	5	1	1	1	0	981	1	4	0	8	47	0	1	98
random	1	1	49	87166	2	3	3	1	0	1227	1	4	0	24	48	0	1	98
random	1	1	50	89037	3	1	1	1	0	956	1	4	0	8	49	0	1	98
random	1	1	51	90373	1	4	4	1	0	627	1	4	0	32	50	0	1	98
random	1	1	52	91480	5	3	3	1	0	1732	1	4	0	24	51	0	1	98
random	1	1	53	93681	3	2	2	1	0	703	1	4	0	16	52	0	1	98
random	1	1	54	94972	6	4	4	1	0	696	1	4	0	32	53	0	1	98
random	1	1	55	96180	4	2	2	1	0	925	1	4	0	16	54	0	1	98
random	1	1	56	97496	1	1	1	1	0	926	1	4	0	8	55	0	1	98
random	1	1	57	99407	5	4	4	1	0	605	1	4	0	32	56	0	1	98
random	1	1	58	100980	2	1	1	1	0	786	1	4	0	8	57	0	1	98
random	1	1	59	102586	6	2	0	1	2	0	3	4	0	16	57	0	2	97
random	1	1	60	106082	4	3	3	1	0	1378	1	4	0	24	58	0	2	97
random	1	1	61	108718	1	2	2	1	0	1042	1	4	0	16	59	0	2	97
random	1	1	62	110179	6	4	4	1	0	1012	1	4	0	32	60	0	2	97
random	1	1	63	111774	4	1	1	1	0	728	1	4	0	8	61	0	2	97
random	1	1	64	112894	2	2	2	1	0	921	1	4	0	16	62	0	2	97
random	1	1	65	114735	4	3	3	1	0	843	1	4	0	24	63	0	2	97
random	1	1	66	116426	3	1	1	1	0	868	1	4	0	8	64	0	2	97
random	1	1	67	117811	1	3	3	1	0	1201	1	4	0	24	65	0	2	97
random	1	1	68	119852	5	4	4	1	0	827	1	4	0	32	66	0	2	97
random	1	1	69	121335	2	2	2	1	0	732	1	4	0	16	67	0	2	97
random	1	1	70	122841	3	1	1	1	0	868	1	4	0	8	68	0	2	97
random	1	1	71	124627	5	4	4	1	0	744	1	4	0	32	69	0	2	97
random	1	1	72	125734	6	3	3	1	0	1610	1	4	0	24	70	0	2	97
random	1	1	73	128400	2	1	1	1	0	1144	1	4	0	8	71	0	2	97
random	1	1	74	130538	5	3	3	1	0	1150	1	4	0	24	72	0	2	97
random	1	1	75	132068	1	4	4	1	0	1093	1	4	0	32	73	0	2	97
random	1	1	76	133787	6	2	2	1	0	924	1	4	0	16	74	0	2	97
random	1	1	77	135354	2	1	1	1	0	890	1	4	0	8	75	0	2	97
random	1	1	78	137066	4	4	4	1	0	690	1	4	0	32	76	0	2	97
random	1	1	79	138465	3	2	2	1	0	806	1	4	0	16	77	0	2	97
random	1	1	80	139820	4	3	3	1	0	1093	1	4	0	24	78	0	2	98
random	1	1	81	141807	1	4	4	1	0	689	1	4	0	32	79	0	2	98
random	1	1	82	143414	5	1	1	1	0	685	1	4	0	8	80	0	2	98
random	1	1	83	144588	3	2	2	1	0	955	1	4	0	16	81	0	2	98
random	1	1	84	146138	6	3	3	1	0	810	1	4	0	24	82	0	2	98
random	1	1	85	147564	3	2	2	1	0	1501	1	4	0	16	83	0	2	98
random	1	1	86	149805	1	3	3	1	0	838	1	4	0	24	84	0	2	98
random	1	1	87	151183	4	4	4	1	0	796	1	4	0	32	85	0	2	98
random	1	1	88	152316	2	1	1	1	0	1100	1	4	0	8	86	0	2	98
random	1	1	89	153743	6	4	4	1	0	1040	1	4	0	32	87	0	2	98
random	1	1	90	155640	3	3	3	1	0	703	1	4	0	24	88	0	2	98
random	1	1	91	156910	5	4	4	1	0	1105	1	4	0	32	89	0	2	98
random	1	1	92	158618	1	2	2	1	0	993	1	4	0	16	90	0	2	98
random	1	1	93	160590	5	1	1	1	0	917	1	4	0	8	91	0	2	98
random	1	1	94	162036	4	3	3	1	0	1096	1	4	0	24	92	0	2	98
random	1	1	95	164072	6	1	1	1	0	921	1	4	0	8	93	0	2	98
random	1	1	96	165547	2	2	2	1	0	931	1	4	0	16	94	0	2	98
random	1	1	97	167112	4	3	3	1	0	969	1	4	0	24	95	0	2	98
random	1	1	98	168690	3	2	2	1	0	1046	1	4	0	16	96	0	2	98
random	1	1	99	170414	6	3	3	1	0	805	1	4	0	24	97	0	2	98
random	1	1	100	171868	1	4	4	1	0	824	1	4	0	32	98	0	2	98
random	1	1	101	173236	4	1	1	1	0	830	1	4	0	8	99	0	2	98
random	1	1	102	174360	5	2	2	1	0	1142	1	4	0	16	100	0	2	98
random	1	1	103	176473	2	4	4	1	0	940	1	4	0	32	101	0	2	98
random	1	1	104	178439	3	1	1	1	0	705	1	4	0	8	102	0	2	98
random	1	1	105	179743	1	3	3	2	0	1858	2	4	0	24	103	0	2	98
random	1	1	106	182131	2	2	2	1	0	893	1	4	0	16	104	0	2	98
random	1	1	107	183343	5	4	4	1	0	842	1	4	0	32	105	0	2	98
random	1	1	108	185054	6	1	1	1	0	793	1	4	0	8	106	0	2	98
random	1	1	109	186593	5	4	4	1	0	736	1	4	0	32	107	0	2	98
random	1	1	110	188313	6	3	3	2	0	1831	2	4	0	24	108	0	2	98
random	1	1	111	190839	2	2	2	1	0	772	1	4	0	16	109	0	2	98
random	1	1	112	192269	3	1	1	1	0	920	1	4	0	8	110	0	2	98
random	1	1	113	193809	1	2	2	1	0	942	1	4	0	16	111	0	2	98
random	1	1	114	195429	2	3	3	1	0	849	1	4	0	24	112	0	2	98
random	1	1	115	197217	3	1	1	1	0	750	1	4	0	8	113	0	2	98
random	1	1	116	198992	4	4	4	1	0	762	1	4	0	32	114	0	2	98
random	1	1	117	200757	6	1	1	1	0	824	1	4	0	8	115	0	2	98
random	1	1	118	202601	5	3	3	1	0	954	1	4	0	24	116	0	2	98
random	1	1	119	204007	1	4	4	1	0	1054	1	4	0	32	117	0	2	98
random	1	1	120	205812	4	2	2	1	0	938	1	4	0	16	118	0	2	98
fixed	2	1	1	207843	4	1	1	1	0	1043	1	4	0	40	1	0	0	100
fixed	2	1	2	209584	1	2	2	1	0	890	1	4	0	48	2	0	0	100
fixed	2	1	3	211098	6	4	4	1	0	1066	1	4	0	64	3	0	0	100
fixed	2	1	4	213010	2	1	1	1	0	817	1	4	0	40	4	0	0	100
fixed	2	1	5	214492	5	3	3	1	0	922	1	4	0	56	5	0	0	100
fixed	2	1	6	216449	6	4	4	1	0	759	1	4	0	64	6	0	0	100
fixed	2	1	7	218139	3	1	1	1	0	752	1	4	0	40	7	0	0	100
fixed	2	1	8	219686	2	3	3	2	0	1798	2	4	0	56	8	0	0	100
fixed	2	1	9	221910	3	2	2	1	0	1264	1	4	0	48	9	0	0	100
fixed	2	1	10	223466	1	4	4	1	0	990	1	4	0	64	10	0	0	100
fixed	2	1	11	225395	5	2	2	1	0	1012	1	4	0	48	11	0	0	100
fixed	2	1	12	227093	4	3	3	1	0	788	1	4	0	56	12	0	0	100
fixed	2	2	1	228913	4	1	1	1	0	951	1	4	0	40	13	0	0	100
fixed	2	2	2	230660	1	2	2	1	0	893	1	4	0	48	14	0	0	100
fixed	2	2	3	232141	6	4	4	1	0	759	1	4	0	64	15	0	0	100
fixed	2	2	4	233751	2	1	1	1	0	859	1	4	0	40	16	0	0	100
fixed	2	2	5	234949	5	3	3	1	0	1576	1	4	0	56	17	0	0	100
fixed	2	2	6	237212	6	4	4	1	0	672	1	4	0	64	18	0	0	100
fixed	2	2	7	238808	3	1	1	1	0	764	1	4	0	40	19	0	0	100
fixed	2	2	8	239976	2	3	3	1	0	1331	1	4	0	56	20	0	0	100
fixed	2	2	9	241984	3	2	2	1	0	678	1	4	0	48	21	0	0	100
fixed	2	2	10	243459	1	4	4	1	0	735	1	4	0	64	22	0	0	100
fixed	2	2	11	244662	5	2	2	1	0	1084	1	4	0	48	23	0	0	100
fixed	2	2	12	246725	4	3	3	1	0	973	1	4	0	56	24	0	0	100
fixed	2	3	1	248846	4	1	1	1	0	835	1	4	0	40	25	0	0	100
fixed	2	3	2	250627	1	2	2	1	0	920	1	4	0	48	26	0	0	100
fixed	2	3	3	252332	6	4	4	1	0	928	1	4	0	64	27	0	0	100
fixed	2	3	4	254210	2	1	1	1	0	656	1	4	0	40	28	0	0	100
fixed	2	3	5	255717	5	3	3	1	0	888	1	4	0	56	29	0	0	100
fixed	2	3	6	257170	6	4	4	1	0	770	1	4	0	64	30	0	0	100
fixed	2	3	7	258789	3	1	1	1	0	918	1	4	0	40	31	0	0	100
fixed	2	3	8	260702	2	3	3	1	0	1309	1	4	0	56	32	0	0	100
fixed	2	3	9	262303	3	2	2	1	0	865	1	4	0	48	33	0	0	100
fixed	2	3	10	263729	1	4	4	1	0	764	1	4	0	64	34	0	0	100
fixed	2	3	11	264892	5	2	2	1	0	1132	1	4	0	48	35	0	0	100
fixed	2	3	12	266883	4	3	3	1	0	735	1	4	0	56	36	0	0	100
fixed	2	4	1	268761	4	1	1	1	0	751	1	4	0	40	37	0	0	100
fixed	2	4	2	270453	1	2	2	1	0	1016	1	4	0	48	38	0	0	100
fixed	2	4	3	272130	6	4	4	1	0	681	1	4	0	64	39	0	0	100
fixed	2	4	4	273103	2	1	1	1	0	1031	1	4	0	40	40	0	0	100
fixed	2	4	5	274650	5	3	3	1	0	934	1	4	0	56	41	0	0	100
fixed	2	4	6	276598	6	4	4	1	0	907	1	4	0	64	42	0	0	100
fixed	2	4	7	278106	3	1	1	1	0	988	1	4	0	40	43	0	0	100
fixed	2	4	8	279783	2	3	3	1	0	1157	1	4	0	56	44	0	0	100
fixed	2	4	9	281361	3	2	2	1	0	754	1	4	0	48	45	0	0	100
fixed	2	4	10	283073	1	4	4	1	0	1042	1	4	0	64	46	0	0	100
fixed	2	4	11	284616	5	2	2	1	0	1072	1	4	0	48	47	0	0	100
fixed	2	4	12	286579	4	3	3	1	0	837	1	4	0	56	48	0	0	100
fixed	2	5	1	288159	4	1	1	1	0	850	1	4	0	40	49	0	0	100
fixed	2	5	2	289439	1	2	2	1	0	1172	1	4	0	48	50	0	0	100
fixed	2	5	3	291643	6	4	4	1	0	647	1	4	0	64	51	0	0	100
fixed	2	5	4	293127	2	1	1	1	0	712	1	4	0	40	52	0	0	100
fixed	2	5	5	294842	5	3	3	1	0	1303	1	4	0	56	53	0	0	100
fixed	2	5	6	296928	6	4	4	1	0	694	1	4	0	64	54	0	0	100
fixed	2	5	7	298221	3	1	1	1	0	744	1	4	0	40	55	0	0	100
fixed	2	5	8	299673	2	3	3	1	0	1138	1	4	0	56	56	0	0	100
fixed	2	5	9	301828	3	2	2	1	0	735	1	4	0	48	57	0	0	100
fixed	2	5	10	302984	1	4	4	1	0	974	1	4	0	64	58	0	0	100
fixed	2	5	11	304332	5	2	2	1	0	1477	1	4	0	48	59	0	0	100
fixed	2	5	12	306103	4	3	3	1	0	930	1	4	0	56	60	0	0	100
fixed	2	6	1	307723	4	1	1	1	0	965	1	4	0	40	61	0	0	100
fixed	2	6	2	309694	1	2	2	1	0	1058	1	4	0	48	62	0	0	100
fixed	2	6	3	311093	6	4	4	1	0	751	1	4	0	64	63	0	0	100
fixed	2	6	4	312173	2	1	1	1	0	905	1	4	0	40	64	0	0	100
fixed	2	6	5	314036	5	3	3	1	0	1450	1	4	0	56	65	0	0	100
fixed	2	6	6	315933	6	4	4	1	0	1194	1	4	0	64	66	0	0	100
fixed	2	6	7	317681	3	1	1	1	0	895	1	4	0	40	67	0	0	100
fixed	2	6	8	319419	2	3	3	2	0	1430	2	4	0	56	68	0	0	100
fixed	2	6	9	321225	3	2	2	1	0	937	1	4	0	48	69	0	0	100
fixed	2	6	10	322918	1	4	4	1	0	850	1	4	0	64	70	0	0	100
fixed	2	6	11	324217	5	2	2	1	0	1467	1	4	0	48	71	0	0	100
fixed	2	6	12	326337	4	3	3	1	0	793	1	4	0	56	72	0	0	100
fixed	2	7	1	328224	4	1	1	1	0	1001	1	4	0	40	73	0	0	100
fixed	2	7	2	330017	1	2	2	1	0	1165	1	4	0	48	74	0	0	100
fixed	2	7	3	331864	6	4	4	1	0	943	1	4	0	64	75	0	0	100
fixed	2	7	4	333394	2	1	1	1	0	814	1	4	0	40	76	0	0	100
fixed	2	7	5	334633	5	3	3	1	0	1034	1	4	0	56	77	0	0	100
fixed	2	7	6	336272	6	4	4	1	0	796	1	4	0	64	78	0	0	100
fixed	2	7	7	337714	3	1	1	1	0	831	1	4	0	40	79	0	0	100
fixed	2	7	8	339126	2	3	3	1	0	1291	1	4	0	56	80	0	0	100
fixed	2	7	9	341234	3	2	2	1	0	668	1	4	0	48	81	0	0	100
fixed	2	7	10	342675	1	4	4	1	0	637	1	4	0	64	82	0	0	100
fixed	2	7	11	343616	5	2	2	1	0	1109	1	4	0	48	83	0	0	100
fixed	2	7	12	345585	4	3	3	1	0	914	1	4	0	56	84	0	0	100
fixed	2	8	1	347454	4	1	1	1	0	786	1	4	0	40	85	0	0	100
fixed	2	8	2	349087	1	2	0	1	2	0	3	4	0	48	85	0	1	99
fixed	2	8	3	352309	6	4	4	1	0	837	1	4	0	64	86	0	1	99
fixed	2	8	4	354117	2	1	1	1	0	777	1	4	0	40	87	0	1	99
fixed	2	8	5	355648	5	3	3	1	0	872	1	4	0	56	88	0	1	99
fixed	2	8	6	356966	6	4	4	1	0	1032	1	4	0	64	89	0	1	99
fixed	2	8	7	358836	3	1	1	1	0	696	1	4	0	40	90	0	1	99
fixed	2	8	8	360558	2	3	3	1	0	1007	1	4	0	56	91	0	1	99
fixed	2	8	9	362156	3	2	2	1	0	836	1	4	0	48	92	0	1	99
fixed	2	8	10	363452	1	4	4	1	0	749	1	4	0	64	93	0	1	99
fixed	2	8	11	364568	5	2	2	1	0	1142	1	4	0	48	94	0	1	99
fixed	2	8	12	366595	4	3	3	1	0	912	1	4	0	56	95	0	1	99
fixed	2	9	1	368656	4	1	1	1	0	728	1	4	0	40	96	0	1	99
fixed	2	9	2	369680	1	2	2	1	0	1029	1	4	0	48	97	0	1	99
fixed	2	9	3	371394	6	4	4	1	0	652	1	4	0	64	98	0	1	99
fixed	2	9	4	373038	2	1	1	1	0	975	1	4	0	40	99	0	1	99
fixed	2	9	5	374799	5	3	3	1	0	829	1	4	0	56	100	0	1	99
fixed	2	9	6	376480	6	4	4	1	0	605	1	4	0	64	101	0	1	99
fixed	2	9	7	377623	3	1	1	1	0	773	1	4	0	40	102	0	1	99
fixed	2	9	8	378754	2	3	3	1	0	1301	1	4	0	56	103	0	1	99
fixed	2	9	9	380952	3	2	2	1	0	615	1	4	0	48	104	0	1	99
fixed	2	9	10	382162	1	4	4	1	0	836	1	4	0	64	105	0	1	99
fixed	2	9	11	383444	5	2	2	1	0	982	1	4	0	48	106	0	1	99
fixed	2	9	12	385068	4	3	3	1	0	857	1	4	0	56	107	0	1	99
fixed	2	10	1	386985	4	1	1	1	0	800	1	4	0	40	108	0	1	99
fixed	2	10	2	388543	1	2	2	1	0	1150	1	4	0	48	109	0	1	99
fixed	2	10	3	390369	6	4	4	1	0	705	1	4	0	64	110	0	1	99
fixed	2	10	4	391542	2	1	1	1	0	1023	1	4	0	40	111	0	1	99
fixed	2	10	5	393058	5	3	3	1	0	1007	1	4	0	56	112	0	1	99
fixed	2	10	6	394868	6	4	4	1	0	682	1	4	0	64	113	0	1	99
fixed	2	10	7	396337	3	1	1	1	0	828	1	4	0	40	114	0	1	99
fixed	2	10	8	397736	2	3	3	1	0	1473	1	4	0	56	115	0	1	99
fixed	2	10	9	399902	3	2	2	1	0	717	1	4	0	48	116	0	1	99
fixed	2	10	10	401449	1	4	4	1	0	508	1	4	0	64	117	0	1	99
fixed	2	10	11	402536	5	2	2	1	0	1102	1	4	0	48	118	0	1	99
fixed	2	10	12	404429	4	3	3	1	0	645	1	4	0	56	119	0	1	99
fixed	3	1	1	406146	4	1	1	1	0	892	1	4	0	72	1	0	0	100
fixed	3	1	2	407843	1	2	2	1	0	1045	1	4	0	80	2	0	0	100
fixed	3	1	3	409502	6	4	4	1	0	727	1	4	0	96	3	0	0	100
fixed	3	1	4	410706	2	1	1	1	0	708	1	4	0	72	4	0	0	100
fixed	3	1	5	412284	5	3	3	1	0	873	1	4	0	88	5	0	0	100
fixed	3	1	6	413989	6	4	4	1	0	648	1	4	0	96	6	0	0	100
fixed	3	1	7	415336	3	1	1	1	0	719	1	4	0	72	7	0	0	100
fixed	3	1	8	416909	2	3	3	2	0	1781	2	4	0	88	8	0	0	100
fixed	3	1	9	419439	3	2	2	1	0	754	1	4	0	80	9	0	0	100
fixed	3	1	10	420812	1	4	4	1	0	800	1	4	0	96	10	0	0	100
fixed	3	1	11	422178	5	2	2	1	0	942	1	4	0	80	11	0	0	100
fixed	3	1	12	423835	4	3	3	1	0	904	1	4	0	88	12	0	0	100
fixed	3	2	1	425963	4	1	1	1	0	773	1	4	0	72	13	0	0	100
fixed	3	2	2	427411	1	2	2	1	0	840	1	4	0	80	14	0	0	100
fixed	3	2	3	428770	6	4	4	1	0	862	1	4	0	96	15	0	0	100
fixed	3	2	4	429937	2	1	1	1	0	981	1	4	0	72	16	0	0	100
fixed	3	2	5	431271	5	3	3	1	0	1069	1	4	0	88	17	0	0	100
fixed	3	2	6	432842	6	4	4	1	0	802	1	4	0	96	18	0	0	100
fixed	3	2	7	434251	3	1	1	1	0	926	1	4	0	72	19	0	0	100
fixed	3	2	8	436035	2	3	3	1	0	1059	1	4	0	88	20	0	0	100
fixed	3	2	9	438076	3	2	2	1	0	1012	1	4	0	80	21	0	0	100
fixed	3	2	10	439982	1	4	4	1	0	571	1	4	0	96	22	0	0	100
fixed	3	2	11	441562	5	2	0	1	2	0	3	4	0	80	22	0	1	96
fixed	3	2	12	444954	4	3	3	1	0	1137	1	4	0	88	23	0	1	96
fixed	3	3	1	447065	4	1	1	1	0	791	1	4	0	72	24	0	1	96
fixed	3	3	2	448612	1	2	2	1	0	958	1	4	0	80	25	0	1	96
fixed	3	3	3	450418	6	4	4	1	0	730	1	4	0	96	26	0	1	96
fixed	3	3	4	451893	2	1	1	1	0	787	1	4	0	72	27	0	1	96
fixed	3	3	5	453489	5	3	3	1	0	935	1	4	0	88	28	0	1	97
fixed	3	3	6	455281	6	4	4	1	0	1300	1	4	0	96	29	0	1	97
fixed	3	3	7	457041	3	1	1	1	0	905	1	4	0	72	30	0	1	97
fixed	3	3	8	458442	2	3	3	1	0	1053	1	4	0	88	31	0	1	97
fixed	3	3	9	459965	3	2	2	1	0	853	1	4	0	80	32	0	1	97
fixed	3	3	10	461529	1	4	4	1	0	755	1	4	0	96	33	0	1	97
fixed	3	3	11	463252	5	2	2	1	0	1074	1	4	0	80	34	0	1	97
fixed	3	3	12	464967	4	3	3	1	0	833	1	4	0	88	35	0	1	97
fixed	3	4	1	466530	4	1	1	1	0	767	1	4	0	72	36	0	1	97
fixed	3	4	2	467934	1	2	2	1	0	1107	1	4	0	80	37	0	1	97
fixed	3	4	3	469926	6	4	4	1	0	1047	1	4	0	96	38	0	1	97
fixed	3	4	4	471274	2	1	1	1	0	1582	1	4	0	72	39	0	1	98
fixed	3	4	5	473243	5	3	3	1	0	1011	1	4	0	88	40	0	1	98
fixed	3	4	6	474651	6	4	4	1	0	991	1	4	0	96	41	0	1	98
fixed	3	4	7	476601	3	1	1	1	0	877	1	4	0	72	42	0	1	98
fixed	3	4	8	478360	2	3	3	1	0	1314	1	4	0	88	43	0	1	98
fixed	3	4	9	480113	3	2	2	1	0	1495	1	4	0	80	44	0	1	98
fixed	3	4	10	482103	1	4	4	1	0	987	1	4	0	96	45	0	1	98
fixed	3	4	11	483535	5	2	2	1	0	1047	1	4	0	80	46	0	1	98
fixed	3	4	12	485005	4	3	3	1	0	913	1	4	0	88	47	0	1	98
fixed	3	5	1	487030	4	1	1	1	0	747	1	4	0	72	48	0	1	98
fixed	3	5	2	488156	1	2	2	1	0	1035	1	4	0	80	49	0	1	98
fixed	3	5	3	489922	6	4	4	1	0	872	1	4	0	96	50	0	1	98
fixed	3	5	4	491333	2	1	1	1	0	965	1	4	0	72	51	0	1	98
fixed	3	5	5	493081	5	3	3	1	0	930	1	4	0	88	52	0	1	98
fixed	3	5	6	494844	6	4	4	1	0	664	1	4	0	96	53	0	1	98
fixed	3	5	7	496488	3	1	1	1	0	834	1	4	0	72	54	0	1	98
fixed	3	5	8	497951	2	3	3	1	0	1308	1	4	0	88	55	0	1	98
fixed	3	5	9	500269	3	2	2	1	0	642	1	4	0	80	56	0	1	98
fixed	3	5	10	501919	1	4	4	1	0	436	1	4	0	96	57	0	1	98
fixed	3	5	11	502933	5	2	2	1	0	1225	1	4	0	80	58	0	1	98
fixed	3	5	12	504805	4	3	3	1	0	698	1	4	0	88	59	0	1	98
fixed	3	6	1	506227	4	1	1	1	0	702	1	4	0	72	60	0	1	98
fixed	3	6	2	507688	1	2	2	1	0	1056	1	4	0	80	61	0	1	98
fixed	3	6	3	509758	6	4	4	1	0	704	1	4	0	96	62	0	1	98
fixed	3	6	4	511240	2	1	1	1	0	849	1	4	0	72	63	0	1	98
fixed	3	6	5	512528	5	3	3	1	0	1075	1	4	0	88	64	0	1	98
fixed	3	6	6	513913	6	4	4	1	0	976	1	4	0	96	65	0	1	98
fixed	3	6	7	515682	3	1	1	1	0	917	1	4	0	72	66	0	1	99
fixed	3	6	8	516989	2	3	3	1	0	1718	1	4	0	88	67	0	1	99
fixed	3	6	9	519448	3	2	2	1	0	654	1	4	0	80	68	0	1	99
fixed	3	6	10	520545	1	4	4	1	0	815	1	4	0	96	69	0	1	99
fixed	3	6	11	521763	5	2	2	1	0	851	1	4	0	80	70	0	1	99
fixed	3	6	12	523145	4	3	3	1	0	833	1	4	0	88	71	0	1	99
fixed	3	7	1	524990	4	1	1	1	0	875	1	4	0	72	72	0	1	99
fixed	3	7	2	526537	1	2	2	1	0	954	1	4	0	80	73	0	1	99
fixed	3	7	3	528287	6	4	4	1	0	735	1	4	0	96	74	0	1	99
fixed	3	7	4	529490	2	1	1	1	0	892	1	4	0	72	75	0	1	99
fixed	3	7	5	531286	5	3	3	1	0	840	1	4	0	88	76	0	1	99
fixed	3	7	6	532777	6	4	4	1	0	689	1	4	0	96	77	0	1	99
fixed	3	7	7	533987	3	1	1	1	0	750	1	4	0	72	78	0	1	99
fixed	3	7	8	535339	2	3	3	1	0	949	1	4	0	88	79	0	1	99
fixed	3	7	9	536700	3	2	2	1	0	995	1	4	0	80	80	0	1	99
fixed	3	7	10	537993	1	4	4	1	0	1068	1	4	0	96	81	0	1	99
fixed	3	7	11	539584	5	2	2	1	0	1073	1	4	0	80	82	0	1	99
fixed	3	7	12	541351	4	3	3	1	0	806	1	4	0	88	83	0	1	99
fixed	3	8	1	543001	4	1	1	1	0	800	1	4	0	72	84	0	1	99
fixed	3	8	2	544415	1	2	2	1	0	860	1	4	0	80	85	0	1	99
fixed	3	8	3	545986	6	4	4	1	0	602	1	4	0	96	86	0	1	99
fixed	3	8	4	547518	2	1	1	1	0	1025	1	4	0	72	87	0	1	99
fixed	3	8	5	549440	5	3	3	1	0	775	1	4	0	88	88	0	1	99
fixed	3	8	6	550883	6	4	4	1	0	763	1	4	0	96	89	0	1	99
fixed	3	8	7	552062	3	1	1	1	0	840	1	4	0	72	90	0	1	99
fixed	3	8	8	553354	2	3	3	1	0	1074	1	4	0	88	91	0	1	99
fixed	3	8	9	555235	3	2	2	1	0	682	1	4	0	80	92	0	1	99
fixed	3	8	10	556209	1	4	4	1	0	977	1	4	0	96	93	0	1	99
fixed	3	8	11	557532	5	2	2	1	0	1009	1	4	0	80	94	0	1	99
fixed	3	8	12	559104	4	3	3	1	0	1119	1	4	0	88	95	0	1	99
fixed	3	9	1	560794	4	1	1	1	0	862	1	4	0	72	96	0	1	99
fixed	3	9	2	562696	1	2	2	1	0	1142	1	4	0	80	97	0	1	99
fixed	3	9	3	564228	6	4	4	1	0	629	1	4	0	96	98	0	1	99
fixed	3	9	4	565286	2	1	1	1	0	864	1	4	0	72	99	0	1	99
fixed	3	9	5	566754	5	3	3	1	0	866	1	4	0	88	100	0	1	99
fixed	3	9	6	568155	6	4	4	1	0	735	1	4	0	96	101	0	1	99
fixed	3	9	7	569205	3	1	1	1	0	946	1	4	0	72	102	0	1	99
fixed	3	9	8	570693	2	3	3	1	0	963	1	4	0	88	103	0	1	99
fixed	3	9	9	572090	3	2	2	1	0	1240	1	4	0	80	104	0	1	99
fixed	3	9	10	574237	1	4	4	1	0	637	1	4	0	96	105	0	1	99
fixed	3	9	11	575322	5	2	2	1	0	1111	1	4	0	80	106	0	1	99
fixed	3	9	12	577364	4	3	3	1	0	1025	1	4	0	88	107	0	1	99
fixed	3	10	1	579089	4	1	1	1	0	847	1	4	0	72	108	0	1	99
fixed	3	10	2	580847	1	2	2	2	0	2093	2	4	0	80	109	0	1	99
fixed	3	10	3	583757	6	4	4	1	0	906	1	4	0	96	110	0	1	99
fixed	3	10	4	585463	2	1	1	1	0	874	1	4	0	72	111	0	1	99
fixed	3	10	5	586932	5	3	3	1	0	1028	1	4	0	88	112	0	1	99
fixed	3	10	6	588343	6	4	4	1	0	903	1	4	0	96	113	0	1	99
fixed	3	10	7	590242	3	1	1	1	0	695	1	4	0	72	114	0	1	99
fixed	3	10	8	591531	2	3	3	1	0	1033	1	4	0	88	115	0	1	99
fixed	3	10	9	593425	3	2	2	1	0	672	1	4	0	80	116	0	1	99
fixed	3	10	10	594455	1	4	4	1	0	997	1	4	0	96	117	0	1	99
fixed	3	10	11	596250	5	2	2	1	0	1425	1	4	0	80	118	0	1	99
fixed	3	10	12	597974	4	3	3	1	0	904	1	4	0	88	119	0	1	99
fixed	4	1	1	804139	4	1	1	1	0	1811	1	4	0	104	1	0	0	100
fixed	4	1	2	806467	1	2	2	1	0	865	1	4	0	112	2	0	0	100
fixed	4	1	3	808003	6	4	4	1	0	664	1	4	0	128	3	0	0	100
fixed	4	1	4	809693	2	1	1	1	0	928	1	4	0	104	4	0	0	100
fixed	4	1	5	811064	5	3	3	1	0	1110	1	4	0	120	5	0	0	100
fixed	4	1	6	812609	6	4	4	1	0	901	1	4	0	128	6	0	0	100
fixed	4	1	7	814296	3	1	1	1	0	1054	1	4	0	104	7	0	0	100
fixed	4	1	8	815755	2	3	3	1	0	1031	1	4	0	120	8	0	0	100
fixed	4	1	9	817433	3	2	2	1	0	665	1	4	0	112	9	0	0	100
fixed	4	1	10	819066	1	4	4	1	0	595	1	4	0	128	10	0	0	100
fixed	4	1	11	820363	5	2	2	1	0	972	1	4	0	112	11	0	0	100
fixed	4	1	12	821951	4	3	3	1	0	945	1	4	0	120	12	0	0	100
fixed	4	2	1	824157	4	1	1	1	0	892	1	4	0	104	13	0	0	100
fixed	4	2	2	825660	1	2	2	1	0	1004	1	4	0	112	14	0	0	100
fixed	4	2	3	827094	6	4	4	1	0	864	1	4	0	128	15	0	0	100
fixed	4	2	4	828290	2	1	1	1	0	1133	1	4	0	104	16	0	0	100
fixed	4	2	5	830098	5	3	3	1	0	848	1	4	0	120	17	0	0	100
fixed	4	2	6	831848	6	4	4	1	0	654	1	4	0	128	18	0	0	100
fixed	4	2	7	833209	3	1	1	1	0	829	1	4	0	104	19	0	0	100
fixed	4	2	8	834962	2	3	3	1	0	890	1	4	0	120	20	0	0	100
fixed	4	2	9	836707	3	2	2	1	0	592	1	4	0	112	21	0	0	100
fixed	4	2	10	837936	1	4	4	1	0	788	1	4	0	128	22	0	0	100
fixed	4	2	11	839298	5	2	2	1	0	1178	1	4	0	112	23	0	0	100
fixed	4	2	12	840910	4	3	3	1	0	798	1	4	0	120	24	0	0	100
fixed	4	3	1	842636	4	1	1	1	0	829	1	4	0	104	25	0	0	100
fixed	4	3	2	843879	1	2	2	1	0	1121	1	4	0	112	26	0	0	100
fixed	4	3	3	846032	6	4	4	1	0	725	1	4	0	128	27	0	0	100
fixed	4	3	4	847486	2	1	1	1	0	790	1	4	0	104	28	0	0	100
fixed	4	3	5	849110	5	3	3	1	0	899	1	4	0	120	29	0	0	100
fixed	4	3	6	850499	6	4	4	1	0	1072	1	4	0	128	30	0	0	100
fixed	4	3	7	851869	3	1	1	1	0	1094	1	4	0	104	31	0	0	100
fixed	4	3	8	853824	2	3	3	1	0	1259	1	4	0	120	32	0	0	100
fixed	4	3	9	855927	3	2	2	1	0	562	1	4	0	112	33	0	0	100
fixed	4	3	10	857146	1	4	4	1	0	855	1	4	0	128	34	0	0	100
fixed	4	3	11	858749	5	2	2	1	0	1179	1	4	0	112	35	0	0	100
fixed	4	3	12	860823	4	3	3	1	0	707	1	4	0	120	36	0	0	100
fixed	4	4	1	862418	4	1	1	1	0	759	1	4	0	104	37	0	0	100
fixed	4	4	2	863771	1	2	2	1	0	1046	1	4	0	112	38	0	0	100
fixed	4	4	3	865250	6	4	4	1	0	1031	1	4	0	128	39	0	0	100
fixed	4	4	4	866949	2	1	1	1	0	951	1	4	0	104	40	0	0	100
fixed	4	4	5	868853	5	3	3	1	0	1159	1	4	0	120	41	0	0	100
fixed	4	4	6	870835	6	4	4	1	0	819	1	4	0	128	42	0	0	100
fixed	4	4	7	872403	3	1	1	1	0	801	1	4	0	104	43	0	0	100
fixed	4	4	8	873796	2	3	3	1	0	1157	1	4	0	120	44	0	0	100
fixed	4	4	9	875745	3	2	2	1	0	811	1	4	0	112	45	0	0	100
fixed	4	4	10	877161	1	4	4	1	0	1335	1	4	0	128	46	0	0	100
fixed	4	4	11	879095	5	2	2	1	0	949	1	4	0	112	47	0	0	100
fixed	4	4	12	880857	4	3	3	1	0	754	1	4	0	120	48	0	0	100
fixed	4	5	1	882801	4	1	1	1	0	736	1	4	0	104	49	0	0	100
fixed	4	5	2	884496	1	2	2	1	0	840	1	4	0	112	50	0	0	100
fixed	4	5	3	886199	6	4	4	1	0	680	1	4	0	128	51	0	0	100
fixed	4	5	4	887776	2	1	1	1	0	734	1	4	0	104	52	0	0	100
fixed	4	5	5	889008	5	3	3	1	0	865	1	4	0	120	53	0	0	100
fixed	4	5	6	890390	6	4	4	1	0	934	1	4	0	128	54	0	0	100
fixed	4	5	7	891915	3	1	1	1	0	1134	1	4	0	104	55	0	0	100
fixed	4	5	8	893908	2	3	3	1	0	1258	1	4	0	120	56	0	0	100
fixed	4	5	9	895593	3	2	2	1	0	1114	1	4	0	112	57	0	0	100
fixed	4	5	10	897176	1	4	4	1	0	863	1	4	0	128	58	0	0	100
fixed	4	5	11	899066	5	2	2	1	0	1071	1	4	0	112	59	0	0	100
fixed	4	5	12	900984	4	3	3	1	0	614	1	4	0	120	60	0	0	100
fixed	4	6	1	902583	4	1	1	1	0	738	1	4	0	104	61	0	0	100
fixed	4	6	2	904128	1	2	2	1	0	1281	1	4	0	112	62	0	0	100
fixed	4	6	3	905852	6	4	4	1	0	808	1	4	0	128	63	0	0	100
fixed	4	6	4	907348	2	1	1	1	0	848	1	4	0	104	64	0	0	100
fixed	4	6	5	909051	5	3	3	1	0	928	1	4	0	120	65	0	0	100
fixed	4	6	6	910848	6	4	4	1	0	660	1	4	0	128	66	0	0	100
fixed	4	6	7	912289	3	1	1	1	0	839	1	4	0	104	67	0	0	100
fixed	4	6	8	913463	2	3	3	1	0	1205	1	4	0	120	68	0	0	100
fixed	4	6	9	915644	3	2	2	1	0	817	1	4	0	112	69	0	0	100
fixed	4	6	10	917384	1	4	4	1	0	743	1	4	0	128	70	0	0	100
fixed	4	6	11	919087	5	2	2	1	0	1119	1	4	0	112	71	0	0	100
fixed	4	6	12	921009	4	3	3	1	0	653	1	4	0	120	72	0	0	100
fixed	4	7	1	922532	4	1	1	1	0	1077	1	4	0	104	73	0	0	100
fixed	4	7	2	924339	1	2	2	1	0	1105	1	4	0	112	74	0	0	100
fixed	4	7	3	926404	6	4	4	1	0	713	1	4	0	128	75	0	0	100
fixed	4	7	4	927404	2	1	1	1	0	1111	1	4	0	104	76	0	0	100
fixed	4	7	5	929345	5	3	3	1	0	885	1	4	0	120	77	0	0	100
fixed	4	7	6	930981	6	4	4	1	0	743	1	4	0	128	78	0	0	100
fixed	4	7	7	932127	3	1	1	1	0	967	1	4	0	104	79	0	0	100
fixed	4	7	8	933600	2	3	3	1	0	1256	1	4	0	120	80	0	0	100
fixed	4	7	9	935678	3	2	2	1	0	912	1	4	0	112	81	0	0	100
fixed	4	7	10	937151	1	4	4	1	0	762	1	4	0	128	82	0	0	100
fixed	4	7	11	938912	5	2	2	1	0	1047	1	4	0	112	83	0	0	100
fixed	4	7	12	940644	4	3	3	1	0	662	1	4	0	120	84	0	0	100
fixed	4	8	1	942381	4	1	1	1	0	692	1	4	0	104	85	0	0	100
fixed	4	8	2	943789	1	2	2	1	0	1097	1	4	0	112	86	0	0	100
fixed	4	8	3	945533	6	4	4	1	0	791	1	4	0	128	87	0	0	100
fixed	4	8	4	946941	2	1	1	1	0	1171	1	4	0	104	88	0	0	100
fixed	4	8	5	949099	5	3	3	1	0	1016	1	4	0	120	89	0	0	100
fixed	4	8	6	950918	6	4	4	1	0	723	1	4	0	128	90	0	0	100
fixed	4	8	7	952292	3	1	1	1	0	1121	1	4	0	104	91	0	0	100
fixed	4	8	8	953843	2	3	3	1	0	1191	1	4	0	120	92	0	0	100
fixed	4	8	9	955338	3	2	2	1	0	1264	1	4	0	112	93	0	0	100
fixed	4	8	10	956922	1	4	4	1	0	1077	1	4	0	128	94	0	0	100
fixed	4	8	11	958813	5	2	2	1	0	933	1	4	0	112	95	0	0	100
fixed	4	8	12	960679	4	3	3	1	0	685	1	4	0	120	96	0	0	100
fixed	4	9	1	962162	4	1	1	1	0	798	1	4	0	104	97	0	0	100
fixed	4	9	2	963332	1	2	2	1	0	1029	1	4	0	112	98	0	0	100
fixed	4	9	3	965288	6	4	4	1	0	698	1	4	0	128	99	0	0	100
fixed	4	9	4	966444	2	1	1	1	0	1089	1	4	0	104	100	0	0	100
fixed	4	9	5	968093	5	3	3	1	0	1099	1	4	0	120	101	0	0	100
fixed	4	9	6	969939	6	4	4	1	0	709	1	4	0	128	102	0	0	100
fixed	4	9	7	971210	3	1	1	1	0	1119	1	4	0	104	103	0	0	100
fixed	4	9	8	973358	2	3	3	2	0	1788	2	4	0	120	104	0	0	100
fixed	4	9	9	975970	3	2	2	1	0	782	1	4	0	112	105	0	0	100
fixed	4	9	10	977386	1	4	4	1	0	666	1	4	0	128	106	0	0	100
fixed	4	9	11	978554	5	2	2	1	0	1032	1	4	0	112	107	0	0	100
fixed	4	9	12	980021	4	3	3	1	0	802	1	4	0	120	108	0	0	100
fixed	4	10	1	981610	4	1	1	1	0	815	1	4	0	104	109	0	0	100
fixed	4	10	2	983214	1	2	2	1	0	955	1	4	0	112	110	0	0	100
fixed	4	10	3	985191	6	4	4	1	0	623	1	4	0	128	111	0	0	100
fixed	4	10	4	986157	2	1	1	1	0	1078	1	4	0	104	112	0	0	100
fixed	4	10	5	987989	5	3	3	2	0	1529	2	4	0	120	113	0	0	100
fixed	4	10	6	990541	6	4	4	1	0	765	1	4	0	128	114	0	0	100
fixed	4	10	7	992078	3	1	1	1	0	956	1	4	0	104	115	0	0	100
fixed	4	10	8	993633	2	3	3	1	0	1194	1	4	0	120	116	0	0	100
fixed	4	10	9	995356	3	2	2	1	0	825	1	4	0	112	117	0	0	100
fixed	4	10	10	996592	1	4	4	1	0	861	1	4	0	128	118	0	0	100
fixed	4	10	11	998165	5	2	2	1	0	1049	1	4	0	112	119	0	0	100
fixed	4	10	12	999942	4	3	3	1	0	678	1	4	0	120	120	0	0	100
fixed	5	1	1	1001958	4	1	1	1	0	897	1	4	0	136	1	0	0	100
fixed	5	1	2	1003455	1	2	2	1	0	962	1	4	0	144	2	0	0	100
fixed	5	1	3	1004875	6	4	4	1	0	1006	1	4	0	160	3	0	0	100
fixed	5	1	4	1006359	2	1	1	1	0	975	1	4	0	136	4	0	0	100
fixed	5	1	5	1007737	5	3	3	1	0	1125	1	4	0	152	5	0	0	100
fixed	5	1	6	1009478	6	4	4	1	0	770	1	4	0	160	6	0	0	100
fixed	5	1	7	1010550	3	1	1	1	0	1165	1	4	0	136	7	0	0	100
fixed	5	1	8	1012373	2	3	3	2	0	1752	2	4	0	152	8	0	0	100
fixed	5	1	9	1014911	3	2	2	1	0	716	1	4	0	144	9	0	0	100
fixed	5	1	10	1015942	1	4	4	1	0	952	1	4	0	160	10	0	0	100
fixed	5	1	11	1017466	5	2	2	1	0	1352	1	4	0	144	11	0	0	100
fixed	5	1	12	1019511	4	3	3	1	0	866	1	4	0	152	12	0	0	100
fixed	5	2	1	1021508	4	1	1	1	0	797	1	4	0	136	13	0	0	100
fixed	5	2	2	1023258	1	2	2	1	0	987	1	4	0	144	14	0	0	100
fixed	5	2	3	1025048	6	4	4	1	0	967	1	4	0	160	15	0	0	100
fixed	5	2	4	1026936	2	1	1	1	0	967	1	4	0	136	16	0	0	100
fixed	5	2	5	1028332	5	3	3	1	0	1204	1	4	0	152	17	0	0	100
fixed	5	2	6	1030436	6	4	4	1	0	683	1	4	0	160	18	0	0	100
fixed	5	2	7	1031526	3	1	1	1	0	997	1	4	0	136	19	0	0	100
fixed	5	2	8	1033246	2	3	3	1	0	1108	1	4	0	152	20	0	0	100
fixed	5	2	9	1034931	3	2	2	1	0	1028	1	4	0	144	21	0	0	100
fixed	5	2	10	1036685	1	4	4	1	0	786	1	4	0	160	22	0	0	100
fixed	5	2	11	1038469	5	2	2	1	0	1102	1	4	0	144	23	0	0	100
fixed	5	2	12	1040145	4	3	3	1	0	784	1	4	0	152	24	0	0	100
fixed	5	3	1	1042075	4	1	1	1	0	806	1	4	0	136	25	0	0	100
fixed	5	3	2	1043510	1	2	2	1	0	1737	1	4	0	144	26	0	0	100
fixed	5	3	3	1045693	6	4	4	1	0	893	1	4	0	160	27	0	0	100
fixed	5	3	4	1046994	2	1	1	1	0	982	1	4	0	136	28	0	0	100
fixed	5	3	5	1048432	5	3	3	1	0	1689	1	4	0	152	29	0	0	100
fixed	5	3	6	1050506	6	4	4	1	0	681	1	4	0	160	30	0	0	100
fixed	5	3	7	1052054	3	1	1	1	0	1055	1	4	0	136	31	0	0	100
fixed	5	3	8	1053783	2	3	3	1	0	1022	1	4	0	152	32	0	0	100
fixed	5	3	9	1055723	3	2	2	1	0	963	1	4	0	144	33	0	0	100
fixed	5	3	10	1057185	1	4	4	1	0	854	1	4	0	160	34	0	0	100
fixed	5	3	11	1058829	5	2	2	1	0	1489	1	4	0	144	35	0	0	100
fixed	5	3	12	1061318	4	3	3	1	0	719	1	4	0	152	36	0	0	100
fixed	5	4	1	1062676	4	1	1	1	0	861	1	4	0	136	37	0	0	100
fixed	5	4	2	1063902	1	2	2	1	0	2313	1	4	0	144	38	0	0	100
fixed	5	4	3	1066505	6	4	4	1	0	1035	1	4	0	160	39	0	0	100
fixed	5	4	4	1068382	2	1	1	1	0	964	1	4	0	136	40	0	0	100
fixed	5	4	5	1069818	5	3	3	1	0	975	1	4	0	152	41	0	0	100
fixed	5	4	6	1071697	6	4	4	1	0	695	1	4	0	160	42	0	0	100
fixed	5	4	7	1073311	3	1	1	1	0	947	1	4	0	136	43	0	0	100
fixed	5	4	8	1075148	2	3	3	1	0	1941	1	4	0	152	44	0	0	100
fixed	5	4	9	1077585	3	2	2	1	0	750	1	4	0	144	45	0	0	100
fixed	5	4	10	1078696	1	4	4	1	0	918	1	4	0	160	46	0	0	100
fixed	5	4	11	1080457	5	2	2	1	0	1244	1	4	0	144	47	0	0	100
fixed	5	4	12	1082730	4	3	3	1	0	900	1	4	0	152	48	0	0	100
fixed	5	5	1	1084847	4	1	1	1	0	730	1	4	0	136	49	0	0	100
fixed	5	5	2	1086517	1	2	2	1	0	1291	1	4	0	144	50	0	0	100
fixed	5	5	3	1088288	6	4	4	1	0	824	1	4	0	160	51	0	0	100
fixed	5	5	4	1089714	2	1	1	1	0	812	1	4	0	136	52	0	0	100
fixed	5	5	5	1091356	5	3	3	1	0	999	1	4	0	152	53	0	0	100
fixed	5	5	6	1093329	6	4	4	1	0	659	1	4	0	160	54	0	0	100
fixed	5	5	7	1094572	3	1	1	1	0	982	1	4	0	136	55	0	0	100
fixed	5	5	8	1096528	2	3	3	1	0	1083	1	4	0	152	56	0	0	100
fixed	5	5	9	1098265	3	2	2	1	0	770	1	4	0	144	57	0	0	100
fixed	5	5	10	1099845	1	4	4	1	0	927	1	4	0	160	58	0	0	100
fixed	5	5	11	1101699	5	2	2	1	0	1233	1	4	0	144	59	0	0	100
fixed	5	5	12	1103930	4	3	3	1	0	666	1	4	0	152	60	0	0	100
fixed	5	6	1	1105447	4	1	1	1	0	937	1	4	0	136	61	0	0	100
fixed	5	6	2	1106866	1	2	2	1	0	1005	1	4	0	144	62	0	0	100
fixed	5	6	3	1108782	6	4	4	1	0	725	1	4	0	160	63	0	0	100
fixed	5	6	4	1109968	2	1	1	1	0	986	1	4	0	136	64	0	0	100
fixed	5	6	5	1111411	5	3	3	1	0	1141	1	4	0	152	65	0	0	100
fixed	5	6	6	1113553	6	4	4	1	0	746	1	4	0	160	66	0	0	100
fixed	5	6	7	1114978	3	1	1	1	0	958	1	4	0	136	67	0	0	100
fixed	5	6	8	1116648	2	3	3	1	0	1303	1	4	0	152	68	0	0	100
fixed	5	6	9	1118845	3	2	2	1	0	642	1	4	0	144	69	0	0	100
fixed	5	6	10	1120507	1	4	4	1	0	644	1	4	0	160	70	0	0	100
fixed	5	6	11	1121607	5	2	2	1	0	1317	1	4	0	144	71	0	0	100
fixed	5	6	12	1123478	4	3	3	1	0	742	1	4	0	152	72	0	0	100
fixed	5	7	1	1125179	4	1	1	1	0	958	1	4	0	136	73	0	0	100
fixed	5	7	2	1126869	1	2	2	1	0	1302	1	4	0	144	74	0	0	100
fixed	5	7	3	1128636	6	4	4	1	0	939	1	4	0	160	75	0	0	100
fixed	5	7	4	1130554	2	1	1	1	0	803	1	4	0	136	76	0	0	100
fixed	5	7	5	1131960	5	3	3	1	0	1550	1	4	0	152	77	0	0	100
fixed	5	7	6	1134470	6	4	4	1	0	708	1	4	0	160	78	0	0	100
fixed	5	7	7	1135573	3	1	1	1	0	982	1	4	0	136	79	0	0	100
fixed	5	7	8	1137272	2	3	3	1	0	1534	1	4	0	152	80	0	0	100
fixed	5	7	9	1139397	3	2	2	1	0	747	1	4	0	144	81	0	0	100
fixed	5	7	10	1140986	1	4	4	1	0	1192	1	4	0	160	82	0	0	100
fixed	5	7	11	1143170	5	2	2	1	0	1100	1	4	0	144	83	0	0	100
fixed	5	7	12	1144597	4	3	3	1	0	967	1	4	0	152	84	0	0	100
fixed	5	8	1	1146231	4	1	1	1	0	890	1	4	0	136	85	0	0	100
fixed	5	8	2	1148134	1	2	2	1	0	1529	1	4	0	144	86	0	0	100
fixed	5	8	3	1150574	6	4	4	1	0	714	1	4	0	160	87	0	0	100
fixed	5	8	4	1151687	2	1	1	1	0	851	1	4	0	136	88	0	0	100
fixed	5	8	5	1153272	5	3	3	1	0	1160	1	4	0	152	89	0	0	100
fixed	5	8	6	1155107	6	4	4	1	0	690	1	4	0	160	90	0	0	100
fixed	5	8	7	1156507	3	1	1	1	0	831	1	4	0	136	91	0	0	100
fixed	5	8	8	1158149	2	3	3	1	0	1161	1	4	0	152	92	0	0	100
fixed	5	8	9	1160189	3	2	2	1	0	603	1	4	0	144	93	0	0	100
fixed	5	8	10	1161120	1	4	4	1	0	1060	1	4	0	160	94	0	0	100
fixed	5	8	11	1162730	5	2	2	1	0	1096	1	4	0	144	95	0	0	100
fixed	5	8	12	1164407	4	3	3	1	0	880	1	4	0	152	96	0	0	100
fixed	5	9	1	1165896	4	1	1	1	0	769	1	4	0	136	97	0	0	100
fixed	5	9	2	1167602	1	2	2	1	0	1129	1	4	0	144	98	0	0	100
fixed	5	9	3	1169623	6	4	4	1	0	643	1	4	0	160	99	0	0	100
fixed	5	9	4	1170608	2	1	1	1	0	938	1	4	0	136	100	0	0	100
fixed	5	9	5	1172002	5	3	3	1	0	1055	1	4	0	152	101	0	0	100
fixed	5	9	6	1173481	6	4	4	1	0	984	1	4	0	160	102	0	0	100
fixed	5	9	7	1175469	3	1	1	1	0	860	1	4	0	136	103	0	0	100
fixed	5	9	8	1176843	2	3	3	1	0	1106	1	4	0	152	104	0	0	100
fixed	5	9	9	1178973	3	2	2	1	0	904	1	4	0	144	105	0	0	100
fixed	5	9	10	1180439	1	4	4	1	0	937	1	4	0	160	106	0	0	100
fixed	5	9	11	1182161	5	2	2	1	0	1297	1	4	0	144	107	0	0	100
fixed	5	9	12	1184090	4	3	3	1	0	966	1	4	0	152	108	0	0	100
fixed	5	10	1	1185945	4	1	1	1	0	848	1	4	0	136	109	0	0	100
fixed	5	10	2	1187614	1	2	2	1	0	1113	1	4	0	144	110	0	0	100
fixed	5	10	3	1189477	6	4	4	1	0	731	1	4	0	160	111	0	0	100
fixed	5	10	4	1190827	2	1	1	1	0	777	1	4	0	136	112	0	0	100
fixed	5	10	5	1192476	5	3	3	1	0	875	1	4	0	152	113	0	0	100
fixed	5	10	6	1193674	6	4	4	1	0	1009	1	4	0	160	114	0	0	100
fixed	5	10	7	1195435	3	1	1	1	0	1078	1	4	0	136	115	0	0	100
fixed	5	10	8	1197542	2	3	3	1	0	1869	1	4	0	152	116	0	0	100
fixed	5	10	9	1200313	3	2	2	1	0	727	1	4	0	144	117	0	0	100
fixed	5	10	10	1201817	1	4	4	1	0	808	1	4	0	160	118	0	0	100
fixed	5	10	11	1203218	5	2	2	1	0	948	1	4	0	144	119	0	0	100
fixed	5	10	12	1204979	4	3	3	1	0	874	1	4	0	152	120	0	0	100
random	6	1	1	1312636	6	1	1	1	0	1346	1	4	0	168	1	0	0	100
random	6	1	2	1314345	4	4	4	1	0	810	1	4	0	192	2	0	0	100
random	6	1	3	1315974	2	2	2	1	0	1141	1	4	0	176	3	0	0	100
random	6	1	4	1318076	3	3	3	1	0	948	1	4	0	184	4	0	0	100
random	6	1	5	1319883	5	2	2	1	0	871	1	4	0	176	5	0	0	100
random	6	1	6	1321694	1	4	4	1	0	682	1	4	0	192	6	0	0	100
random	6	1	7	1323130	6	1	1	1	0	845	1	4	0	168	7	0	0	100
random	6	1	8	1324540	2	3	3	1	0	1002	1	4	0	184	8	0	0	100
random	6	1	9	1325999	4	2	2	1	0	732	1	4	0	176	9	0	0	100
random	6	1	10	1327522	1	1	1	1	0	851	1	4	0	168	10	0	0	100
random	6	1	11	1329078	5	4	4	1	0	817	1	4	0	192	11	0	0	100
random	6	1	12	1330394	3	3	3	1	0	994	1	4	0	184	12	0	0	100
random	6	1	13	1332053	5	2	2	1	0	811	1	4	0	176	13	0	0	100
random	6	1	14	1333591	1	4	4	1	0	826	1	4	0	192	14	0	0	100
random	6	1	15	1335252	3	1	1	1	0	724	1	4	0	168	15	0	0	100
random	6	1	16	1336858	4	3	3	1	0	864	1	4	0	184	16	0	0	100
random	6	1	17	1338061	6	4	4	1	0	1102	1	4	0	192	17	0	0	100
random	6	1	18	1340006	2	1	1	1	0	907	1	4	0	168	18	0	0	100
random	6	1	19	1341821	5	3	3	1	0	958	1	4	0	184	19	0	0	100
random	6	1	20	1343479	2	2	2	1	0	895	1	4	0	176	20	0	0	100
random	6	1	21	1345173	3	3	3	1	0	1128	1	4	0	184	21	0	0	100
random	6	1	22	1347198	6	1	1	1	0	1002	1	4	0	168	22	0	0	100
random	6	1	23	1348870	4	2	2	1	0	1036	1	4	0	176	23	0	0	100
random	6	1	24	1350385	1	4	4	1	0	1059	1	4	0	192	24	0	0	100
random	6	1	25	1352052	4	3	3	1	0	1037	1	4	0	184	25	0	0	100
random	6	1	26	1354068	2	1	1	1	0	816	1	4	0	168	26	0	0	100
random	6	1	27	1355435	5	2	2	1	0	1269	1	4	0	176	27	0	0	100
random	6	1	28	1357061	6	4	4	1	0	1161	1	4	0	192	28	0	0	100
random	6	1	29	1359060	1	3	3	1	0	948	1	4	0	184	29	0	0	100
random	6	1	30	1360686	5	2	2	1	0	999	1	4	0	176	30	0	0	100
random	6	1	31	1362666	2	1	1	1	0	827	1	4	0	168	31	0	0	100
random	6	1	32	1363965	3	3	3	1	0	1060	1	4	0	184	32	0	0	100
random	6	1	33	1365677	6	4	4	1	0	1092	1	4	0	192	33	0	0	100
random	6	1	34	1367116	4	2	2	1	0	1439	1	4	0	176	34	0	0	100
random	6	1	35	1368922	3	4	4	1	0	1306	1	4	0	192	35	0	0	100
random	6	1	36	1370626	1	1	1	1	0	1186	1	4	0	168	36	0	0	100
random	6	1	37	1372953	3	4	4	1	0	927	1	4	0	192	37	0	0	100
random	6	1	38	1374535	5	3	3	1	0	1125	1	4	0	184	38	0	0	100
random	6	1	39	1376390	6	1	1	1	0	998	1	4	0	168	39	0	0	100
random	6	1	40	1377752	1	2	2	1	0	1068	1	4	0	176	40	0	0	100
random	6	1	41	1379245	2	3	3	1	0	1189	1	4	0	184	41	0	0	100
random	6	1	42	1380896	4	4	4	1	0	879	1	4	0	192	42	0	0	100
random	6	1	43	1382442	1	2	0	0	2	0	3	4	0	176	42	0	1	98
random	6	1	44	1385452	6	3	3	1	0	886	1	4	0	184	43	0	1	98
random	6	1	45	1386724	3	1	1	1	0	1008	1	4	0	168	44	0	1	98
random	6	1	46	1388621	4	4	4	1	0	744	1	4	0	192	45	0	1	98
random	6	1	47	1390394	2	2	0	0	2	0	3	4	0	176	45	0	2	96
random	6	1	48	1393211	5	1	1	1	0	878	1	4	0	168	46	0	2	96
random	6	1	49	1395175	2	3	3	1	0	1138	1	4	0	184	47	0	2	96
random	6	1	50	1396686	3	1	1	1	0	1034	1	4	0	168	48	0	2	96
random	6	1	51	1398079	1	4	4	1	0	967	1	4	0	192	49	0	2	96
random	6	1	52	1399837	5	3	3	1	0	1053	1	4	0	184	50	0	2	96
random	6	1	53	1401467	3	2	2	1	0	1056	1	4	0	176	51	0	2	96
random	6	1	54	1403447	6	4	4	1	0	716	1	4	0	192	52	0	2	96
random	6	1	55	1404785	4	2	2	1	0	963	1	4	0	176	53	0	2	96
random	6	1	56	1406186	1	1	1	1	0	1112	1	4	0	168	54	0	2	96
random	6	1	57	1407940	5	4	4	1	0	901	1	4	0	192	55	0	2	96
random	6	1	58	1409515	2	1	1	1	0	1187	1	4	0	168	56	0	2	97
random	6	1	59	1411350	6	2	2	1	0	917	1	4	0	176	57	0	2	97
random	6	1	60	1412620	4	3	3	1	0	1015	1	4	0	184	58	0	2	97
random	6	1	61	1414572	1	2	2	1	0	1004	1	4	0	176	59	0	2	97
random	6	1	62	1415986	6	4	4	1	0	1097	1	4	0	192	60	0	2	97
random	6	1	63	1417641	4	1	1	1	0	915	1	4	0	168	61	0	2	97
random	6	1	64	1419528	2	2	2	1	0	1051	1	4	0	176	62	0	2	97
random	6	1	65	1421454	4	3	3	1	0	857	1	4	0	184	63	0	2	97
random	6	1	66	1423153	3	1	1	1	0	873	1	4	0	168	64	0	2	97
random	6	1	67	1424676	1	3	3	1	0	1233	1	4	0	184	65	0	2	97
random	6	1	68	1426714	5	4	4	1	0	939	1	4	0	192	66	0	2	97
random	6	1	69	1428508	2	2	2	1	0	822	1	4	0	176	67	0	2	97
random	6	1	70	1430070	3	1	1	1	0	900	1	4	0	168	68	0	2	97
random	6	1	71	1431624	5	4	4	1	0	827	1	4	0	192	69	0	2	97
random	6	1	72	1433220	6	3	3	1	0	1055	1	4	0	184	70	0	2	97
random	6	1	73	1435039	2	1	1	1	0	930	1	4	0	168	71	0	2	97
random	6	1	74	1436647	5	3	3	1	0	1246	1	4	0	184	72	0	2	97
random	6	1	75	1438541	1	4	4	1	0	1022	1	4	0	192	73	0	2	97
random	6	1	76	1440430	6	2	2	1	0	782	1	4	0	176	74	0	2	97
random	6	1	77	1441992	2	1	1	1	0	707	1	4	0	168	75	0	2	97
random	6	1	78	1443147	4	4	4	1	0	850	1	4	0	192	76	0	2	97
random	6	1	79	1444467	3	2	2	1	0	1002	1	4	0	176	77	0	2	97
random	6	1	80	1446441	4	3	3	1	0	775	1	4	0	184	78	0	2	98
random	6	1	81	1447800	1	4	4	1	0	878	1	4	0	192	79	0	2	98
random	6	1	82	1449192	5	1	1	1	0	1426	1	4	0	168	80	0	2	98
random	6	1	83	1451152	3	2	2	1	0	1007	1	4	0	176	81	0	2	98
random	6	1	84	1452637	6	3	3	1	0	960	1	4	0	184	82	0	2	98
random	6	1	85	1454370	3	2	2	1	0	1135	1	4	0	176	83	0	2	98
random	6	1	86	1456061	1	3	3	1	0	735	1	4	0	184	84	0	2	98
random	6	1	87	1457342	4	4	4	1	0	849	1	4	0	192	85	0	2	98
random	6	1	88	1459155	2	1	1	1	0	892	1	4	0	168	86	0	2	98
random	6	1	89	1460610	6	4	4	1	0	823	1	4	0	192	87	0	2	98
random	6	1	90	1462298	3	3	3	2	0	2223	2	4	0	184	88	0	2	98
random	6	1	91	1465129	5	4	4	1	0	1279	1	4	0	192	89	0	2	98
random	6	1	92	1467082	1	2	2	1	0	852	1	4	0	176	90	0	2	98
random	6	1	93	1468868	5	1	1	1	0	985	1	4	0	168	91	0	2	98
random	6	1	94	1470299	4	3	3	1	0	812	1	4	0	184	92	0	2	98
random	6	1	95	1471512	6	1	1	1	0	1009	1	4	0	168	93	0	2	98
random	6	1	96	1472931	2	2	2	1	0	1429	1	4	0	176	94	0	2	98
random	6	1	97	1474970	4	3	3	1	0	814	1	4	0	184	95	0	2	98
random	6	1	98	1476439	3	2	2	1	0	960	1	4	0	176	96	0	2	98
random	6	1	99	1477912	6	3	3	1	0	826	1	4	0	184	97	0	2	98
random	6	1	100	1479315	1	4	4	1	0	782	1	4	0	192	98	0	2	98
random	6	1	101	1480643	4	1	1	1	0	830	1	4	0	168	99	0	2	98
random	6	1	102	1482051	5	2	2	1	0	1115	1	4	0	176	100	0	2	98
random	6	1	103	1483814	2	4	4	1	0	808	1	4	0	192	101	0	2	98
random	6	1	104	1485383	3	1	1	1	0	797	1	4	0	168	102	0	2	98
random	6	1	105	1486684	1	3	3	1	0	950	1	4	0	184	103	0	2	98
random	6	1	106	1488210	2	2	2	1	0	838	1	4	0	176	104	0	2	98
random	6	1	107	1489376	5	4	4	1	0	1068	1	4	0	192	105	0	2	98
random	6	1	108	1490823	6	1	1	1	0	1183	1	4	0	168	106	0	2	98
random	6	1	109	1492664	5	4	4	1	0	833	1	4	0	192	107	0	2	98
random	6	1	110	1494514	6	3	3	1	0	875	1	4	0	184	108	0	2	98
random	6	1	111	1495821	2	2	2	1	0	795	1	4	0	176	109	0	2	98
random	6	1	112	1497564	3	1	1	1	0	770	1	4	0	168	110	0	2	98
random	6	1	113	1498778	1	2	2	1	0	1054	1	4	0	176	111	0	2	98
random	6	1	114	1500138	2	3	3	1	0	845	1	4	0	184	112	0	2	98
random	6	1	115	1501981	3	1	1	1	0	719	1	4	0	168	113	0	2	98
random	6	1	116	1503499	4	4	4	1	0	726	1	4	0	192	114	0	2	98
random	6	1	117	1504860	6	1	1	1	0	948	1	4	0	168	115	0	2	98
random	6	1	118	1506417	5	3	3	1	0	1258	1	4	0	184	116	0	2	98
random	6	1	119	1508420	1	4	4	1	0	750	1	4	0	192	117	0	2	98
random	6	1	120	1510023	4	2	2	1	0	666	1	4	0	176	118	0	2	98
fixed	7	1	1	1511792	4	1	1	1	0	735	1	4	0	200	1	0	0	100
fixed	7	1	2	1513262	1	2	2	1	0	992	1	4	0	208	2	0	0	100
fixed	7	1	3	1515047	6	4	4	1	0	677	1	4	0	224	3	0	0	100
fixed	7	1	4	1516357	2	1	1	1	0	901	1	4	0	200	4	0	0	100
fixed	7	1	5	1517943	5	3	3	1	0	938	1	4	0	216	5	0	0	100
fixed	7	1	6	1519480	6	4	4	1	0	777	1	4	0	224	6	0	0	100
fixed	7	1	7	1520886	3	1	1	1	0	942	1	4	0	200	7	0	0	100
fixed	7	1	8	1522467	2	3	3	1	0	1210	1	4	0	216	8	0	0	100
fixed	7	1	9	1524374	3	2	2	1	0	690	1	4	0	208	9	0	0	100
fixed	7	1	10	1525387	1	4	4	1	0	927	1	4	0	224	10	0	0	100
fixed	7	1	11	1526779	5	2	2	1	0	1020	1	4	0	208	11	0	0	100
fixed	7	1	12	1528504	4	3	3	1	0	763	1	4	0	216	12	0	0	100
fixed	7	2	1	1530373	4	1	1	1	0	572	1	4	0	200	1	0	0	8
fixed	7	2	2	1531245	1	2	2	1	0	1295	1	4	0	208	2	0	0	14
fixed	7	2	3	1533360	6	4	4	1	0	734	1	4	0	224	3	0	0	20
fixed	7	2	4	1534532	2	1	1	1	0	1035	1	4	0	200	4	0	0	25
fixed	7	2	5	1536251	5	3	3	1	0	1027	1	4	0	216	5	0	0	29
fixed	7	2	6	1538061	6	4	4	1	0	686	1	4	0	224	6	0	0	33
fixed	7	2	7	1539425	3	1	1	1	0	829	1	4	0	200	7	0	0	37
fixed	7	2	8	1541129	2	3	3	1	0	1053	1	4	0	216	8	0	0	40
fixed	7	2	9	1543186	3	2	2	1	0	725	1	4	0	208	9	0	0	43
fixed	7	2	10	1544624	1	4	4	1	0	648	1	4	0	224	10	0	0	45
fixed	7	2	11	1546003	5	2	2	1	0	1126	1	4	0	208	11	0	0	48
fixed	7	2	12	1548130	4	3	3	1	0	772	1	4	0	216	12	0	0	50
fixed	7	3	1	1549854	4	1	1	1	0	827	1	4	0	200	1	0	0	4
fixed	7	3	2	1551223	1	2	2	1	0	921	1	4	0	208	2	0	0	8
fixed	7	3	3	1553086	6	4	4	1	0	666	1	4	0	224	3	0	0	11
fixed	7	3	4	1554075	2	1	1	1	0	1016	1	4	0	200	4	0	0	14
fixed	7	3	5	1556017	5	3	3	1	0	917	1	4	0	216	5	0	0	17
fixed	7	3	6	1557665	6	4	4	1	0	808	1	4	0	224	6	0	0	20
fixed	7	3	7	1559506	3	1	1	1	0	794	1	4	0	200	7	0	0	23
fixed	7	3	8	1561324	2	3	3	1	0	957	1	4	0	216	8	0	0	25
fixed	7	3	9	1562953	3	2	2	1	0	904	1	4	0	208	9	0	0	27
fixed	7	3	10	1564418	1	4	4	1	0	938	1	4	0	224	10	0	0	29
fixed	7	3	11	1566302	5	2	2	1	0	882	1	4	0	208	11	0	0	31
fixed	7	3	12	1567737	4	3	3	1	0	829	1	4	0	216	12	0	0	33
fixed	7	4	1	1569352	4	1	1	1	0	793	1	4	0	200	1	0	0	3
fixed	7	4	2	1570551	1	2	2	1	0	1038	1	4	0	208	2	0	0	5
fixed	7	4	3	1572460	6	4	4	1	0	693	1	4	0	224	3	0	0	8
fixed	7	4	4	1574144	2	1	1	1	0	806	1	4	0	200	4	0	0	10
fixed	7	4	5	1575483	5	3	3	1	0	845	1	4	0	216	5	0	0	12
fixed	7	4	6	1577262	6	4	4	1	0	794	1	4	0	224	6	0	0	14
fixed	7	4	7	1578381	3	1	1	1	0	1611	1	4	0	200	7	0	0	16
fixed	7	4	8	1580596	2	3	3	2	0	1868	2	4	0	216	8	0	0	18
fixed	7	4	9	1583029	3	2	2	1	0	838	1	4	0	208	9	0	0	20
fixed	7	4	10	1584189	1	4	4	1	0	980	1	4	0	224	10	0	0	22
fixed	7	4	11	1585494	5	2	2	1	0	1197	1	4	0	208	11	0	0	23
fixed	7	4	12	1587142	4	3	3	1	0	776	1	4	0	216	12	0	0	25
fixed	7	5	1	1588516	4	1	1	1	0	869	1	4	0	200	1	0	0	2
fixed	7	5	2	1589716	1	2	2	1	0	1146	1	4	0	208	2	0	0	4
fixed	7	5	3	1591727	6	4	4	1	0	797	1	4	0	224	3	0	0	6
fixed	7	5	4	1592826	2	1	1	1	0	1254	1	4	0	200	4	0	0	8
fixed	7	5	5	1594747	5	3	3	1	0	1069	1	4	0	216	5	0	0	9
fixed	7	5	6	1596777	6	4	4	1	0	711	1	4	0	224	6	0	0	11
fixed	7	5	7	1597884	3	1	1	1	0	889	1	4	0	200	7	0	0	13
fixed	7	5	8	1599398	2	3	3	1	0	1032	1	4	0	216	8	0	0	14
fixed	7	5	9	1600961	3	2	2	1	0	806	1	4	0	208	9	0	0	16
fixed	7	5	10	1602573	1	4	4	1	0	754	1	4	0	224	10	0	0	17
fixed	7	5	11	1604286	5	2	2	1	0	1393	1	4	0	208	11	0	0	19
fixed	7	5	12	1606524	4	3	3	1	0	722	1	4	0	216	12	0	0	20
fixed	7	6	1	1607997	4	1	1	1	0	852	1	4	0	200	1	0	0	2
fixed	7	6	2	1609771	1	2	2	1	0	905	1	4	0	208	2	0	0	3
fixed	7	6	3	1611202	6	4	4	1	0	1276	1	4	0	224	3	0	0	5
fixed	7	6	4	1613411	2	1	1	1	0	871	1	4	0	200	4	0	0	6
fixed	7	6	5	1615152	5	3	3	1	0	989	1	4	0	216	5	0	0	8
fixed	7	6	6	1617001	6	4	4	1	0	1462	1	4	0	224	6	0	0	9
fixed	7	6	7	1619249	3	1	1	1	0	800	1	4	0	200	7	0	0	10
fixed	7	6	8	1620589	2	3	3	1	0	895	1	4	0	216	8	0	0	12
fixed	7	6	9	1622256	3	2	2	1	0	776	1	4	0	208	9	0	0	13
fixed	7	6	10	1623712	1	4	4	1	0	875	1	4	0	224	10	0	0	14
fixed	7	6	11	1625189	5	2	2	1	0	1236	1	4	0	208	11	0	0	15
fixed	7	6	12	1627316	4	3	3	1	0	762	1	4	0	216	12	0	0	17
fixed	7	7	1	1628865	4	1	1	1	0	768	1	4	0	200	1	0	0	1
fixed	7	7	2	1630406	1	2	2	1	0	1527	1	4	0	208	2	0	0	3
fixed	7	7	3	1632329	6	4	4	1	0	958	1	4	0	224	3	0	0	4
fixed	7	7	4	1633685	2	1	1	1	0	932	1	4	0	200	4	0	0	5
fixed	7	7	5	1634997	5	3	3	1	0	892	1	4	0	216	5	0	0	6
fixed	7	7	6	1636789	6	4	4	1	0	657	1	4	0	224	6	0	0	8
fixed	7	7	7	1638394	3	1	1	1	0	1045	1	4	0	200	7	0	0	9
fixed	7	7	8	1639773	2	3	3	1	0	1746	1	4	0	216	8	0	0	10
fixed	7	7	9	1642193	3	2	2	1	0	676	1	4	0	208	9	0	0	11
fixed	7	7	10	1643795	1	4	4	1	0	680	1	4	0	224	10	0	0	12
fixed	7	7	11	1644861	5	2	2	1	0	1091	1	4	0	208	11	0	0	13
fixed	7	7	12	1646812	4	3	3	1	0	704	1	4	0	216	12	0	0	14
fixed	7	8	1	1648513	4	1	1	1	0	792	1	4	0	200	1	0	0	1
fixed	7	8	2	1650162	1	2	2	1	0	1219	1	4	0	208	2	0	0	2
fixed	7	8	3	1651770	6	4	4	1	0	966	1	4	0	224	3	0	0	3
fixed	7	8	4	1653693	2	1	1	1	0	692	1	4	0	200	4	0	0	5
fixed	7	8	5	1655329	5	3	3	1	0	975	1	4	0	216	5	0	0	6
fixed	7	8	6	1657322	6	4	4	1	0	1027	1	4	0	224	6	0	0	7
fixed	7	8	7	1659189	3	1	1	1	0	876	1	4	0	200	7	0	0	8
fixed	7	8	8	1660616	2	3	3	1	0	1360	1	4	0	216	8	0	0	9
fixed	7	8	9	1662462	3	2	2	1	0	689	1	4	0	208	9	0	0	10
fixed	7	8	10	1663488	1	4	4	1	0	998	1	4	0	224	10	0	0	11
fixed	7	8	11	1665403	5	2	2	1	0	1109	1	4	0	208	11	0	0	12
fixed	7	8	12	1666895	4	3	3	1	0	789	1	4	0	216	12	0	0	13
fixed	7	9	1	1668913	4	1	1	1	0	880	1	4	0	200	1	0	0	1
fixed	7	9	2	1670739	1	2	2	1	0	1115	1	4	0	208	2	0	0	2
fixed	7	9	3	1672248	6	4	4	1	0	843	1	4	0	224	3	0	0	3
fixed	7	9	4	1673524	2	1	1	1	0	1100	1	4	0	200	4	0	0	4
fixed	7	9	5	1675236	5	3	3	1	0	980	1	4	0	216	5	0	0	5
fixed	7	9	6	1677132	6	4	4	1	0	716	1	4	0	224	6	0	0	6
fixed	7	9	7	1678379	3	1	1	1	0	975	1	4	0	200	7	0	0	7
fixed	7	9	8	1680023	2	3	3	1	0	1297	1	4	0	216	8	0	0	8
fixed	7	9	9	1681910	3	2	2	1	0	761	1	4	0	208	9	0	0	9
fixed	7	9	10	1683712	1	4	4	1	0	702	1	4	0	224	10	0	0	9
fixed	7	9	11	1684960	5	2	2	1	0	1536	1	4	0	208	11	0	0	10
fixed	7	9	12	1686932	4	3	3	1	0	837	1	4	0	216	12	0	0	11
fixed	7	10	1	1688895	4	1	1	1	0	881	1	4	0	200	1	0	0	1
fixed	7	10	2	1690260	1	2	2	1	0	976	1	4	0	208	2	0	0	2
fixed	7	10	3	1691729	6	4	4	1	0	786	1	4	0	224	3	0	0	3
fixed	7	10	4	1692808	2	1	1	1	0	948	1	4	0	200	4	0	0	4
fixed	7	10	5	1694659	5	3	3	1	0	813	1	4	0	216	5	0	0	4
fixed	7	10	6	1695874	6	4	4	1	0	962	1	4	0	224	6	0	0	5
fixed	7	10	7	1697408	3	1	1	1	0	873	1	4	0	200	7	0	0	6
fixed	7	10	8	1698946	2	3	3	1	0	1728	1	4	0	216	8	0	0	7
fixed	7	10	9	1701027	3	2	2	1	0	880	1	4	0	208	9	0	0	8
fixed	7	10	10	1702442	1	4	4	1	0	740	1	4	0	224	10	0	0	8
fixed	7	10	11	1703616	5	2	2	1	0	1130	1	4	0	208	11	0	0	9
fixed	7	10	12	1705276	4	3	3	1	0	884	1	4	0	216	12	0	0	10
