type	block	sequ.	trial	time	Pos.	Color	Button	NumRsp	Resp_1	RT_1	R_Code	Resp_2	RT_2	Trigg.	n_hit	n_inc	n_miss	score_%

random	1	1	1	37785	6	1	1	1	0	1405	1	4	0	8	1	0	0	100
random	1	1	2	40074	4	4	4	1	0	828	1	4	0	32	2	0	0	100
random	1	1	3	41487	2	2	2	1	0	817	1	4	0	16	3	0	0	100
random	1	1	4	43096	3	3	3	1	0	517	1	4	0	24	4	0	0	100
random	1	1	5	44434	5	2	2	1	0	932	1	4	0	16	5	0	0	100
random	1	1	6	45914	1	4	4	1	0	837	1	4	0	32	6	0	0	100
random	1	1	7	47233	6	1	1	1	0	597	1	4	0	8	7	0	0	100
random	1	1	8	48746	2	3	3	1	0	973	1	4	0	24	8	0	0	100
random	1	1	9	50318	4	2	2	1	0	682	1	4	0	16	9	0	0	100
random	1	1	10	51687	1	1	1	1	0	976	1	4	0	8	10	0	0	100
random	1	1	11	53546	5	4	4	1	0	594	1	4	0	32	11	0	0	100
random	1	1	12	54713	3	3	3	1	0	968	1	4	0	24	12	0	0	100
random	1	1	13	56248	5	2	2	1	0	743	1	4	0	16	13	0	0	100
random	1	1	14	58001	1	4	4	1	0	629	1	4	0	32	14	0	0	100
random	1	1	15	59201	3	1	1	1	0	875	1	4	0	8	15	0	0	100
random	1	1	16	61016	4	3	3	1	0	861	1	4	0	24	16	0	0	100
random	1	1	17	62518	6	4	4	1	0	678	1	4	0	32	17	0	0	100
random	1	1	18	63554	2	1	1	1	0	842	1	4	0	8	18	0	0	100
random	1	1	19	65080	5	3	3	1	0	1082	1	4	0	24	19	0	0	100
random	1	1	20	67025	2	2	2	1	0	751	1	4	0	16	20	0	0	100
random	1	1	21	68622	3	3	3	1	0	916	1	4	0	24	21	0	0	100
random	1	1	22	70133	6	1	1	1	0	843	1	4	0	8	22	0	0	100
random	1	1	23	71882	4	2	2	1	0	962	1	4	0	16	23	0	0	100
random	1	1	24	73693	1	4	4	1	0	748	1	4	0	32	24	0	0	100
random	1	1	25	75128	4	3	3	1	0	1000	1	4	0	24	25	0	0	100
random	1	1	26	76992	2	1	1	1	0	849	1	4	0	8	26	0	0	100
random	1	1	27	78704	5	2	2	1	0	832	1	4	0	16	27	0	0	100
random	1	1	28	80271	6	4	4	1	0	902	1	4	0	32	28	0	0	100
random	1	1	29	81942	1	3	3	1	0	896	1	4	0	24	29	0	0	100
random	1	1	30	83844	5	2	2	1	0	799	1	4	0	16	30	0	0	100
random	1	1	31	85402	2	1	1	1	0	860	1	4	0	8	31	0	0	100
random	1	1	32	86698	3	3	3	1	0	1022	1	4	0	24	32	0	0	100
random	1	1	33	88384	6	4	4	1	0	806	1	4	0	32	33	0	0	100
random	1	1	34	89927	4	2	2	1	0	933	1	4	0	16	34	0	0	100
random	1	1	35	91405	3	4	4	1	0	734	1	4	0	32	35	0	0	100
random	1	1	36	92861	1	1	1	1	0	785	1	4	0	8	36	0	0	100
random	1	1	37	94560	3	4	4	1	0	729	1	4	0	32	37	0	0	100
random	1	1	38	95977	5	3	3	1	0	901	1	4	0	24	38	0	0	100
random	1	1	39	97610	6	1	1	1	0	856	1	4	0	8	39	0	0	100
random	1	1	40	99109	1	2	2	1	0	848	1	4	0	16	40	0	0	100
random	1	1	41	100849	2	3	3	1	0	750	1	4	0	24	41	0	0	100
random	1	1	42	102222	4	4	4	1	0	900	1	4	0	32	42	0	0	100
random	1	1	43	103840	1	2	2	1	0	1256	1	4	0	16	43	0	0	100
random	1	1	44	105939	6	3	3	1	0	767	1	4	0	24	44	0	0	100
random	1	1	45	107156	3	1	1	1	0	1219	1	4	0	8	45	0	0	100
random	1	1	46	109186	4	4	4	1	0	677	1	4	0	32	46	0	0	100
random	1	1	47	110269	2	2	2	1	0	1159	1	4	0	16	47	0	0	100
random	1	1	48	112309	5	1	1	2	0	1649	2	4	0	8	48	0	0	100
random	1	1	49	114977	2	3	3	1	0	1104	1	4	0	24	49	0	0	100
random	1	1	50	116499	3	1	1	1	0	903	1	4	0	8	50	0	0	100
random	1	1	51	117830	1	4	4	1	0	977	1	4	0	32	51	0	0	100
random	1	1	52	119626	5	3	3	1	0	811	1	4	0	24	52	0	0	100
random	1	1	53	120857	3	2	2	1	0	775	1	4	0	16	53	0	0	100
random	1	1	54	122555	6	4	4	1	0	871	1	4	0	32	54	0	0	100
random	1	1	55	124392	4	2	2	1	0	953	1	4	0	16	55	0	0	100
random	1	1	56	126107	1	1	1	1	0	848	1	4	0	8	56	0	0	100
random	1	1	57	127573	5	4	4	1	0	714	1	4	0	32	57	0	0	100
random	1	1	58	128778	2	1	1	1	0	887	1	4	0	8	58	0	0	100
random	1	1	59	130565	6	2	2	1	0	1092	1	4	0	16	59	0	0	100
random	1	1	60	132337	4	3	3	1	0	665	1	4	0	24	60	0	0	100
random	1	1	61	133990	1	2	2	1	0	826	1	4	0	16	61	0	0	100
random	1	1	62	135764	6	4	4	1	0	743	1	4	0	32	62	0	0	100
random	1	1	63	137135	4	1	1	1	0	861	1	4	0	8	63	0	0	100
random	1	1	64	138439	2	2	2	1	0	966	1	4	0	16	64	0	0	100
random	1	1	65	139725	4	3	3	1	0	944	1	4	0	24	65	0	0	100
random	1	1	66	141109	3	1	1	1	0	949	1	4	0	8	66	0	0	100
random	1	1	67	142426	1	3	3	1	0	917	1	4	0	24	67	0	0	100
random	1	1	68	143735	5	4	4	1	0	934	1	4	0	32	68	0	0	100
random	1	1	69	145173	2	2	2	1	0	929	1	4	0	16	69	0	0	100
random	1	1	70	146676	3	1	1	1	0	785	1	4	0	8	70	0	0	100
random	1	1	71	148457	5	4	4	1	0	654	1	4	0	32	71	0	0	100
random	1	1	72	149983	6	3	3	1	0	909	1	4	0	24	72	0	0	100
random	1	1	73	151767	2	1	1	1	0	850	1	4	0	8	73	0	0	100
random	1	1	74	153389	5	3	3	1	0	885	1	4	0	24	74	0	0	100
random	1	1	75	155018	1	4	4	1	0	736	1	4	0	32	75	0	0	100
random	1	1	76	156568	6	2	2	1	0	782	1	4	0	16	76	0	0	100
random	1	1	77	158180	2	1	1	1	0	794	1	4	0	8	77	0	0	100
random	1	1	78	159632	4	4	4	1	0	749	1	4	0	32	78	0	0	100
random	1	1	79	161034	3	2	2	1	0	1081	1	4	0	16	79	0	0	100
random	1	1	80	162634	4	3	3	1	0	798	1	4	0	24	80	0	0	100
random	1	1	81	163942	1	4	4	1	0	774	1	4	0	32	81	0	0	100
random	1	1	82	165412	5	1	1	1	0	816	1	4	0	8	82	0	0	100
random	1	1	83	166692	3	2	0	0	2	0	3	4	0	16	82	0	1	99
random	1	1	84	169668	6	3	3	1	0	884	1	4	0	24	83	0	1	99
random	1	1	85	171816	3	2	2	1	0	1120	1	4	0	16	84	0	1	99
random	1	1	86	173815	1	3	3	1	0	820	1	4	0	24	85	0	1	99
random	1	1	87	175307	4	4	4	1	0	724	1	4	0	32	86	0	1	99
random	1	1	88	177000	2	1	1	1	0	797	1	4	0	8	87	0	1	99
random	1	1	89	178456	6	4	4	1	0	751	1	4	0	32	88	0	1	99
random	1	1	90	179903	3	3	3	1	0	730	1	4	0	24	89	0	1	99
random	1	1	91	181465	5	4	4	1	0	760	1	4	0	32	90	0	1	99
random	1	1	92	183180	1	2	2	1	0	607	1	4	0	16	91	0	1	99
random	1	1	93	184817	5	1	1	1	0	882	1	4	0	8	92	0	1	99
random	1	1	94	186373	4	3	3	1	0	968	1	4	0	24	93	0	1	99
random	1	1	95	188371	6	1	1	1	0	955	1	4	0	8	94	0	1	99
random	1	1	96	190183	2	2	2	1	0	1135	1	4	0	16	95	0	1	99
random	1	1	97	192216	4	3	3	1	0	936	1	4	0	24	96	0	1	99
random	1	1	98	193950	3	2	2	1	0	743	1	4	0	16	97	0	1	99
random	1	1	99	195208	6	3	3	1	0	954	1	4	0	24	98	0	1	99
random	1	1	100	197177	1	4	4	1	0	750	1	4	0	32	99	0	1	99
random	1	1	101	198294	4	1	1	1	0	1191	1	4	0	8	100	0	1	99
random	1	1	102	199996	5	2	2	1	0	1063	1	4	0	16	101	0	1	99
random	1	1	103	201951	2	4	4	1	0	724	1	4	0	32	102	0	1	99
random	1	1	104	203202	3	1	1	1	0	799	1	4	0	8	103	0	1	99
random	1	1	105	204302	1	3	3	1	0	977	1	4	0	24	104	0	1	99
random	1	1	106	205735	2	2	2	1	0	1300	1	4	0	16	105	0	1	99
random	1	1	107	207927	5	4	4	1	0	767	1	4	0	32	106	0	1	99
random	1	1	108	209566	6	1	1	1	0	850	1	4	0	8	107	0	1	99
random	1	1	109	211162	5	4	4	1	0	734	1	4	0	32	108	0	1	99
random	1	1	110	212234	6	3	3	1	0	889	1	4	0	24	109	0	1	99
random	1	1	111	213449	2	2	2	1	0	733	1	4	0	16	110	0	1	99
random	1	1	112	215052	3	1	1	1	0	762	1	4	0	8	111	0	1	99
random	1	1	113	216186	1	2	2	1	0	1041	1	4	0	16	112	0	1	99
random	1	1	114	217952	2	3	3	1	0	847	1	4	0	24	113	0	1	99
random	1	1	115	219163	3	1	1	1	0	851	1	4	0	8	114	0	1	99
random	1	1	116	220945	4	4	4	1	0	704	1	4	0	32	115	0	1	99
random	1	1	117	222041	6	1	1	1	0	1017	1	4	0	8	116	0	1	99
random	1	1	118	223633	5	3	3	1	0	846	1	4	0	24	117	0	1	99
random	1	1	119	224816	1	4	4	1	0	1084	1	4	0	32	118	0	1	99
random	1	1	120	226218	4	2	2	1	0	1208	1	4	0	16	119	0	1	99
fixed	2	1	1	228553	4	1	1	1	0	797	1	4	0	40	1	0	0	100
fixed	2	1	2	230193	1	2	2	1	0	1016	1	4	0	48	2	0	0	100
fixed	2	1	3	231594	6	4	4	1	0	996	1	4	0	64	3	0	0	100
fixed	2	1	4	233007	2	1	1	1	0	961	1	4	0	40	4	0	0	100
fixed	2	1	5	234311	5	3	3	1	0	1058	1	4	0	56	5	0	0	100
fixed	2	1	6	235931	6	4	4	1	0	861	1	4	0	64	6	0	0	100
fixed	2	1	7	237722	3	1	1	1	0	929	1	4	0	40	7	0	0	100
fixed	2	1	8	239553	2	3	3	1	0	883	1	4	0	56	8	0	0	100
fixed	2	1	9	240970	3	2	2	1	0	695	1	4	0	48	9	0	0	100
fixed	2	1	10	242499	1	4	4	1	0	695	1	4	0	64	10	0	0	100
fixed	2	1	11	243693	5	2	2	1	0	852	1	4	0	48	11	0	0	100
fixed	2	1	12	245058	4	3	3	1	0	851	1	4	0	56	12	0	0	100
fixed	2	2	1	246716	4	1	1	1	0	1156	1	4	0	40	13	0	0	100
fixed	2	2	2	248614	1	2	2	1	0	868	1	4	0	48	14	0	0	100
fixed	2	2	3	250201	6	4	4	1	0	745	1	4	0	64	15	0	0	100
fixed	2	2	4	251854	2	1	1	1	0	723	1	4	0	40	16	0	0	100
fixed	2	2	5	253313	5	3	3	1	0	973	1	4	0	56	17	0	0	100
fixed	2	2	6	255072	6	4	4	1	0	882	1	4	0	64	18	0	0	100
fixed	2	2	7	256694	3	1	1	1	0	693	1	4	0	40	19	0	0	100
fixed	2	2	8	258213	2	3	3	1	0	1005	1	4	0	56	20	0	0	100
fixed	2	2	9	260207	3	2	2	1	0	681	1	4	0	48	21	0	0	100
fixed	2	2	10	261211	1	4	4	1	0	1094	1	4	0	64	22	0	0	100
fixed	2	2	11	262833	5	2	2	1	0	1338	1	4	0	48	23	0	0	100
fixed	2	2	12	264827	4	3	3	1	0	733	1	4	0	56	24	0	0	100
fixed	2	3	1	266114	4	1	1	1	0	918	1	4	0	40	25	0	0	100
fixed	2	3	2	267480	1	2	2	1	0	1069	1	4	0	48	26	0	0	100
fixed	2	3	3	269347	6	4	4	1	0	798	1	4	0	64	27	0	0	100
fixed	2	3	4	270912	2	1	1	1	0	787	1	4	0	40	28	0	0	100
fixed	2	3	5	272551	5	3	3	1	0	742	1	4	0	56	29	0	0	100
fixed	2	3	6	274058	6	4	4	1	0	798	1	4	0	64	30	0	0	100
fixed	2	3	7	275202	3	1	1	1	0	885	1	4	0	40	31	0	0	100
fixed	2	3	8	276857	2	3	3	1	0	1023	1	4	0	56	32	0	0	100
fixed	2	3	9	278328	3	2	2	1	0	1025	1	4	0	48	33	0	0	100
fixed	2	3	10	279949	1	4	4	1	0	724	1	4	0	64	34	0	0	100
fixed	2	3	11	281232	5	2	2	1	0	1302	1	4	0	48	35	0	0	100
fixed	2	3	12	283542	4	3	3	1	0	788	1	4	0	56	36	0	0	100
fixed	2	4	1	285261	4	1	1	1	0	875	1	4	0	40	37	0	0	100
fixed	2	4	2	286784	1	2	2	1	0	867	1	4	0	48	38	0	0	100
fixed	2	4	3	288372	6	4	4	1	0	728	1	4	0	64	39	0	0	100
fixed	2	4	4	289500	2	1	1	1	0	1256	1	4	0	40	40	0	0	100
fixed	2	4	5	291239	5	3	3	1	0	863	1	4	0	56	41	0	0	100
fixed	2	4	6	292877	6	4	4	1	0	1057	1	4	0	64	42	0	0	100
fixed	2	4	7	294539	3	1	1	1	0	827	1	4	0	40	43	0	0	100
fixed	2	4	8	296051	2	3	3	1	0	1307	1	4	0	56	44	0	0	100
fixed	2	4	9	297902	3	2	2	1	0	1572	1	4	0	48	45	0	0	100
fixed	2	4	10	299851	1	4	4	1	0	834	1	4	0	64	46	0	0	100
fixed	2	4	11	301588	5	2	2	1	0	968	1	4	0	48	47	0	0	100
fixed	2	4	12	303334	4	3	3	1	0	750	1	4	0	56	48	0	0	100
fixed	2	5	1	305160	4	1	1	1	0	809	1	4	0	40	49	0	0	100
fixed	2	5	2	306429	1	2	2	1	0	1147	1	4	0	48	50	0	0	100
fixed	2	5	3	308157	6	4	4	1	0	1018	1	4	0	64	51	0	0	100
fixed	2	5	4	309524	2	1	1	1	0	1176	1	4	0	40	52	0	0	100
fixed	2	5	5	311512	5	3	3	1	0	804	1	4	0	56	53	0	0	100
fixed	2	5	6	312631	6	4	4	1	0	892	1	4	0	64	54	0	0	100
fixed	2	5	7	314403	3	1	1	1	0	985	1	4	0	40	55	0	0	100
fixed	2	5	8	315972	2	3	3	1	0	903	1	4	0	56	56	0	0	100
fixed	2	5	9	317833	3	2	2	1	0	848	1	4	0	48	57	0	0	100
fixed	2	5	10	319411	1	4	4	1	0	757	1	4	0	64	58	0	0	100
fixed	2	5	11	321000	5	2	2	1	0	962	1	4	0	48	59	0	0	100
fixed	2	5	12	322301	4	3	3	1	0	674	1	4	0	56	60	0	0	100
fixed	2	6	1	323806	4	1	1	1	0	755	1	4	0	40	61	0	0	100
fixed	2	6	2	324920	1	2	2	1	0	1412	1	4	0	48	62	0	0	100
fixed	2	6	3	326819	6	4	4	1	0	1131	1	4	0	64	63	0	0	100
fixed	2	6	4	328610	2	1	1	1	0	872	1	4	0	40	64	0	0	100
fixed	2	6	5	330438	5	3	3	1	0	970	1	4	0	56	65	0	0	100
fixed	2	6	6	331787	6	4	4	1	0	857	1	4	0	64	66	0	0	100
fixed	2	6	7	333198	3	1	1	1	0	829	1	4	0	40	67	0	0	100
fixed	2	6	8	334779	2	3	3	1	0	979	1	4	0	56	68	0	0	100
fixed	2	6	9	336614	3	2	2	1	0	709	1	4	0	48	69	0	0	100
fixed	2	6	10	337930	1	4	4	1	0	757	1	4	0	64	70	0	0	100
fixed	2	6	11	339130	5	2	2	1	0	1226	1	4	0	48	71	0	0	100
fixed	2	6	12	341258	4	3	3	1	0	664	1	4	0	56	72	0	0	100
fixed	2	7	1	342535	4	1	1	1	0	898	1	4	0	40	73	0	0	100
fixed	2	7	2	343888	1	2	2	1	0	1184	1	4	0	48	74	0	0	100
fixed	2	7	3	345619	6	4	4	1	0	927	1	4	0	64	75	0	0	100
fixed	2	7	4	347509	2	1	1	1	0	815	1	4	0	40	76	0	0	100
fixed	2	7	5	349010	5	3	3	1	0	840	1	4	0	56	77	0	0	100
fixed	2	7	6	350201	6	4	4	1	0	997	1	4	0	64	78	0	0	100
fixed	2	7	7	351832	3	1	1	1	0	1192	1	4	0	40	79	0	0	100
fixed	2	7	8	353621	2	3	3	1	0	988	1	4	0	56	80	0	0	100
fixed	2	7	9	355396	3	2	2	1	0	649	1	4	0	48	81	0	0	100
fixed	2	7	10	356676	1	4	4	1	0	843	1	4	0	64	82	0	0	100
fixed	2	7	11	357834	5	2	2	1	0	954	1	4	0	48	83	0	0	100
fixed	2	7	12	359712	4	3	3	1	0	658	1	4	0	56	84	0	0	100
fixed	2	8	1	361415	4	1	1	1	0	810	1	4	0	40	85	0	0	100
fixed	2	8	2	362710	1	2	2	1	0	947	1	4	0	48	86	0	0	100
fixed	2	8	3	364521	6	4	4	1	0	710	1	4	0	64	87	0	0	100
fixed	2	8	4	365834	2	1	1	1	0	767	1	4	0	40	88	0	0	100
fixed	2	8	5	367396	5	3	3	1	0	989	1	4	0	56	89	0	0	100
fixed	2	8	6	369371	6	4	4	1	0	697	1	4	0	64	90	0	0	100
fixed	2	8	7	370671	3	1	1	1	0	730	1	4	0	40	91	0	0	100
fixed	2	8	8	372076	2	3	3	1	0	966	1	4	0	56	92	0	0	100
fixed	2	8	9	374028	3	2	2	1	0	708	1	4	0	48	93	0	0	100
fixed	2	8	10	375038	1	4	4	1	0	921	1	4	0	64	94	0	0	100
fixed	2	8	11	376281	5	2	2	1	0	989	1	4	0	48	95	0	0	100
fixed	2	8	12	377972	4	3	3	1	0	749	1	4	0	56	96	0	0	100
fixed	2	9	1	379743	4	1	1	1	0	850	1	4	0	40	97	0	0	100
fixed	2	9	2	381100	1	2	2	1	0	912	1	4	0	48	98	0	0	100
fixed	2	9	3	382487	6	4	4	1	0	918	1	4	0	64	99	0	0	100
fixed	2	9	4	384306	2	1	1	1	0	688	1	4	0	40	100	0	0	100
fixed	2	9	5	385943	5	3	3	1	0	835	1	4	0	56	101	0	0	100
fixed	2	9	6	387190	6	4	4	1	0	967	1	4	0	64	102	0	0	100
fixed	2	9	7	388739	3	1	1	1	0	797	1	4	0	40	103	0	0	100
fixed	2	9	8	390188	2	3	3	2	0	2023	2	4	0	56	104	0	0	100
fixed	2	9	9	393046	3	2	2	1	0	798	1	4	0	48	105	0	0	100
fixed	2	9	10	394258	1	4	4	1	0	859	1	4	0	64	106	0	0	100
fixed	2	9	11	396017	5	2	2	1	0	912	1	4	0	48	107	0	0	100
fixed	2	9	12	397649	4	3	3	1	0	756	1	4	0	56	108	0	0	100
fixed	2	10	1	399658	4	1	1	1	0	742	1	4	0	40	109	0	0	100
fixed	2	10	2	401200	1	2	2	1	0	909	1	4	0	48	110	0	0	100
fixed	2	10	3	402869	6	4	4	1	0	710	1	4	0	64	111	0	0	100
fixed	2	10	4	404514	2	1	1	1	0	889	1	4	0	40	112	0	0	100
fixed	2	10	5	405782	5	3	3	1	0	819	1	4	0	56	113	0	0	100
fixed	2	10	6	407361	6	4	4	1	0	632	1	4	0	64	114	0	0	100
fixed	2	10	7	408598	3	1	1	1	0	819	1	4	0	40	115	0	0	100
fixed	2	10	8	410019	2	3	3	1	0	927	1	4	0	56	116	0	0	100
fixed	2	10	9	411939	3	2	2	1	0	1014	1	4	0	48	117	0	0	100
fixed	2	10	10	413341	1	4	4	1	0	850	1	4	0	64	118	0	0	100
fixed	2	10	11	415139	5	2	2	1	0	1063	1	4	0	48	119	0	0	100
fixed	2	10	12	416771	4	3	3	1	0	617	1	4	0	56	120	0	0	100
fixed	3	1	1	418319	4	1	1	1	0	760	1	4	0	72	1	0	0	100
fixed	3	1	2	419613	1	2	2	1	0	841	1	4	0	80	2	0	0	100
fixed	3	1	3	421025	6	4	4	1	0	901	1	4	0	96	3	0	0	100
fixed	3	1	4	422326	2	1	1	1	0	886	1	4	0	72	4	0	0	100
fixed	3	1	5	424009	5	3	3	1	0	1399	1	4	0	88	5	0	0	100
fixed	3	1	6	426038	6	4	4	1	0	777	1	4	0	96	6	0	0	100
fixed	3	1	7	427546	3	1	1	1	0	761	1	4	0	72	7	0	0	100
fixed	3	1	8	429323	2	3	3	1	0	974	1	4	0	88	8	0	0	100
fixed	3	1	9	430940	3	2	2	1	0	641	1	4	0	80	9	0	0	100
fixed	3	1	10	432210	1	4	4	1	0	652	1	4	0	96	10	0	0	100
fixed	3	1	11	433881	5	2	2	1	0	693	1	4	0	80	11	0	0	100
fixed	3	1	12	434898	4	3	3	1	0	754	1	4	0	88	12	0	0	100
fixed	3	2	1	436933	4	1	1	1	0	891	1	4	0	72	13	0	0	100
fixed	3	2	2	438378	1	2	2	1	0	894	1	4	0	80	14	0	0	100
fixed	3	2	3	439988	6	4	4	1	0	690	1	4	0	96	15	0	0	100
fixed	3	2	4	441452	2	1	1	1	0	756	1	4	0	72	16	0	0	100
fixed	3	2	5	442554	5	3	3	1	0	997	1	4	0	88	17	0	0	100
fixed	3	2	6	443958	6	4	4	1	0	1002	1	4	0	96	18	0	0	100
fixed	3	2	7	445319	3	1	1	1	0	944	1	4	0	72	19	0	0	100
fixed	3	2	8	447052	2	3	3	1	0	839	1	4	0	88	20	0	0	100
fixed	3	2	9	448700	3	2	2	1	0	905	1	4	0	80	21	0	0	100
fixed	3	2	10	450272	1	4	4	1	0	679	1	4	0	96	22	0	0	100
fixed	3	2	11	451857	5	2	2	1	0	883	1	4	0	80	23	0	0	100
fixed	3	2	12	453210	4	3	3	1	0	666	1	4	0	88	24	0	0	100
fixed	3	3	1	454560	4	1	1	1	0	785	1	4	0	72	25	0	0	100
fixed	3	3	2	455745	1	2	2	1	0	1062	1	4	0	80	26	0	0	100
fixed	3	3	3	457109	6	4	4	1	0	989	1	4	0	96	27	0	0	100
fixed	3	3	4	458501	2	1	1	1	0	890	1	4	0	72	28	0	0	100
fixed	3	3	5	460150	5	3	3	1	0	780	1	4	0	88	29	0	0	100
fixed	3	3	6	461431	6	4	4	1	0	806	1	4	0	96	30	0	0	100
fixed	3	3	7	463129	3	1	1	1	0	918	1	4	0	72	31	0	0	100
fixed	3	3	8	464556	2	3	3	1	0	937	1	4	0	88	32	0	0	100
fixed	3	3	9	465939	3	2	2	1	0	775	1	4	0	80	33	0	0	100
fixed	3	3	10	467447	1	4	4	1	0	887	1	4	0	96	34	0	0	100
fixed	3	3	11	469204	5	2	2	1	0	917	1	4	0	80	35	0	0	100
fixed	3	3	12	470545	4	3	3	1	0	676	1	4	0	88	36	0	0	100
fixed	3	4	1	472036	4	1	1	1	0	804	1	4	0	72	37	0	0	100
fixed	3	4	2	473472	1	2	2	1	0	1064	1	4	0	80	38	0	0	100
fixed	3	4	3	475084	6	4	4	1	0	844	1	4	0	96	39	0	0	100
fixed	3	4	4	476239	2	1	1	1	0	979	1	4	0	72	40	0	0	100
fixed	3	4	5	477792	5	3	3	1	0	1065	1	4	0	88	41	0	0	100
fixed	3	4	6	479331	6	4	4	1	0	1136	1	4	0	96	42	0	0	100
fixed	3	4	7	481110	3	1	1	1	0	1076	1	4	0	72	43	0	0	100
fixed	3	4	8	482492	2	3	3	1	0	1001	1	4	0	88	44	0	0	100
fixed	3	4	9	484015	3	2	2	1	0	809	1	4	0	80	45	0	0	100
fixed	3	4	10	485692	1	4	4	1	0	698	1	4	0	96	46	0	0	100
fixed	3	4	11	486998	5	2	2	1	0	723	1	4	0	80	47	0	0	100
fixed	3	4	12	488731	4	3	3	1	0	762	1	4	0	88	48	0	0	100
fixed	3	5	1	490348	4	1	1	1	0	909	1	4	0	72	49	0	0	100
fixed	3	5	2	491743	1	2	2	1	0	914	1	4	0	80	50	0	0	100
fixed	3	5	3	493592	6	4	4	1	0	724	1	4	0	96	51	0	0	100
fixed	3	5	4	494819	2	1	1	1	0	1328	1	4	0	72	52	0	0	100
fixed	3	5	5	496653	5	3	3	1	0	898	1	4	0	88	53	0	0	100
fixed	3	5	6	498249	6	4	4	1	0	566	1	4	0	96	54	0	0	100
fixed	3	5	7	499337	3	1	1	1	0	808	1	4	0	72	55	0	0	100
fixed	3	5	8	500497	2	3	3	1	0	991	1	4	0	88	56	0	0	100
fixed	3	5	9	502094	3	2	2	1	0	875	1	4	0	80	57	0	0	100
fixed	3	5	10	503474	1	4	4	1	0	697	1	4	0	96	58	0	0	100
fixed	3	5	11	505135	5	2	2	1	0	939	1	4	0	80	59	0	0	100
fixed	3	5	12	506578	4	3	3	1	0	686	1	4	0	88	60	0	0	100
fixed	3	6	1	508175	4	1	1	1	0	754	1	4	0	72	61	0	0	100
fixed	3	6	2	509253	1	2	2	1	0	909	1	4	0	80	62	0	0	100
fixed	3	6	3	511162	6	4	4	1	0	588	1	4	0	96	63	0	0	100
fixed	3	6	4	512175	2	1	1	1	0	1089	1	4	0	72	64	0	0	100
fixed	3	6	5	514225	5	3	3	1	0	818	1	4	0	88	65	0	0	100
fixed	3	6	6	515714	6	4	4	1	0	683	1	4	0	96	66	0	0	100
fixed	3	6	7	517274	3	1	1	1	0	897	1	4	0	72	67	0	0	100
fixed	3	6	8	518894	2	3	3	1	0	980	1	4	0	88	68	0	0	100
fixed	3	6	9	520471	3	2	2	1	0	1153	1	4	0	80	69	0	0	100
fixed	3	6	10	522237	1	4	4	1	0	767	1	4	0	96	70	0	0	100
fixed	3	6	11	523351	5	2	2	1	0	911	1	4	0	80	71	0	0	100
fixed	3	6	12	524664	4	3	3	1	0	735	1	4	0	88	72	0	0	100
fixed	3	7	1	526135	4	1	1	1	0	825	1	4	0	72	73	0	0	100
fixed	3	7	2	527969	1	2	2	1	0	1356	1	4	0	80	74	0	0	100
fixed	3	7	3	530024	6	4	4	1	0	741	1	4	0	96	75	0	0	100
fixed	3	7	4	531311	2	1	1	1	0	1383	1	4	0	72	76	0	0	100
fixed	3	7	5	533381	5	3	3	1	0	783	1	4	0	88	77	0	0	100
fixed	3	7	6	534989	6	4	4	1	0	682	1	4	0	96	78	0	0	100
fixed	3	7	7	536311	3	1	1	1	0	986	1	4	0	72	79	0	0	100
fixed	3	7	8	538137	2	3	3	1	0	933	1	4	0	88	80	0	0	100
fixed	3	7	9	540057	3	2	2	1	0	708	1	4	0	80	81	0	0	100
fixed	3	7	10	541688	1	4	4	1	0	790	1	4	0	96	82	0	0	100
fixed	3	7	11	543076	5	2	2	1	0	1324	1	4	0	80	83	0	0	100
fixed	3	7	12	544970	4	3	3	1	0	644	1	4	0	88	84	0	0	100
fixed	3	8	1	546519	4	1	1	1	0	810	1	4	0	72	85	0	0	100
fixed	3	8	2	547989	1	2	2	1	0	1099	1	4	0	80	86	0	0	100
fixed	3	8	3	549871	6	4	4	1	0	869	1	4	0	96	87	0	0	100
fixed	3	8	4	551260	2	1	1	1	0	889	1	4	0	72	88	0	0	100
fixed	3	8	5	553086	5	3	3	1	0	852	1	4	0	88	89	0	0	100
fixed	3	8	6	554552	6	4	4	1	0	806	1	4	0	96	90	0	0	100
fixed	3	8	7	556266	3	1	1	1	0	1061	1	4	0	72	91	0	0	100
fixed	3	8	8	558032	2	3	3	1	0	1002	1	4	0	88	92	0	0	100
fixed	3	8	9	559722	3	2	2	1	0	779	1	4	0	80	93	0	0	100
fixed	3	8	10	560965	1	4	4	1	0	854	1	4	0	96	94	0	0	100
fixed	3	8	11	562351	5	2	2	1	0	860	1	4	0	80	95	0	0	100
fixed	3	8	12	564029	4	3	3	1	0	860	1	4	0	88	96	0	0	100
fixed	3	9	1	565916	4	1	1	1	0	796	1	4	0	72	97	0	0	100
fixed	3	9	2	567274	1	2	2	1	0	1083	1	4	0	80	98	0	0	100
fixed	3	9	3	569053	6	4	4	1	0	800	1	4	0	96	99	0	0	100
fixed	3	9	4	570471	2	1	1	1	0	828	1	4	0	72	100	0	0	100
fixed	3	9	5	572101	5	3	3	1	0	910	1	4	0	88	101	0	0	100
fixed	3	9	6	573710	6	4	4	1	0	698	1	4	0	96	102	0	0	100
fixed	3	9	7	575098	3	1	1	1	0	864	1	4	0	72	103	0	0	100
fixed	3	9	8	576327	2	3	3	1	0	1027	1	4	0	88	104	0	0	100
fixed	3	9	9	578082	3	2	2	1	0	785	1	4	0	80	105	0	0	100
fixed	3	9	10	579221	1	4	4	1	0	921	1	4	0	96	106	0	0	100
fixed	3	9	11	580750	5	2	2	1	0	888	1	4	0	80	107	0	0	100
fixed	3	9	12	582278	4	3	3	1	0	727	1	4	0	88	108	0	0	100
fixed	3	10	1	584144	4	1	1	1	0	872	1	4	0	72	109	0	0	100
fixed	3	10	2	585783	1	2	2	1	0	1011	1	4	0	80	110	0	0	100
fixed	3	10	3	587767	6	4	4	1	0	751	1	4	0	96	111	0	0	100
fixed	3	10	4	589058	2	1	1	1	0	936	1	4	0	72	112	0	0	100
fixed	3	10	5	590696	5	3	3	1	0	1563	1	4	0	88	113	0	0	100
fixed	3	10	6	592967	6	4	4	1	0	658	1	4	0	96	114	0	0	100
fixed	3	10	7	594468	3	1	1	1	0	835	1	4	0	72	115	0	0	100
fixed	3	10	8	596063	2	3	3	1	0	960	1	4	0	88	116	0	0	100
fixed	3	10	9	597320	3	2	2	1	0	1411	1	4	0	80	117	0	0	100
fixed	3	10	10	599500	1	4	4	1	0	750	1	4	0	96	118	0	0	100
fixed	3	10	11	600902	5	2	2	1	0	682	1	4	0	80	119	0	0	100
fixed	3	10	12	602362	4	3	3	1	0	781	1	4	0	88	120	0	0	100
fixed	4	1	1	724720	4	1	1	1	0	1070	1	4	0	104	1	0	0	100
fixed	4	1	2	726832	1	2	2	1	0	1117	1	4	0	112	2	0	0	100
fixed	4	1	3	728559	6	4	4	1	0	836	1	4	0	128	3	0	0	100
fixed	4	1	4	730156	2	1	1	1	0	784	1	4	0	104	4	0	0	100
fixed	4	1	5	731698	5	3	3	1	0	847	1	4	0	120	5	0	0	100
fixed	4	1	6	732878	6	4	4	1	0	917	1	4	0	128	6	0	0	100
fixed	4	1	7	734468	3	1	1	1	0	793	1	4	0	104	7	0	0	100
fixed	4	1	8	735653	2	3	3	1	0	1055	1	4	0	120	8	0	0	100
fixed	4	1	9	737394	3	2	2	1	0	726	1	4	0	112	9	0	0	100
fixed	4	1	10	738865	1	4	4	1	0	647	1	4	0	128	10	0	0	100
fixed	4	1	11	739796	5	2	2	1	0	1128	1	4	0	112	11	0	0	100
fixed	4	1	12	741259	4	3	3	1	0	826	1	4	0	120	12	0	0	100
fixed	4	2	1	743084	4	1	1	1	0	764	1	4	0	104	13	0	0	100
fixed	4	2	2	744450	1	2	2	1	0	1179	1	4	0	112	14	0	0	100
fixed	4	2	3	746162	6	4	4	1	0	898	1	4	0	128	15	0	0	100
fixed	4	2	4	747355	2	1	1	1	0	880	1	4	0	104	16	0	0	100
fixed	4	2	5	749017	5	3	3	1	0	689	1	4	0	120	17	0	0	100
fixed	4	2	6	750380	6	4	4	1	0	712	1	4	0	128	18	0	0	100
fixed	4	2	7	751913	3	1	1	1	0	791	1	4	0	104	19	0	0	100
fixed	4	2	8	753454	2	3	3	1	0	1038	1	4	0	120	20	0	0	100
fixed	4	2	9	755066	3	2	2	1	0	816	1	4	0	112	21	0	0	100
fixed	4	2	10	756511	1	4	4	1	0	916	1	4	0	128	22	0	0	100
fixed	4	2	11	758019	5	2	2	1	0	948	1	4	0	112	23	0	0	100
fixed	4	2	12	759607	4	3	3	1	0	688	1	4	0	120	24	0	0	100
fixed	4	3	1	761429	4	1	1	1	0	795	1	4	0	104	25	0	0	100
fixed	4	3	2	762658	1	2	2	1	0	1184	1	4	0	112	26	0	0	100
fixed	4	3	3	764714	6	4	4	1	0	673	1	4	0	128	27	0	0	100
fixed	4	3	4	766005	2	1	1	1	0	1553	1	4	0	104	28	0	0	100
fixed	4	3	5	768327	5	3	3	1	0	808	1	4	0	120	29	0	0	100
fixed	4	3	6	770057	6	4	4	1	0	702	1	4	0	128	30	0	0	100
fixed	4	3	7	771632	3	1	1	2	0	1612	2	4	0	104	31	0	0	100
fixed	4	3	8	774235	2	3	3	1	0	1533	1	4	0	120	32	0	0	100
fixed	4	3	9	776782	3	2	2	1	0	769	1	4	0	112	33	0	0	100
fixed	4	3	10	778332	1	4	4	1	0	792	1	4	0	128	34	0	0	100
fixed	4	3	11	779680	5	2	2	1	0	982	1	4	0	112	35	0	0	100
fixed	4	3	12	781158	4	3	3	1	0	768	1	4	0	120	36	0	0	100
fixed	4	4	1	783016	4	1	1	1	0	761	1	4	0	104	37	0	0	100
fixed	4	4	2	784305	1	2	2	1	0	930	1	4	0	112	38	0	0	100
fixed	4	4	3	786222	6	4	4	1	0	665	1	4	0	128	39	0	0	100
fixed	4	4	4	787180	2	1	1	1	0	1089	1	4	0	104	40	0	0	100
fixed	4	4	5	789188	5	3	3	1	0	780	1	4	0	120	41	0	0	100
fixed	4	4	6	790779	6	4	4	1	0	697	1	4	0	128	42	0	0	100
fixed	4	4	7	792219	3	1	1	1	0	739	1	4	0	104	43	0	0	100
fixed	4	4	8	793438	2	3	3	1	0	1071	1	4	0	120	44	0	0	100
fixed	4	4	9	795076	3	2	2	1	0	1178	1	4	0	112	45	0	0	100
fixed	4	4	10	796906	1	4	4	1	0	893	1	4	0	128	46	0	0	100
fixed	4	4	11	798620	5	2	2	1	0	1060	1	4	0	112	47	0	0	100
fixed	4	4	12	800379	4	3	3	1	0	706	1	4	0	120	48	0	0	100
fixed	4	5	1	801912	4	1	1	1	0	793	1	4	0	104	49	0	0	100
fixed	4	5	2	803036	1	2	2	1	0	1193	1	4	0	112	50	0	0	100
fixed	4	5	3	804829	6	4	4	1	0	893	1	4	0	128	51	0	0	100
fixed	4	5	4	806637	2	1	1	1	0	793	1	4	0	104	52	0	0	100
fixed	4	5	5	808057	5	3	3	1	0	909	1	4	0	120	53	0	0	100
fixed	4	5	6	809853	6	4	4	1	0	752	1	4	0	128	54	0	0	100
fixed	4	5	7	811048	3	1	1	1	0	1078	1	4	0	104	55	0	0	100
fixed	4	5	8	812911	2	3	3	1	0	903	1	4	0	120	56	0	0	100
fixed	4	5	9	814729	3	2	2	1	0	666	1	4	0	112	57	0	0	100
fixed	4	5	10	815881	1	4	4	1	0	897	1	4	0	128	58	0	0	100
fixed	4	5	11	817264	5	2	2	1	0	1038	1	4	0	112	59	0	0	100
fixed	4	5	12	819019	4	3	3	1	0	836	1	4	0	120	60	0	0	100
fixed	4	6	1	820658	4	1	1	1	0	727	1	4	0	104	61	0	0	100
fixed	4	6	2	822344	1	2	2	1	0	895	1	4	0	112	62	0	0	100
fixed	4	6	3	823580	6	4	4	1	0	1051	1	4	0	128	63	0	0	100
fixed	4	6	4	825168	2	1	1	1	0	856	1	4	0	104	64	0	0	100
fixed	4	6	5	826527	5	3	3	1	0	1222	1	4	0	120	65	0	0	100
fixed	4	6	6	828592	6	4	4	1	0	798	1	4	0	128	66	0	0	100
fixed	4	6	7	830383	3	1	1	1	0	755	1	4	0	104	67	0	0	100
fixed	4	6	8	831765	2	3	3	1	0	889	1	4	0	120	68	0	0	100
fixed	4	6	9	833213	3	2	2	1	0	795	1	4	0	112	69	0	0	100
fixed	4	6	10	834691	1	4	4	1	0	652	1	4	0	128	70	0	0	100
fixed	4	6	11	836018	5	2	2	1	0	788	1	4	0	112	71	0	0	100
fixed	4	6	12	837704	4	3	3	1	0	749	1	4	0	120	72	0	0	100
fixed	4	7	1	839738	4	1	1	1	0	782	1	4	0	104	73	0	0	100
fixed	4	7	2	841479	1	2	2	1	0	1005	1	4	0	112	74	0	0	100
fixed	4	7	3	843082	6	4	4	1	0	913	1	4	0	128	75	0	0	100
fixed	4	7	4	844498	2	1	1	1	0	845	1	4	0	104	76	0	0	100
fixed	4	7	5	846280	5	3	3	2	0	1186	2	4	0	120	77	0	0	100
fixed	4	7	6	847891	6	4	4	1	0	1029	1	4	0	128	78	0	0	100
fixed	4	7	7	849869	3	1	1	1	0	706	1	4	0	104	79	0	0	100
fixed	4	7	8	851307	2	3	3	1	0	821	1	4	0	120	80	0	0	100
fixed	4	7	9	852561	3	2	2	1	0	960	1	4	0	112	81	0	0	100
fixed	4	7	10	854195	1	4	4	1	0	746	1	4	0	128	82	0	0	100
fixed	4	7	11	855637	5	2	2	1	0	885	1	4	0	112	83	0	0	100
fixed	4	7	12	857119	4	3	3	1	0	647	1	4	0	120	84	0	0	100
fixed	4	8	1	858334	4	1	1	1	0	851	1	4	0	104	85	0	0	100
fixed	4	8	2	860077	1	2	2	1	0	1297	1	4	0	112	86	0	0	100
fixed	4	8	3	861784	6	4	4	1	0	809	1	4	0	128	87	0	0	100
fixed	4	8	4	863379	2	1	1	1	0	709	1	4	0	104	88	0	0	100
fixed	4	8	5	864748	5	3	3	1	0	795	1	4	0	120	89	0	0	100
fixed	4	8	6	866222	6	4	4	1	0	685	1	4	0	128	90	0	0	100
fixed	4	8	7	867721	3	1	1	1	0	877	1	4	0	104	91	0	0	100
fixed	4	8	8	869317	2	3	3	1	0	986	1	4	0	120	92	0	0	100
fixed	4	8	9	870872	3	2	2	1	0	896	1	4	0	112	93	0	0	100
fixed	4	8	10	872741	1	4	4	1	0	665	1	4	0	128	94	0	0	100
fixed	4	8	11	874382	5	2	2	1	0	747	1	4	0	112	95	0	0	100
fixed	4	8	12	875789	4	3	3	1	0	672	1	4	0	120	96	0	0	100
fixed	4	9	1	877481	4	1	1	1	0	720	1	4	0	104	97	0	0	100
fixed	4	9	2	878637	1	2	2	1	0	1055	1	4	0	112	98	0	0	100
fixed	4	9	3	880647	6	4	4	1	0	658	1	4	0	128	99	0	0	100
fixed	4	9	4	881864	2	1	1	1	0	1158	1	4	0	104	100	0	0	100
fixed	4	9	5	883839	5	3	3	1	0	875	1	4	0	120	101	0	0	100
fixed	4	9	6	885128	6	4	4	1	0	1132	1	4	0	128	102	0	0	100
fixed	4	9	7	887153	3	1	1	1	0	926	1	4	0	104	103	0	0	100
fixed	4	9	8	888995	2	3	3	1	0	1088	1	4	0	120	104	0	0	100
fixed	4	9	9	890614	3	2	2	1	0	844	1	4	0	112	105	0	0	100
fixed	4	9	10	892410	1	4	4	1	0	960	1	4	0	128	106	0	0	100
fixed	4	9	11	894057	5	2	2	1	0	882	1	4	0	112	107	0	0	100
fixed	4	9	12	895767	4	3	3	1	0	770	1	4	0	120	108	0	0	100
fixed	4	10	1	897313	4	1	1	1	0	728	1	4	0	104	109	0	0	100
fixed	4	10	2	898885	1	2	2	1	0	1053	1	4	0	112	110	0	0	100
fixed	4	10	3	900705	6	4	4	1	0	808	1	4	0	128	111	0	0	100
fixed	4	10	4	901846	2	1	1	1	0	1080	1	4	0	104	112	0	0	100
fixed	4	10	5	903467	5	3	3	1	0	915	1	4	0	120	113	0	0	100
fixed	4	10	6	905309	6	4	4	1	0	798	1	4	0	128	114	0	0	100
fixed	4	10	7	906823	3	1	1	1	0	717	1	4	0	104	115	0	0	100
fixed	4	10	8	908490	2	3	3	1	0	958	1	4	0	120	116	0	0	100
fixed	4	10	9	909844	3	2	2	1	0	981	1	4	0	112	117	0	0	100
fixed	4	10	10	911363	1	4	4	1	0	909	1	4	0	128	118	0	0	100
fixed	4	10	11	912771	5	2	2	1	0	1025	1	4	0	112	119	0	0	100
fixed	4	10	12	914158	4	3	3	1	0	1007	1	4	0	120	120	0	0	100
fixed	5	1	1	916274	4	1	1	1	0	757	1	4	0	136	1	0	0	100
fixed	5	1	2	917413	1	2	2	1	0	917	1	4	0	144	2	0	0	100
fixed	5	1	3	918978	6	4	4	1	0	715	1	4	0	160	3	0	0	100
fixed	5	1	4	920681	2	1	1	1	0	795	1	4	0	136	4	0	0	100
fixed	5	1	5	922439	5	3	3	1	0	840	1	4	0	152	5	0	0	100
fixed	5	1	6	924044	6	4	4	1	0	1028	1	4	0	160	6	0	0	100
fixed	5	1	7	925530	3	1	1	1	0	1021	1	4	0	136	7	0	0	100
fixed	5	1	8	927465	2	3	3	1	0	1131	1	4	0	152	8	0	0	100
fixed	5	1	9	929201	3	2	2	2	0	1658	2	4	0	144	9	0	0	100
fixed	5	1	10	931692	1	4	4	1	0	824	1	4	0	160	10	0	0	100
fixed	5	1	11	933284	5	2	2	1	0	1132	1	4	0	144	11	0	0	100
fixed	5	1	12	935391	4	3	3	1	0	755	1	4	0	152	12	0	0	100
fixed	5	2	1	937411	4	1	1	1	0	982	1	4	0	136	13	0	0	100
fixed	5	2	2	939427	1	2	2	1	0	825	1	4	0	144	14	0	0	100
fixed	5	2	3	941014	6	4	4	1	0	885	1	4	0	160	15	0	0	100
fixed	5	2	4	942688	2	1	1	1	0	790	1	4	0	136	16	0	0	100
fixed	5	2	5	944259	5	3	3	1	0	1355	1	4	0	152	17	0	0	100
fixed	5	2	6	945977	6	4	4	1	0	1019	1	4	0	160	18	0	0	100
fixed	5	2	7	947888	3	1	1	1	0	818	1	4	0	136	19	0	0	100
fixed	5	2	8	949717	2	3	3	1	0	1005	1	4	0	152	20	0	0	100
fixed	5	2	9	951349	3	2	2	1	0	575	1	4	0	144	21	0	0	100
fixed	5	2	10	952841	1	4	4	1	0	624	1	4	0	160	22	0	0	100
fixed	5	2	11	954296	5	2	2	1	0	1467	1	4	0	144	23	0	0	100
fixed	5	2	12	956326	4	3	3	1	0	700	1	4	0	152	24	0	0	100
fixed	5	3	1	957811	4	1	1	1	0	1397	1	4	0	136	25	0	0	100
fixed	5	3	2	960101	1	2	2	2	0	1797	2	4	0	144	26	0	0	100
fixed	5	3	3	962283	6	4	4	1	0	865	1	4	0	160	27	0	0	100
fixed	5	3	4	963967	2	1	1	1	0	977	1	4	0	136	28	0	0	100
fixed	5	3	5	965928	5	3	3	1	0	870	1	4	0	152	29	0	0	100
fixed	5	3	6	967413	6	4	4	1	0	911	1	4	0	160	30	0	0	100
fixed	5	3	7	968721	3	1	1	1	0	951	1	4	0	136	31	0	0	100
fixed	5	3	8	970202	2	3	3	1	0	977	1	4	0	152	32	0	0	100
fixed	5	3	9	971634	3	2	2	1	0	1148	1	4	0	144	33	0	0	100
fixed	5	3	10	973608	1	4	4	1	0	1257	1	4	0	160	34	0	0	100
fixed	5	3	11	975544	5	2	2	1	0	775	1	4	0	144	35	0	0	100
fixed	5	3	12	976900	4	3	3	1	0	717	1	4	0	152	36	0	0	100
fixed	5	4	1	978729	4	1	1	1	0	1199	1	4	0	136	37	0	0	100
fixed	5	4	2	980557	1	2	2	1	0	922	1	4	0	144	38	0	0	100
fixed	5	4	3	982230	6	4	4	1	0	716	1	4	0	160	39	0	0	100
fixed	5	4	4	983583	2	1	1	1	0	946	1	4	0	136	40	0	0	100
fixed	5	4	5	984938	5	3	3	1	0	945	1	4	0	152	41	0	0	100
fixed	5	4	6	986185	6	4	4	1	0	908	1	4	0	160	42	0	0	100
fixed	5	4	7	987523	3	1	1	1	0	1211	1	4	0	136	43	0	0	100
fixed	5	4	8	989114	2	3	3	1	0	992	1	4	0	152	44	0	0	100
fixed	5	4	9	990740	3	2	2	1	0	891	1	4	0	144	45	0	0	100
fixed	5	4	10	992307	1	4	4	1	0	1001	1	4	0	160	46	0	0	100
fixed	5	4	11	994239	5	2	2	1	0	1159	1	4	0	144	47	0	0	100
fixed	5	4	12	996125	4	3	3	1	0	663	1	4	0	152	48	0	0	100
fixed	5	5	1	997993	4	1	1	1	0	808	1	4	0	136	49	0	0	100
fixed	5	5	2	999399	1	2	2	1	0	956	1	4	0	144	50	0	0	100
fixed	5	5	3	1000951	6	4	4	1	0	770	1	4	0	160	51	0	0	100
fixed	5	5	4	1002537	2	1	1	1	0	759	1	4	0	136	52	0	0	100
fixed	5	5	5	1004129	5	3	3	1	0	940	1	4	0	152	53	0	0	100
fixed	5	5	6	1005364	6	4	4	1	0	999	1	4	0	160	54	0	0	100
fixed	5	5	7	1007140	3	1	1	1	0	804	1	4	0	136	55	0	0	100
fixed	5	5	8	1008648	2	3	3	1	0	853	1	4	0	152	56	0	0	100
fixed	5	5	9	1010264	3	2	2	1	0	824	1	4	0	144	57	0	0	100
fixed	5	5	10	1012039	1	4	4	1	0	677	1	4	0	160	58	0	0	100
fixed	5	5	11	1013660	5	2	2	1	0	912	1	4	0	144	59	0	0	100
fixed	5	5	12	1015351	4	3	3	1	0	784	1	4	0	152	60	0	0	100
fixed	5	6	1	1017123	4	1	1	1	0	741	1	4	0	136	61	0	0	100
fixed	5	6	2	1018605	1	2	2	1	0	903	1	4	0	144	62	0	0	100
fixed	5	6	3	1020082	6	4	4	1	0	1048	1	4	0	160	63	0	0	100
fixed	5	6	4	1021971	2	1	1	1	0	1464	1	4	0	136	64	0	0	100
fixed	5	6	5	1023869	5	3	3	1	0	1848	1	4	0	152	65	0	0	100
fixed	5	6	6	1026187	6	4	4	1	0	734	1	4	0	160	66	0	0	100
fixed	5	6	7	1027636	3	1	1	1	0	848	1	4	0	136	67	0	0	100
fixed	5	6	8	1029082	2	3	3	2	0	1819	2	4	0	152	68	0	0	100
fixed	5	6	9	1031716	3	2	2	1	0	731	1	4	0	144	69	0	0	100
fixed	5	6	10	1032735	1	4	4	1	0	920	1	4	0	160	70	0	0	100
fixed	5	6	11	1034426	5	2	2	1	0	897	1	4	0	144	71	0	0	100
fixed	5	6	12	1036203	4	3	3	1	0	765	1	4	0	152	72	0	0	100
fixed	5	7	1	1038158	4	1	1	1	0	954	1	4	0	136	73	0	0	100
fixed	5	7	2	1040002	1	2	2	1	0	1044	1	4	0	144	74	0	0	100
fixed	5	7	3	1041445	6	4	4	1	0	1016	1	4	0	160	75	0	0	100
fixed	5	7	4	1043239	2	1	1	1	0	1051	1	4	0	136	76	0	0	100
fixed	5	7	5	1044711	5	3	3	1	0	1797	1	4	0	152	77	0	0	100
fixed	5	7	6	1047456	6	4	4	1	0	761	1	4	0	160	78	0	0	100
fixed	5	7	7	1048846	3	1	1	1	0	830	1	4	0	136	79	0	0	100
fixed	5	7	8	1050300	2	3	3	1	0	937	1	4	0	152	80	0	0	100
fixed	5	7	9	1052124	3	2	2	1	0	947	1	4	0	144	81	0	0	100
fixed	5	7	10	1053878	1	4	0	0	2	0	3	4	0	160	81	0	1	99
fixed	5	7	11	1056983	5	2	2	1	0	1078	1	4	0	144	82	0	1	99
fixed	5	7	12	1058896	4	3	3	1	0	692	1	4	0	152	83	0	1	99
fixed	5	8	1	1060547	4	1	1	1	0	878	1	4	0	136	84	0	1	99
fixed	5	8	2	1061818	1	2	2	1	0	1008	1	4	0	144	85	0	1	99
fixed	5	8	3	1063570	6	4	4	1	0	686	1	4	0	160	86	0	1	99
fixed	5	8	4	1065286	2	1	1	1	0	902	1	4	0	136	87	0	1	99
fixed	5	8	5	1066703	5	3	3	1	0	1026	1	4	0	152	88	0	1	99
fixed	5	8	6	1068733	6	4	4	1	0	739	1	4	0	160	89	0	1	99
fixed	5	8	7	1070313	3	1	1	1	0	841	1	4	0	136	90	0	1	99
fixed	5	8	8	1072139	2	3	3	1	0	1131	1	4	0	152	91	0	1	99
fixed	5	8	9	1074162	3	2	2	1	0	893	1	4	0	144	92	0	1	99
fixed	5	8	10	1075448	1	4	4	1	0	1023	1	4	0	160	93	0	1	99
fixed	5	8	11	1077494	5	2	2	1	0	1001	1	4	0	144	94	0	1	99
fixed	5	8	12	1079003	4	3	3	1	0	673	1	4	0	152	95	0	1	99
fixed	5	9	1	1080562	4	1	1	1	0	862	1	4	0	136	96	0	1	99
fixed	5	9	2	1082452	1	2	2	1	0	886	1	4	0	144	97	0	1	99
fixed	5	9	3	1083822	6	4	4	1	0	964	1	4	0	160	98	0	1	99
fixed	5	9	4	1085765	2	1	1	1	0	810	1	4	0	136	99	0	1	99
fixed	5	9	5	1087505	5	3	3	1	0	1161	1	4	0	152	100	0	1	99
fixed	5	9	6	1089135	6	4	4	1	0	747	1	4	0	160	101	0	1	99
fixed	5	9	7	1090232	3	1	1	1	0	1213	1	4	0	136	102	0	1	99
fixed	5	9	8	1092343	2	3	3	1	0	995	1	4	0	152	103	0	1	99
fixed	5	9	9	1093883	3	2	2	1	0	1194	1	4	0	144	104	0	1	99
fixed	5	9	10	1095750	1	4	4	1	0	707	1	4	0	160	105	0	1	99
fixed	5	9	11	1097370	5	2	2	1	0	990	1	4	0	144	106	0	1	99
fixed	5	9	12	1098889	4	3	3	1	0	750	1	4	0	152	107	0	1	99
fixed	5	10	1	1100829	4	1	1	1	0	692	1	4	0	136	108	0	1	99
fixed	5	10	2	1102313	1	2	2	1	0	1077	1	4	0	144	109	0	1	99
fixed	5	10	3	1104328	6	4	4	1	0	744	1	4	0	160	110	0	1	99
fixed	5	10	4	1106079	2	1	1	1	0	798	1	4	0	136	111	0	1	99
fixed	5	10	5	1107298	5	3	3	1	0	978	1	4	0	152	112	0	1	99
fixed	5	10	6	1108920	6	4	4	1	0	773	1	4	0	160	113	0	1	99
fixed	5	10	7	1110701	3	1	1	1	0	786	1	4	0	136	114	0	1	99
fixed	5	10	8	1112460	2	3	3	1	0	967	1	4	0	152	115	0	1	99
fixed	5	10	9	1114287	3	2	2	1	0	978	1	4	0	144	116	0	1	99
fixed	5	10	10	1115752	1	4	4	1	0	820	1	4	0	160	117	0	1	99
fixed	5	10	11	1117217	5	2	2	1	0	1222	1	4	0	144	118	0	1	99
fixed	5	10	12	1119016	4	3	3	1	0	786	1	4	0	152	119	0	1	99
random	6	1	1	1512420	6	1	1	1	0	1091	1	4	0	168	1	0	0	100
random	6	1	2	1514119	4	4	4	1	0	779	1	4	0	192	2	0	0	100
random	6	1	3	1515500	2	2	2	1	0	769	1	4	0	176	3	0	0	100
random	6	1	4	1517202	3	3	3	1	0	648	1	4	0	184	4	0	0	100
random	6	1	5	1518441	5	2	2	1	0	1388	1	4	0	176	5	0	0	100
random	6	1	6	1520151	1	4	4	1	0	1012	1	4	0	192	6	0	0	100
random	6	1	7	1521985	6	1	1	1	0	718	1	4	0	168	7	0	0	100
random	6	1	8	1523117	2	3	3	1	0	902	1	4	0	184	8	0	0	100
random	6	1	9	1524387	4	2	2	1	0	880	1	4	0	176	9	0	0	100
random	6	1	10	1525971	1	1	1	1	0	1229	1	4	0	168	10	0	0	100
random	6	1	11	1528099	5	4	4	1	0	579	1	4	0	192	11	0	0	100
random	6	1	12	1529195	3	3	3	1	0	924	1	4	0	184	12	0	0	100
random	6	1	13	1531418	5	2	2	1	0	1110	1	4	0	176	13	0	0	100
random	6	1	14	1533507	1	4	4	1	0	862	1	4	0	192	14	0	0	100
random	6	1	15	1535195	3	1	1	1	0	798	1	4	0	168	15	0	0	100
random	6	1	16	1536649	4	3	3	1	0	897	1	4	0	184	16	0	0	100
random	6	1	17	1538581	6	4	4	1	0	695	1	4	0	192	17	0	0	100
random	6	1	18	1539973	2	1	1	1	0	852	1	4	0	168	18	0	0	100
random	6	1	19	1541773	5	3	3	1	0	1064	1	4	0	184	19	0	0	100
random	6	1	20	1543647	2	2	2	1	0	960	1	4	0	176	20	0	0	100
random	6	1	21	1545641	3	3	3	1	0	876	1	4	0	184	21	0	0	100
random	6	1	22	1547320	6	1	1	1	0	1381	1	4	0	168	22	0	0	100
random	6	1	23	1549280	4	2	2	1	0	978	1	4	0	176	23	0	0	100
random	6	1	24	1551214	1	4	4	1	0	720	1	4	0	192	24	0	0	100
random	6	1	25	1552620	4	3	3	1	0	996	1	4	0	184	25	0	0	100
random	6	1	26	1554552	2	1	1	1	0	787	1	4	0	168	26	0	0	100
random	6	1	27	1555680	5	2	2	1	0	1027	1	4	0	176	27	0	0	100
random	6	1	28	1557106	6	4	4	1	0	879	1	4	0	192	28	0	0	100
random	6	1	29	1558820	1	3	3	1	0	942	1	4	0	184	29	0	0	100
random	6	1	30	1560281	5	2	2	1	0	888	1	4	0	176	30	0	0	100
random	6	1	31	1562145	2	1	1	1	0	817	1	4	0	168	31	0	0	100
random	6	1	32	1563484	3	3	3	1	0	888	1	4	0	184	32	0	0	100
random	6	1	33	1565117	6	4	4	1	0	691	1	4	0	192	33	0	0	100
random	6	1	34	1566281	4	2	2	1	0	1002	1	4	0	176	34	0	0	100
random	6	1	35	1567885	3	4	4	1	0	758	1	4	0	192	35	0	0	100
random	6	1	36	1568963	1	1	1	1	0	864	1	4	0	168	36	0	0	100
random	6	1	37	1570748	3	4	4	1	0	780	1	4	0	192	37	0	0	100
random	6	1	38	1572108	5	3	3	2	0	2115	2	4	0	184	38	0	0	100
random	6	1	39	1575170	6	1	1	1	0	1242	1	4	0	168	39	0	0	100
random	6	1	40	1576802	1	2	2	1	0	980	1	4	0	176	40	0	0	100
random	6	1	41	1578288	2	3	3	1	0	1133	1	4	0	184	41	0	0	100
random	6	1	42	1579780	4	4	4	1	0	942	1	4	0	192	42	0	0	100
random	6	1	43	1581245	1	2	2	1	0	776	1	4	0	176	43	0	0	100
random	6	1	44	1582421	6	3	3	1	0	895	1	4	0	184	44	0	0	100
random	6	1	45	1584346	3	1	1	1	0	748	1	4	0	168	45	0	0	100
random	6	1	46	1585569	4	4	4	1	0	793	1	4	0	192	46	0	0	100
random	6	1	47	1587123	2	2	2	1	0	1039	1	4	0	176	47	0	0	100
random	6	1	48	1588926	5	1	1	1	0	1667	1	4	0	168	48	0	0	100
random	6	1	49	1591165	2	3	3	1	0	1020	1	4	0	184	49	0	0	100
random	6	1	50	1592919	3	1	1	1	0	841	1	4	0	168	50	0	0	100
random	6	1	51	1594148	1	4	4	1	0	670	1	4	0	192	51	0	0	100
random	6	1	52	1595773	5	3	3	1	0	913	1	4	0	184	52	0	0	100
random	6	1	53	1597681	3	2	2	1	0	920	1	4	0	176	53	0	0	100
random	6	1	54	1599270	6	4	4	1	0	932	1	4	0	192	54	0	0	100
random	6	1	55	1600548	4	2	2	1	0	983	1	4	0	176	55	0	0	100
random	6	1	56	1601952	1	1	1	1	0	915	1	4	0	168	56	0	0	100
random	6	1	57	1603874	5	4	4	1	0	666	1	4	0	192	57	0	0	100
random	6	1	58	1605554	2	1	1	1	0	898	1	4	0	168	58	0	0	100
random	6	1	59	1607320	6	2	2	1	0	1047	1	4	0	176	59	0	0	100
random	6	1	60	1608697	4	3	3	1	0	661	1	4	0	184	60	0	0	100
random	6	1	61	1610496	1	2	2	1	0	985	1	4	0	176	61	0	0	100
random	6	1	62	1612088	6	4	4	1	0	838	1	4	0	192	62	0	0	100
random	6	1	63	1613621	4	1	1	1	0	781	1	4	0	168	63	0	0	100
random	6	1	64	1615395	2	2	2	1	0	882	1	4	0	176	64	0	0	100
random	6	1	65	1616749	4	3	3	1	0	872	1	4	0	184	65	0	0	100
random	6	1	66	1618209	3	1	1	1	0	1251	1	4	0	168	66	0	0	100
random	6	1	67	1620143	1	3	3	1	0	985	1	4	0	184	67	0	0	100
random	6	1	68	1621816	5	4	4	1	0	682	1	4	0	192	68	0	0	100
random	6	1	69	1622786	2	2	2	1	0	897	1	4	0	176	69	0	0	100
random	6	1	70	1624157	3	1	1	1	0	855	1	4	0	168	70	0	0	100
random	6	1	71	1625370	5	4	4	1	0	1099	1	4	0	192	71	0	0	100
random	6	1	72	1627106	6	3	3	1	0	874	1	4	0	184	72	0	0	100
random	6	1	73	1628757	2	1	1	1	0	1299	1	4	0	168	73	0	0	100
random	6	1	74	1630875	5	3	3	1	0	850	1	4	0	184	74	0	0	100
random	6	1	75	1632735	1	4	4	1	0	995	1	4	0	192	75	0	0	100
random	6	1	76	1634356	6	2	2	1	0	790	1	4	0	176	76	0	0	100
random	6	1	77	1635636	2	1	1	1	0	897	1	4	0	168	77	0	0	100
random	6	1	78	1637411	4	4	4	1	0	837	1	4	0	192	78	0	0	100
random	6	1	79	1638773	3	2	2	1	0	1420	1	4	0	176	79	0	0	100
random	6	1	80	1641190	4	3	3	1	0	725	1	4	0	184	80	0	0	100
random	6	1	81	1642448	1	4	4	1	0	1144	1	4	0	192	81	0	0	100
random	6	1	82	1644402	5	1	1	1	0	821	1	4	0	168	82	0	0	100
random	6	1	83	1646188	3	2	2	1	0	889	1	4	0	176	83	0	0	100
random	6	1	84	1648046	6	3	3	1	0	787	1	4	0	184	84	0	0	100
random	6	1	85	1649391	3	2	2	1	0	786	1	4	0	176	85	0	0	100
random	6	1	86	1650610	1	3	3	1	0	1070	1	4	0	184	86	0	0	100
random	6	1	87	1652216	4	4	4	1	0	1370	1	4	0	192	87	0	0	100
random	6	1	88	1654131	2	1	1	1	0	761	1	4	0	168	88	0	0	100
random	6	1	89	1655774	6	4	4	1	0	803	1	4	0	192	89	0	0	100
random	6	1	90	1657520	3	3	3	1	0	946	1	4	0	184	90	0	0	100
random	6	1	91	1659346	5	4	4	1	0	1116	1	4	0	192	91	0	0	100
random	6	1	92	1660801	1	2	2	1	0	1230	1	4	0	176	92	0	0	100
random	6	1	93	1662389	5	1	1	1	0	1267	1	4	0	168	93	0	0	100
random	6	1	94	1664127	4	3	3	1	0	825	1	4	0	184	94	0	0	100
random	6	1	95	1665482	6	1	1	1	0	952	1	4	0	168	95	0	0	100
random	6	1	96	1666961	2	2	2	1	0	818	1	4	0	176	96	0	0	100
random	6	1	97	1668638	4	3	3	1	0	818	1	4	0	184	97	0	0	100
random	6	1	98	1669928	3	2	2	1	0	1140	1	4	0	176	98	0	0	100
random	6	1	99	1671972	6	3	3	1	0	829	1	4	0	184	99	0	0	100
random	6	1	100	1673725	1	4	4	1	0	931	1	4	0	192	100	0	0	100
random	6	1	101	1675080	4	1	1	1	0	1130	1	4	0	168	101	0	0	100
random	6	1	102	1676867	5	2	2	1	0	822	1	4	0	176	102	0	0	100
random	6	1	103	1678156	2	4	4	1	0	1832	1	4	0	192	103	0	0	100
random	6	1	104	1680721	3	1	1	1	0	995	1	4	0	168	104	0	0	100
random	6	1	105	1682514	1	3	3	1	0	959	1	4	0	184	105	0	0	100
random	6	1	106	1684005	2	2	2	1	0	1240	1	4	0	176	106	0	0	100
random	6	1	107	1685845	5	4	4	1	0	969	1	4	0	192	107	0	0	100
random	6	1	108	1687194	6	1	1	1	0	977	1	4	0	168	108	0	0	100
random	6	1	109	1689189	5	4	4	1	0	900	1	4	0	192	109	0	0	100
random	6	1	110	1691111	6	3	3	1	0	978	1	4	0	184	110	0	0	100
random	6	1	111	1693028	2	2	2	1	0	1138	1	4	0	176	111	0	0	100
random	6	1	112	1694863	3	1	1	1	0	1100	1	4	0	168	112	0	0	100
random	6	1	113	1696313	1	2	2	1	0	1222	1	4	0	176	113	0	0	100
random	6	1	114	1697851	2	3	3	1	0	901	1	4	0	184	114	0	0	100
random	6	1	115	1699399	3	1	1	1	0	1179	1	4	0	168	115	0	0	100
random	6	1	116	1701113	4	4	4	1	0	931	1	4	0	192	116	0	0	100
random	6	1	117	1702342	6	1	1	1	0	1567	1	4	0	168	117	0	0	100
random	6	1	118	1704407	5	3	3	1	0	927	1	4	0	184	118	0	0	100
random	6	1	119	1705988	1	4	4	1	0	821	1	4	0	192	119	0	0	100
random	6	1	120	1707532	4	2	2	1	0	915	1	4	0	176	120	0	0	100
fixed	7	1	1	1709971	4	1	1	1	0	780	1	4	0	200	1	0	0	100
fixed	7	1	2	1711057	1	2	2	1	0	1006	1	4	0	208	2	0	0	100
fixed	7	1	3	1712580	6	4	4	1	0	845	1	4	0	224	3	0	0	100
fixed	7	1	4	1714185	2	1	1	1	0	1129	1	4	0	200	4	0	0	100
fixed	7	1	5	1716122	5	3	3	1	0	871	1	4	0	216	5	0	0	100
fixed	7	1	6	1717521	6	4	4	1	0	1012	1	4	0	224	6	0	0	100
fixed	7	1	7	1719153	3	1	1	1	0	1031	1	4	0	200	7	0	0	100
fixed	7	1	8	1720524	2	3	3	1	0	1149	1	4	0	216	8	0	0	100
fixed	7	1	9	1722247	3	2	2	1	0	988	1	4	0	208	9	0	0	100
fixed	7	1	10	1723793	1	4	4	1	0	850	1	4	0	224	10	0	0	100
fixed	7	1	11	1725563	5	2	2	1	0	975	1	4	0	208	11	0	0	100
fixed	7	1	12	1727267	4	3	3	1	0	799	1	4	0	216	12	0	0	100
fixed	7	2	1	1729220	4	1	1	1	0	804	1	4	0	200	1	0	0	8
fixed	7	2	2	1730997	1	2	2	1	0	817	1	4	0	208	2	0	0	14
fixed	7	2	3	1732321	6	4	4	1	0	865	1	4	0	224	3	0	0	20
fixed	7	2	4	1733817	2	1	1	1	0	930	1	4	0	200	4	0	0	25
fixed	7	2	5	1735489	5	3	3	1	0	947	1	4	0	216	5	0	0	29
fixed	7	2	6	1737035	6	4	4	1	0	786	1	4	0	224	6	0	0	33
fixed	7	2	7	1738520	3	1	1	1	0	715	1	4	0	200	7	0	0	37
fixed	7	2	8	1739608	2	3	3	1	0	1325	1	4	0	216	8	0	0	40
fixed	7	2	9	1741430	3	2	2	1	0	784	1	4	0	208	9	0	0	43
fixed	7	2	10	1742710	1	4	4	1	0	833	1	4	0	224	10	0	0	45
fixed	7	2	11	1743839	5	2	2	1	0	1113	1	4	0	208	11	0	0	48
fixed	7	2	12	1745306	4	3	3	1	0	756	1	4	0	216	12	0	0	50
fixed	7	3	1	1747148	4	1	1	1	0	837	1	4	0	200	1	0	0	4
fixed	7	3	2	1748473	1	2	2	1	0	877	1	4	0	208	2	0	0	8
fixed	7	3	3	1749871	6	4	4	1	0	1122	1	4	0	224	3	0	0	11
fixed	7	3	4	1751597	2	1	1	1	0	841	1	4	0	200	4	0	0	14
fixed	7	3	5	1753405	5	3	3	1	0	884	1	4	0	216	5	0	0	17
fixed	7	3	6	1755307	6	4	4	1	0	844	1	4	0	224	6	0	0	20
fixed	7	3	7	1756979	3	1	1	1	0	877	1	4	0	200	7	0	0	23
fixed	7	3	8	1758731	2	3	3	1	0	1891	1	4	0	216	8	0	0	25
fixed	7	3	9	1761142	3	2	2	1	0	821	1	4	0	208	9	0	0	27
fixed	7	3	10	1762382	1	4	4	1	0	992	1	4	0	224	10	0	0	29
fixed	7	3	11	1763812	5	2	2	1	0	875	1	4	0	208	11	0	0	31
fixed	7	3	12	1765119	4	3	3	1	0	1740	1	4	0	216	12	0	0	33
fixed	7	4	1	1768000	4	1	1	1	0	1042	1	4	0	200	1	0	0	3
fixed	7	4	2	1769844	1	2	2	1	0	1060	1	4	0	208	2	0	0	5
fixed	7	4	3	1771219	6	4	4	1	0	882	1	4	0	224	3	0	0	8
fixed	7	4	4	1772768	2	1	1	1	0	792	1	4	0	200	4	0	0	10
fixed	7	4	5	1774357	5	3	3	1	0	1277	1	4	0	216	5	0	0	12
fixed	7	4	6	1776109	6	4	4	1	0	723	1	4	0	224	6	0	0	14
fixed	7	4	7	1777701	3	1	1	1	0	1319	1	4	0	200	7	0	0	16
fixed	7	4	8	1779790	2	3	3	1	0	935	1	4	0	216	8	0	0	18
fixed	7	4	9	1781565	3	2	2	1	0	1323	1	4	0	208	9	0	0	20
fixed	7	4	10	1783358	1	4	4	1	0	816	1	4	0	224	10	0	0	22
fixed	7	4	11	1785022	5	2	2	1	0	1017	1	4	0	208	11	0	0	23
fixed	7	4	12	1786730	4	3	3	1	0	673	1	4	0	216	12	0	0	25
fixed	7	5	1	1788065	4	1	1	1	0	864	1	4	0	200	1	0	0	2
fixed	7	5	2	1789385	1	2	2	1	0	1112	1	4	0	208	2	0	0	4
fixed	7	5	3	1791321	6	4	4	1	0	710	1	4	0	224	3	0	0	6
fixed	7	5	4	1792461	2	1	1	1	0	1006	1	4	0	200	4	0	0	8
fixed	7	5	5	1794184	5	3	3	1	0	925	1	4	0	216	5	0	0	9
fixed	7	5	6	1795796	6	4	4	1	0	801	1	4	0	224	6	0	0	11
fixed	7	5	7	1797599	3	1	1	1	0	1197	1	4	0	200	7	0	0	13
fixed	7	5	8	1799414	2	3	3	1	0	919	1	4	0	216	8	0	0	14
fixed	7	5	9	1801349	3	2	2	1	0	1045	1	4	0	208	9	0	0	16
fixed	7	5	10	1803252	1	4	4	1	0	821	1	4	0	224	10	0	0	17
fixed	7	5	11	1804376	5	2	2	1	0	1053	1	4	0	208	11	0	0	19
fixed	7	5	12	1805993	4	3	3	1	0	785	1	4	0	216	12	0	0	20
fixed	7	6	1	1807963	4	1	1	1	0	813	1	4	0	200	1	0	0	2
fixed	7	6	2	1809503	1	2	2	1	0	1084	1	4	0	208	2	0	0	3
fixed	7	6	3	1811468	6	4	4	1	0	897	1	4	0	224	3	0	0	5
fixed	7	6	4	1812646	2	1	1	1	0	1543	1	4	0	200	4	0	0	6
fixed	7	6	5	1814596	5	3	3	1	0	836	1	4	0	216	5	0	0	8
fixed	7	6	6	1815963	6	4	4	1	0	707	1	4	0	224	6	0	0	9
fixed	7	6	7	1817091	3	1	1	1	0	811	1	4	0	200	7	0	0	10
fixed	7	6	8	1818359	2	3	3	1	0	901	1	4	0	216	8	0	0	12
fixed	7	6	9	1820110	3	2	2	1	0	827	1	4	0	208	9	0	0	13
fixed	7	6	10	1821517	1	4	4	1	0	831	1	4	0	224	10	0	0	14
fixed	7	6	11	1822667	5	2	2	1	0	1022	1	4	0	208	11	0	0	15
fixed	7	6	12	1824462	4	3	3	1	0	755	1	4	0	216	12	0	0	17
fixed	7	7	1	1825807	4	1	1	1	0	769	1	4	0	200	1	0	0	1
fixed	7	7	2	1827317	1	2	2	1	0	930	1	4	0	208	2	0	0	3
fixed	7	7	3	1829125	6	4	4	1	0	613	1	4	0	224	3	0	0	4
fixed	7	7	4	1830663	2	1	1	1	0	868	1	4	0	200	4	0	0	5
fixed	7	7	5	1832220	5	3	3	1	0	842	1	4	0	216	5	0	0	6
fixed	7	7	6	1833357	6	4	4	1	0	993	1	4	0	224	6	0	0	8
fixed	7	7	7	1834672	3	1	1	1	0	1266	1	4	0	200	7	0	0	9
fixed	7	7	8	1836749	2	3	3	1	0	922	1	4	0	216	8	0	0	10
fixed	7	7	9	1838465	3	2	2	1	0	1194	1	4	0	208	9	0	0	11
fixed	7	7	10	1840453	1	4	4	1	0	941	1	4	0	224	10	0	0	12
fixed	7	7	11	1841910	5	2	2	1	0	1240	1	4	0	208	11	0	0	13
fixed	7	7	12	1843501	4	3	3	1	0	788	1	4	0	216	12	0	0	14
fixed	7	8	1	1845172	4	1	1	1	0	1221	1	4	0	200	1	0	0	1
fixed	7	8	2	1847431	1	2	2	1	0	862	1	4	0	208	2	0	0	2
fixed	7	8	3	1848667	6	4	4	1	0	1345	1	4	0	224	3	0	0	3
fixed	7	8	4	1851015	2	1	1	1	0	1270	1	4	0	200	4	0	0	5
fixed	7	8	5	1852900	5	3	3	1	0	966	1	4	0	216	5	0	0	6
fixed	7	8	6	1854403	6	4	4	1	0	847	1	4	0	224	6	0	0	7
fixed	7	8	7	1856196	3	1	1	1	0	1002	1	4	0	200	7	0	0	8
fixed	7	8	8	1857925	2	3	3	1	0	1481	1	4	0	216	8	0	0	9
fixed	7	8	9	1859771	3	2	2	1	0	731	1	4	0	208	9	0	0	10
fixed	7	8	10	1861083	1	4	4	1	0	987	1	4	0	224	10	0	0	11
fixed	7	8	11	1862946	5	2	2	1	0	924	1	4	0	208	11	0	0	12
fixed	7	8	12	1864179	4	3	3	1	0	833	1	4	0	216	12	0	0	13
fixed	7	9	1	1865772	4	1	1	1	0	797	1	4	0	200	1	0	0	1
fixed	7	9	2	1867018	1	2	2	1	0	1272	1	4	0	208	2	0	0	2
fixed	7	9	3	1869204	6	4	4	1	0	740	1	4	0	224	3	0	0	3
fixed	7	9	4	1870524	2	1	1	1	0	988	1	4	0	200	4	0	0	4
fixed	7	9	5	1871995	5	3	3	1	0	1133	1	4	0	216	5	0	0	5
fixed	7	9	6	1874035	6	4	4	1	0	759	1	4	0	224	6	0	0	6
fixed	7	9	7	1875403	3	1	1	1	0	1317	1	4	0	200	7	0	0	7
fixed	7	9	8	1877514	2	3	3	2	0	1636	2	4	0	216	8	0	0	8
fixed	7	9	9	1879997	3	2	2	1	0	794	1	4	0	208	9	0	0	9
fixed	7	9	10	1881326	1	4	4	1	0	746	1	4	0	224	10	0	0	9
fixed	7	9	11	1882689	5	2	2	1	0	960	1	4	0	208	11	0	0	10
fixed	7	9	12	1884289	4	3	3	1	0	749	1	4	0	216	12	0	0	11
fixed	7	10	1	1885988	4	1	1	1	0	1364	1	4	0	200	1	0	0	1
fixed	7	10	2	1887981	1	2	2	1	0	904	1	4	0	208	2	0	0	2
fixed	7	10	3	1889451	6	4	4	1	0	786	1	4	0	224	3	0	0	3
fixed	7	10	4	1890915	2	1	1	1	0	820	1	4	0	200	4	0	0	4
fixed	7	10	5	1892236	5	3	3	1	0	820	1	4	0	216	5	0	0	4
fixed	7	10	6	1893453	6	4	4	1	0	881	1	4	0	224	6	0	0	5
fixed	7	10	7	1895220	3	1	1	1	0	878	1	4	0	200	7	0	0	6
fixed	7	10	8	1896774	2	3	3	1	0	1012	1	4	0	216	8	0	0	7
fixed	7	10	9	1898508	3	2	2	1	0	794	1	4	0	208	9	0	0	8
fixed	7	10	10	1899746	1	4	4	1	0	774	1	4	0	224	10	0	0	8
fixed	7	10	11	1900893	5	2	2	1	0	1141	1	4	0	208	11	0	0	9
fixed	7	10	12	1902826	4	3	3	1	0	916	1	4	0	216	12	0	0	10
