type	block	sequ.	trial	time	Pos.	Color	Button	NumRsp	Resp_1	RT_1	R_Code	Resp_2	RT_2	Trigg.	n_hit	n_inc	n_miss	score_%

random	1	1	1	4887	6	1	1	1	0	1358	1	4	0	8	1	0	0	100
random	1	1	2	6601	4	4	4	1	0	806	1	4	0	32	2	0	0	100
random	1	1	3	8258	2	2	2	1	0	1032	1	4	0	16	3	0	0	100
random	1	1	4	10201	3	3	3	1	0	541	1	4	0	24	4	0	0	100
random	1	1	5	11727	5	2	2	1	0	1245	1	4	0	16	5	0	0	100
random	1	1	6	13615	1	4	4	1	0	757	1	4	0	32	6	0	0	100
random	1	1	7	15390	6	1	1	1	0	986	1	4	0	8	7	0	0	100
random	1	1	8	16809	2	3	3	1	0	974	1	4	0	24	8	0	0	100
random	1	1	9	18417	4	2	2	1	0	762	1	4	0	16	9	0	0	100
random	1	1	10	19681	1	1	1	1	0	876	1	4	0	8	10	0	0	100
random	1	1	11	21391	5	4	4	1	0	676	1	4	0	32	11	0	0	100
random	1	1	12	23000	3	3	3	1	0	1215	1	4	0	24	12	0	0	100
random	1	1	13	24988	5	2	2	1	0	611	1	4	0	16	13	0	0	100
random	1	1	14	26537	1	4	4	1	0	746	1	4	0	32	14	0	0	100
random	1	1	15	27650	3	1	1	1	0	906	1	4	0	8	15	0	0	100
random	1	1	16	29352	4	3	3	1	0	890	1	4	0	24	16	0	0	100
random	1	1	17	31017	6	4	4	1	0	676	1	4	0	32	17	0	0	100
random	1	1	18	32200	2	1	1	1	0	938	1	4	0	8	18	0	0	100
random	1	1	19	33875	5	3	3	1	0	738	1	4	0	24	19	0	0	100
random	1	1	20	35488	2	2	2	1	0	718	1	4	0	16	20	0	0	100
random	1	1	21	37148	3	3	3	1	0	856	1	4	0	24	21	0	0	100
random	1	1	22	38618	6	1	1	1	0	786	1	4	0	8	22	0	0	100
random	1	1	23	39829	4	2	2	1	0	1038	1	4	0	16	23	0	0	100
random	1	1	24	41744	1	4	4	1	0	646	1	4	0	32	24	0	0	100
random	1	1	25	43183	4	3	3	1	0	920	1	4	0	24	25	0	0	100
random	1	1	26	44460	2	1	1	1	0	1026	1	4	0	8	26	0	0	100
random	1	1	27	46057	5	2	2	1	0	911	1	4	0	16	27	0	0	100
random	1	1	28	47345	6	4	4	1	0	896	1	4	0	32	28	0	0	100
random	1	1	29	49228	1	3	3	1	0	1129	1	4	0	24	29	0	0	100
random	1	1	30	50993	5	2	2	1	0	798	1	4	0	16	30	0	0	100
random	1	1	31	52140	2	1	1	1	0	893	1	4	0	8	31	0	0	100
random	1	1	32	53558	3	3	3	1	0	825	1	4	0	24	32	0	0	100
random	1	1	33	55325	6	4	4	1	0	534	1	4	0	32	33	0	0	100
random	1	1	34	56203	4	2	2	1	0	1121	1	4	0	16	34	0	0	100
random	1	1	35	57637	3	4	4	1	0	956	1	4	0	32	35	0	0	100
random	1	1	36	59594	1	1	1	1	0	769	1	4	0	8	36	0	0	100
random	1	1	37	61595	3	4	4	1	0	812	1	4	0	32	37	0	0	100
random	1	1	38	62799	5	3	3	1	0	1073	1	4	0	24	38	0	0	100
random	1	1	39	64836	6	1	1	1	0	915	1	4	0	8	39	0	0	100
random	1	1	40	66603	1	2	2	1	0	657	1	4	0	16	40	0	0	100
random	1	1	41	68095	2	3	3	1	0	849	1	4	0	24	41	0	0	100
random	1	1	42	69371	4	4	4	1	0	931	1	4	0	32	42	0	0	100
random	1	1	43	70787	1	2	2	1	0	983	1	4	0	16	43	0	0	100
random	1	1	44	72677	6	3	3	1	0	655	1	4	0	24	44	0	0	100
random	1	1	45	74148	3	1	1	1	0	841	1	4	0	8	45	0	0	100
random	1	1	46	75307	4	4	4	1	0	872	1	4	0	32	46	0	0	100
random	1	1	47	76492	2	2	2	1	0	894	1	4	0	16	47	0	0	100
random	1	1	48	77997	5	1	1	1	0	862	1	4	0	8	48	0	0	100
random	1	1	49	79473	2	3	3	2	0	2015	2	4	0	24	49	0	0	100
random	1	1	50	82352	3	1	1	1	0	1014	1	4	0	8	50	0	0	100
random	1	1	51	84359	1	4	4	1	0	593	1	4	0	32	51	0	0	100
random	1	1	52	85343	5	3	3	1	0	1071	1	4	0	24	52	0	0	100
random	1	1	53	86964	3	2	2	1	0	730	1	4	0	16	53	0	0	100
random	1	1	54	88099	6	4	4	1	0	922	1	4	0	32	54	0	0	100
random	1	1	55	89829	4	2	2	1	0	832	1	4	0	16	55	0	0	100
random	1	1	56	91221	1	1	1	1	0	822	1	4	0	8	56	0	0	100
random	1	1	57	92377	5	4	4	1	0	877	1	4	0	32	57	0	0	100
random	1	1	58	94186	2	1	1	1	0	1089	1	4	0	8	58	0	0	100
random	1	1	59	95799	6	2	2	1	0	812	1	4	0	16	59	0	0	100
random	1	1	60	96991	4	3	3	1	0	706	1	4	0	24	60	0	0	100
random	1	1	61	98336	1	2	2	1	0	1144	1	4	0	16	61	0	0	100
random	1	1	62	99791	6	4	4	1	0	915	1	4	0	32	62	0	0	100
random	1	1	63	101003	4	1	1	1	0	928	1	4	0	8	63	0	0	100
random	1	1	64	102363	2	2	2	1	0	814	1	4	0	16	64	0	0	100
random	1	1	65	103900	4	3	3	1	0	669	1	4	0	24	65	0	0	100
random	1	1	66	105353	3	1	1	1	0	959	1	4	0	8	66	0	0	100
random	1	1	67	107246	1	3	3	1	0	903	1	4	0	24	67	0	0	100
random	1	1	68	109127	5	4	4	1	0	775	1	4	0	32	68	0	0	100
random	1	1	69	110316	2	2	2	1	0	1517	1	4	0	16	69	0	0	100
random	1	1	70	112395	3	1	1	1	0	765	1	4	0	8	70	0	0	100
random	1	1	71	113503	5	4	4	1	0	838	1	4	0	32	71	0	0	100
random	1	1	72	114731	6	3	3	1	0	874	1	4	0	24	72	0	0	100
random	1	1	73	116380	2	1	1	1	0	772	1	4	0	8	73	0	0	100
random	1	1	74	118136	5	3	3	1	0	858	1	4	0	24	74	0	0	100
random	1	1	75	119738	1	4	4	1	0	798	1	4	0	32	75	0	0	100
random	1	1	76	120883	6	2	2	1	0	918	1	4	0	16	76	0	0	100
random	1	1	77	122622	2	1	0	0	2	0	3	4	0	8	76	0	1	99
random	1	1	78	125866	4	4	4	1	0	635	1	4	0	32	77	0	1	99
random	1	1	79	127401	3	2	2	1	0	1178	1	4	0	16	78	0	1	99
random	1	1	80	129105	4	3	3	1	0	777	1	4	0	24	79	0	1	99
random	1	1	81	130207	1	4	4	1	0	915	1	4	0	32	80	0	1	99
random	1	1	82	131858	5	1	1	1	0	685	1	4	0	8	81	0	1	99
random	1	1	83	133073	3	2	2	1	0	913	1	4	0	16	82	0	1	99
random	1	1	84	134924	6	3	3	1	0	707	1	4	0	24	83	0	1	99
random	1	1	85	136713	3	2	2	1	0	903	1	4	0	16	84	0	1	99
random	1	1	86	138289	1	3	3	1	0	932	1	4	0	24	85	0	1	99
random	1	1	87	139998	4	4	4	1	0	828	1	4	0	32	86	0	1	99
random	1	1	88	141719	2	1	1	1	0	779	1	4	0	8	87	0	1	99
random	1	1	89	143147	6	4	4	1	0	814	1	4	0	32	88	0	1	99
random	1	1	90	144977	3	3	3	1	0	913	1	4	0	24	89	0	1	99
random	1	1	91	146558	5	4	4	1	0	870	1	4	0	32	90	0	1	99
random	1	1	92	147740	1	2	2	1	0	1052	1	4	0	16	91	0	1	99
random	1	1	93	149688	5	1	1	1	0	850	1	4	0	8	92	0	1	99
random	1	1	94	151405	4	3	3	1	0	713	1	4	0	24	93	0	1	99
random	1	1	95	152472	6	1	1	1	0	964	1	4	0	8	94	0	1	99
random	1	1	96	153986	2	2	2	1	0	1003	1	4	0	16	95	0	1	99
random	1	1	97	155810	4	3	3	1	0	686	1	4	0	24	96	0	1	99
random	1	1	98	157003	3	2	2	1	0	1140	1	4	0	16	97	0	1	99
random	1	1	99	159102	6	3	3	1	0	811	1	4	0	24	98	0	1	99
random	1	1	100	160882	1	4	4	1	0	664	1	4	0	32	99	0	1	99
random	1	1	101	162299	4	1	1	1	0	859	1	4	0	8	100	0	1	99
random	1	1	102	163704	5	2	2	1	0	920	1	4	0	16	101	0	1	99
random	1	1	103	165637	2	4	4	1	0	1566	1	4	0	32	102	0	1	99
random	1	1	104	167809	3	1	1	1	0	882	1	4	0	8	103	0	1	99
random	1	1	105	169226	1	3	3	1	0	750	1	4	0	24	104	0	1	99
random	1	1	106	170765	2	2	2	1	0	765	1	4	0	16	105	0	1	99
random	1	1	107	171983	5	4	4	1	0	809	1	4	0	32	106	0	1	99
random	1	1	108	173295	6	1	1	1	0	866	1	4	0	8	107	0	1	99
random	1	1	109	175341	5	4	4	1	0	763	1	4	0	32	108	0	1	99
random	1	1	110	176456	6	3	3	1	0	1268	1	4	0	24	109	0	1	99
random	1	1	111	178613	2	2	2	1	0	745	1	4	0	16	110	0	1	99
random	1	1	112	180003	3	1	1	1	0	829	1	4	0	8	111	0	1	99
random	1	1	113	181741	1	2	2	1	0	820	1	4	0	16	112	0	1	99
random	1	1	114	183506	2	3	3	1	0	1369	1	4	0	24	113	0	1	99
random	1	1	115	185904	3	1	1	1	0	715	1	4	0	8	114	0	1	99
random	1	1	116	187217	4	4	4	1	0	724	1	4	0	32	115	0	1	99
random	1	1	117	188403	6	1	1	1	0	890	1	4	0	8	116	0	1	99
random	1	1	118	189740	5	3	3	1	0	897	1	4	0	24	117	0	1	99
random	1	1	119	191345	1	4	4	1	0	581	1	4	0	32	118	0	1	99
random	1	1	120	192243	4	2	2	1	0	887	1	4	0	16	119	0	1	99
fixed	2	1	1	194453	4	1	1	1	0	993	1	4	0	40	1	0	0	100
fixed	2	1	2	196039	1	2	2	1	0	990	1	4	0	48	2	0	0	100
fixed	2	1	3	197751	6	4	4	1	0	806	1	4	0	64	3	0	0	100
fixed	2	1	4	198956	2	1	1	1	0	987	1	4	0	40	4	0	0	100
fixed	2	1	5	200344	5	3	3	1	0	832	1	4	0	56	5	0	0	100
fixed	2	1	6	201954	6	4	4	1	0	683	1	4	0	64	6	0	0	100
fixed	2	1	7	203255	3	1	1	1	0	749	1	4	0	40	7	0	0	100
fixed	2	1	8	204397	2	3	3	1	0	1084	1	4	0	56	8	0	0	100
fixed	2	1	9	206455	3	2	2	1	0	677	1	4	0	48	9	0	0	100
fixed	2	1	10	207513	1	4	4	1	0	784	1	4	0	64	10	0	0	100
fixed	2	1	11	209029	5	2	2	1	0	1160	1	4	0	48	11	0	0	100
fixed	2	1	12	210578	4	3	3	1	0	878	1	4	0	56	12	0	0	100
fixed	2	2	1	212349	4	1	1	1	0	739	1	4	0	40	13	0	0	100
fixed	2	2	2	213479	1	2	2	1	0	1108	1	4	0	48	14	0	0	100
fixed	2	2	3	215307	6	4	4	1	0	870	1	4	0	64	15	0	0	100
fixed	2	2	4	216560	2	1	1	1	0	1321	1	4	0	40	16	0	0	100
fixed	2	2	5	218906	5	3	3	1	0	838	1	4	0	56	17	0	0	100
fixed	2	2	6	220490	6	4	4	1	0	635	1	4	0	64	18	0	0	100
fixed	2	2	7	222055	3	1	1	1	0	920	1	4	0	40	19	0	0	100
fixed	2	2	8	223359	2	3	3	1	0	1793	1	4	0	56	20	0	0	100
fixed	2	2	9	226125	3	2	2	1	0	724	1	4	0	48	21	0	0	100
fixed	2	2	10	227503	1	4	4	1	0	729	1	4	0	64	22	0	0	100
fixed	2	2	11	229015	5	2	2	1	0	714	1	4	0	48	23	0	0	100
fixed	2	2	12	230131	4	3	3	1	0	690	1	4	0	56	24	0	0	100
fixed	2	3	1	232097	4	1	1	1	0	903	1	4	0	40	25	0	0	100
fixed	2	3	2	233880	1	2	2	1	0	924	1	4	0	48	26	0	0	100
fixed	2	3	3	235824	6	4	4	1	0	617	1	4	0	64	27	0	0	100
fixed	2	3	4	237323	2	1	1	1	0	762	1	4	0	40	28	0	0	100
fixed	2	3	5	238573	5	3	3	1	0	781	1	4	0	56	29	0	0	100
fixed	2	3	6	240119	6	4	4	1	0	755	1	4	0	64	30	0	0	100
fixed	2	3	7	241528	3	1	1	1	0	800	1	4	0	40	31	0	0	100
fixed	2	3	8	243007	2	3	3	1	0	801	1	4	0	56	32	0	0	100
fixed	2	3	9	244681	3	2	2	1	0	762	1	4	0	48	33	0	0	100
fixed	2	3	10	246259	1	4	4	1	0	616	1	4	0	64	34	0	0	100
fixed	2	3	11	247612	5	2	2	1	0	814	1	4	0	48	35	0	0	100
fixed	2	3	12	249030	4	3	3	1	0	762	1	4	0	56	36	0	0	100
fixed	2	4	1	250693	4	1	1	1	0	715	1	4	0	40	37	0	0	100
fixed	2	4	2	252009	1	2	2	1	0	1412	1	4	0	48	38	0	0	100
fixed	2	4	3	253788	6	4	4	1	0	936	1	4	0	64	39	0	0	100
fixed	2	4	4	255672	2	1	1	1	0	744	1	4	0	40	40	0	0	100
fixed	2	4	5	257431	5	3	3	1	0	774	1	4	0	56	41	0	0	100
fixed	2	4	6	258962	6	4	4	1	0	909	1	4	0	64	42	0	0	100
fixed	2	4	7	260599	3	1	1	1	0	744	1	4	0	40	43	0	0	100
fixed	2	4	8	261973	2	3	3	1	0	1094	1	4	0	56	44	0	0	100
fixed	2	4	9	263521	3	2	2	1	0	1013	1	4	0	48	45	0	0	100
fixed	2	4	10	265544	1	4	4	1	0	718	1	4	0	64	46	0	0	100
fixed	2	4	11	267251	5	2	2	1	0	1110	1	4	0	48	47	0	0	100
fixed	2	4	12	269202	4	3	3	1	0	731	1	4	0	56	48	0	0	100
fixed	2	5	1	270709	4	1	1	1	0	700	1	4	0	40	49	0	0	100
fixed	2	5	2	271784	1	2	2	1	0	910	1	4	0	48	50	0	0	100
fixed	2	5	3	273656	6	4	4	1	0	743	1	4	0	64	51	0	0	100
fixed	2	5	4	275402	2	1	1	1	0	1053	1	4	0	40	52	0	0	100
fixed	2	5	5	277273	5	3	3	1	0	829	1	4	0	56	53	0	0	100
fixed	2	5	6	278892	6	4	4	1	0	1145	1	4	0	64	54	0	0	100
fixed	2	5	7	280416	3	1	1	1	0	888	1	4	0	40	55	0	0	100
fixed	2	5	8	281832	2	3	3	1	0	877	1	4	0	56	56	0	0	100
fixed	2	5	9	283089	3	2	2	1	0	775	1	4	0	48	57	0	0	100
fixed	2	5	10	284398	1	4	4	1	0	664	1	4	0	64	58	0	0	100
fixed	2	5	11	285758	5	2	2	1	0	1095	1	4	0	48	59	0	0	100
fixed	2	5	12	287696	4	3	3	1	0	597	1	4	0	56	60	0	0	100
fixed	2	6	1	289555	4	1	1	1	0	877	1	4	0	40	61	0	0	100
fixed	2	6	2	291126	1	2	2	1	0	1467	1	4	0	48	62	0	0	100
fixed	2	6	3	293148	6	4	4	1	0	685	1	4	0	64	63	0	0	100
fixed	2	6	4	294183	2	1	1	1	0	1369	1	4	0	40	64	0	0	100
fixed	2	6	5	296326	5	3	3	1	0	783	1	4	0	56	65	0	0	100
fixed	2	6	6	297569	6	4	4	1	0	730	1	4	0	64	66	0	0	100
fixed	2	6	7	299308	3	1	1	1	0	889	1	4	0	40	67	0	0	100
fixed	2	6	8	300527	2	3	3	1	0	853	1	4	0	56	68	0	0	100
fixed	2	6	9	302158	3	2	2	1	0	824	1	4	0	48	69	0	0	100
fixed	2	6	10	303350	1	4	4	1	0	917	1	4	0	64	70	0	0	100
fixed	2	6	11	305282	5	2	2	1	0	963	1	4	0	48	71	0	0	100
fixed	2	6	12	306607	4	3	3	1	0	747	1	4	0	56	72	0	0	100
fixed	2	7	1	308551	4	1	1	1	0	793	1	4	0	40	73	0	0	100
fixed	2	7	2	309974	1	2	2	1	0	789	1	4	0	48	74	0	0	100
fixed	2	7	3	311755	6	4	4	1	0	753	1	4	0	64	75	0	0	100
fixed	2	7	4	313030	2	1	1	1	0	779	1	4	0	40	76	0	0	100
fixed	2	7	5	314403	5	3	3	1	0	905	1	4	0	56	77	0	0	100
fixed	2	7	6	316342	6	4	4	1	0	735	1	4	0	64	78	0	0	100
fixed	2	7	7	317530	3	1	1	1	0	733	1	4	0	40	79	0	0	100
fixed	2	7	8	318577	2	3	3	1	0	1024	1	4	0	56	80	0	0	100
fixed	2	7	9	320512	3	2	2	1	0	798	1	4	0	48	81	0	0	100
fixed	2	7	10	321792	1	4	4	1	0	840	1	4	0	64	82	0	0	100
fixed	2	7	11	323557	5	2	2	1	0	821	1	4	0	48	83	0	0	100
fixed	2	7	12	325417	4	3	3	1	0	671	1	4	0	56	84	0	0	100
fixed	2	8	1	326796	4	1	1	1	0	884	1	4	0	40	85	0	0	100
fixed	2	8	2	328452	1	2	2	1	0	1430	1	4	0	48	86	0	0	100
fixed	2	8	3	330203	6	4	4	1	0	868	1	4	0	64	87	0	0	100
fixed	2	8	4	332068	2	1	1	1	0	733	1	4	0	40	88	0	0	100
fixed	2	8	5	333396	5	3	3	1	0	844	1	4	0	56	89	0	0	100
fixed	2	8	6	334544	6	4	4	1	0	1308	1	4	0	64	90	0	0	100
fixed	2	8	7	336509	3	1	1	1	0	1257	1	4	0	40	91	0	0	100
fixed	2	8	8	338748	2	3	3	1	0	938	1	4	0	56	92	0	0	100
fixed	2	8	9	340584	3	2	2	1	0	772	1	4	0	48	93	0	0	100
fixed	2	8	10	342094	1	4	4	1	0	692	1	4	0	64	94	0	0	100
fixed	2	8	11	343467	5	2	2	1	0	978	1	4	0	48	95	0	0	100
fixed	2	8	12	344836	4	3	3	1	0	616	1	4	0	56	96	0	0	100
fixed	2	9	1	346060	4	1	1	1	0	748	1	4	0	40	97	0	0	100
fixed	2	9	2	347125	1	2	2	1	0	1167	1	4	0	48	98	0	0	100
fixed	2	9	3	349046	6	4	4	1	0	814	1	4	0	64	99	0	0	100
fixed	2	9	4	350183	2	1	1	1	0	846	1	4	0	40	100	0	0	100
fixed	2	9	5	351756	5	3	3	1	0	803	1	4	0	56	101	0	0	100
fixed	2	9	6	353004	6	4	4	1	0	934	1	4	0	64	102	0	0	100
fixed	2	9	7	354353	3	1	1	1	0	861	1	4	0	40	103	0	0	100
fixed	2	9	8	355843	2	3	3	1	0	1326	1	4	0	56	104	0	0	100
fixed	2	9	9	357473	3	2	2	1	0	841	1	4	0	48	105	0	0	100
fixed	2	9	10	358647	1	4	4	1	0	759	1	4	0	64	106	0	0	100
fixed	2	9	11	359957	5	2	2	1	0	848	1	4	0	48	107	0	0	100
fixed	2	9	12	361684	4	3	3	1	0	614	1	4	0	56	108	0	0	100
fixed	2	10	1	363469	4	1	1	1	0	859	1	4	0	40	109	0	0	100
fixed	2	10	2	365100	1	2	2	1	0	1030	1	4	0	48	110	0	0	100
fixed	2	10	3	366917	6	4	4	1	0	721	1	4	0	64	111	0	0	100
fixed	2	10	4	368179	2	1	1	1	0	883	1	4	0	40	112	0	0	100
fixed	2	10	5	369528	5	3	3	1	0	818	1	4	0	56	113	0	0	100
fixed	2	10	6	370665	6	4	4	1	0	1082	1	4	0	64	114	0	0	100
fixed	2	10	7	372335	3	1	1	1	0	1348	1	4	0	40	115	0	0	100
fixed	2	10	8	374096	2	3	3	1	0	1457	1	4	0	56	116	0	0	100
fixed	2	10	9	376141	3	2	2	1	0	810	1	4	0	48	117	0	0	100
fixed	2	10	10	377254	1	4	4	1	0	1043	1	4	0	64	118	0	0	100
fixed	2	10	11	378779	5	2	2	1	0	1002	1	4	0	48	119	0	0	100
fixed	2	10	12	380539	4	3	3	1	0	672	1	4	0	56	120	0	0	100
fixed	3	1	1	382497	4	1	1	1	0	797	1	4	0	72	1	0	0	100
fixed	3	1	2	383916	1	2	2	1	0	921	1	4	0	80	2	0	0	100
fixed	3	1	3	385138	6	4	4	1	0	1069	1	4	0	96	3	0	0	100
fixed	3	1	4	387084	2	1	1	1	0	747	1	4	0	72	4	0	0	100
fixed	3	1	5	388518	5	3	3	1	0	838	1	4	0	88	5	0	0	100
fixed	3	1	6	389751	6	4	4	1	0	897	1	4	0	96	6	0	0	100
fixed	3	1	7	391003	3	1	1	1	0	1132	1	4	0	72	7	0	0	100
fixed	3	1	8	392623	2	3	3	1	0	952	1	4	0	88	8	0	0	100
fixed	3	1	9	394037	3	2	2	1	0	772	1	4	0	80	9	0	0	100
fixed	3	1	10	395598	1	4	4	1	0	626	1	4	0	96	10	0	0	100
fixed	3	1	11	396653	5	2	2	1	0	981	1	4	0	80	11	0	0	100
fixed	3	1	12	398348	4	3	3	1	0	774	1	4	0	88	12	0	0	100
fixed	3	2	1	400377	4	1	1	1	0	743	1	4	0	72	13	0	0	100
fixed	3	2	2	402022	1	2	2	1	0	1002	1	4	0	80	14	0	0	100
fixed	3	2	3	403795	6	4	4	1	0	727	1	4	0	96	15	0	0	100
fixed	3	2	4	405272	2	1	1	1	0	840	1	4	0	72	16	0	0	100
fixed	3	2	5	406686	5	3	3	1	0	1221	1	4	0	88	17	0	0	100
fixed	3	2	6	408308	6	4	4	1	0	1256	1	4	0	96	18	0	0	100
fixed	3	2	7	410182	3	1	1	1	0	784	1	4	0	72	19	0	0	100
fixed	3	2	8	411810	2	3	3	1	0	907	1	4	0	88	20	0	0	100
fixed	3	2	9	413546	3	2	2	1	0	666	1	4	0	80	21	0	0	100
fixed	3	2	10	415006	1	4	4	1	0	956	1	4	0	96	22	0	0	100
fixed	3	2	11	416255	5	2	2	1	0	903	1	4	0	80	23	0	0	100
fixed	3	2	12	417724	4	3	3	1	0	753	1	4	0	88	24	0	0	100
fixed	3	3	1	419323	4	1	1	1	0	717	1	4	0	72	25	0	0	100
fixed	3	3	2	420584	1	2	2	1	0	888	1	4	0	80	26	0	0	100
fixed	3	3	3	422214	6	4	4	1	0	810	1	4	0	96	27	0	0	100
fixed	3	3	4	423573	2	1	1	1	0	873	1	4	0	72	28	0	0	100
fixed	3	3	5	425241	5	3	3	1	0	866	1	4	0	88	29	0	0	100
fixed	3	3	6	426933	6	4	4	1	0	843	1	4	0	96	30	0	0	100
fixed	3	3	7	428617	3	1	1	1	0	659	1	4	0	72	31	0	0	100
fixed	3	3	8	430034	2	3	3	1	0	1079	1	4	0	88	32	0	0	100
fixed	3	3	9	431613	3	2	2	1	0	997	1	4	0	80	33	0	0	100
fixed	3	3	10	433167	1	4	4	1	0	899	1	4	0	96	34	0	0	100
fixed	3	3	11	434838	5	2	2	1	0	900	1	4	0	80	35	0	0	100
fixed	3	3	12	436225	4	3	3	1	0	1041	1	4	0	88	36	0	0	100
fixed	3	4	1	438336	4	1	1	1	0	896	1	4	0	72	37	0	0	100
fixed	3	4	2	440267	1	2	2	1	0	1038	1	4	0	80	38	0	0	100
fixed	3	4	3	442129	6	4	4	1	0	695	1	4	0	96	39	0	0	100
fixed	3	4	4	443389	2	1	1	1	0	850	1	4	0	72	40	0	0	100
fixed	3	4	5	445149	5	3	3	1	0	896	1	4	0	88	41	0	0	100
fixed	3	4	6	446599	6	4	4	1	0	994	1	4	0	96	42	0	0	100
fixed	3	4	7	448331	3	1	1	1	0	736	1	4	0	72	43	0	0	100
fixed	3	4	8	449893	2	3	3	1	0	927	1	4	0	88	44	0	0	100
fixed	3	4	9	451672	3	2	2	1	0	651	1	4	0	80	45	0	0	100
fixed	3	4	10	452695	1	4	4	1	0	976	1	4	0	96	46	0	0	100
fixed	3	4	11	454214	5	2	2	1	0	935	1	4	0	80	47	0	0	100
fixed	3	4	12	455532	4	3	3	1	0	887	1	4	0	88	48	0	0	100
fixed	3	5	1	457533	4	1	0	0	2	0	3	4	0	72	48	0	1	98
fixed	3	5	2	460345	1	2	2	1	0	1260	1	4	0	80	49	0	1	98
fixed	3	5	3	462585	6	4	4	1	0	733	1	4	0	96	50	0	1	98
fixed	3	5	4	464089	2	1	1	1	0	877	1	4	0	72	51	0	1	98
fixed	3	5	5	465501	5	3	3	1	0	1297	1	4	0	88	52	0	1	98
fixed	3	5	6	467744	6	4	4	1	0	674	1	4	0	96	53	0	1	98
fixed	3	5	7	469424	3	1	1	1	0	899	1	4	0	72	54	0	1	98
fixed	3	5	8	470619	2	3	3	1	0	960	1	4	0	88	55	0	1	98
fixed	3	5	9	472080	3	2	2	1	0	955	1	4	0	80	56	0	1	98
fixed	3	5	10	473503	1	4	4	1	0	750	1	4	0	96	57	0	1	98
fixed	3	5	11	474612	5	2	2	1	0	1007	1	4	0	80	58	0	1	98
fixed	3	5	12	476280	4	3	3	1	0	801	1	4	0	88	59	0	1	98
fixed	3	6	1	477884	4	1	1	1	0	789	1	4	0	72	60	0	1	98
fixed	3	6	2	479017	1	2	2	1	0	1005	1	4	0	80	61	0	1	98
fixed	3	6	3	480773	6	4	4	1	0	730	1	4	0	96	62	0	1	98
fixed	3	6	4	482179	2	1	1	1	0	935	1	4	0	72	63	0	1	98
fixed	3	6	5	483983	5	3	3	1	0	898	1	4	0	88	64	0	1	98
fixed	3	6	6	485856	6	4	4	1	0	691	1	4	0	96	65	0	1	98
fixed	3	6	7	487322	3	1	1	1	0	741	1	4	0	72	66	0	1	99
fixed	3	6	8	488367	2	3	3	1	0	985	1	4	0	88	67	0	1	99
fixed	3	6	9	490303	3	2	2	1	0	695	1	4	0	80	68	0	1	99
fixed	3	6	10	491525	1	4	4	1	0	859	1	4	0	96	69	0	1	99
fixed	3	6	11	493040	5	2	2	1	0	979	1	4	0	80	70	0	1	99
fixed	3	6	12	495027	4	3	3	1	0	791	1	4	0	88	71	0	1	99
fixed	3	7	1	497114	4	1	1	1	0	790	1	4	0	72	72	0	1	99
fixed	3	7	2	498289	1	2	2	1	0	1109	1	4	0	80	73	0	1	99
fixed	3	7	3	500182	6	4	4	1	0	573	1	4	0	96	74	0	1	99
fixed	3	7	4	501099	2	1	1	1	0	934	1	4	0	72	75	0	1	99
fixed	3	7	5	503031	5	3	3	1	0	820	1	4	0	88	76	0	1	99
fixed	3	7	6	504760	6	4	4	1	0	667	1	4	0	96	77	0	1	99
fixed	3	7	7	505868	3	1	1	1	0	1115	1	4	0	72	78	0	1	99
fixed	3	7	8	507792	2	3	3	1	0	1002	1	4	0	88	79	0	1	99
fixed	3	7	9	509367	3	2	2	1	0	735	1	4	0	80	80	0	1	99
fixed	3	7	10	510546	1	4	4	1	0	821	1	4	0	96	81	0	1	99
fixed	3	7	11	512218	5	2	2	1	0	958	1	4	0	80	82	0	1	99
fixed	3	7	12	514048	4	3	3	1	0	745	1	4	0	88	83	0	1	99
fixed	3	8	1	515743	4	1	1	1	0	793	1	4	0	72	84	0	1	99
fixed	3	8	2	517074	1	2	2	1	0	1249	1	4	0	80	85	0	1	99
fixed	3	8	3	519138	6	4	4	1	0	713	1	4	0	96	86	0	1	99
fixed	3	8	4	520372	2	1	1	1	0	1237	1	4	0	72	87	0	1	99
fixed	3	8	5	522313	5	3	3	1	0	915	1	4	0	88	88	0	1	99
fixed	3	8	6	523737	6	4	4	1	0	791	1	4	0	96	89	0	1	99
fixed	3	8	7	525535	3	1	1	1	0	738	1	4	0	72	90	0	1	99
fixed	3	8	8	526584	2	3	3	1	0	1014	1	4	0	88	91	0	1	99
fixed	3	8	9	528283	3	2	2	1	0	798	1	4	0	80	92	0	1	99
fixed	3	8	10	529717	1	4	4	1	0	689	1	4	0	96	93	0	1	99
fixed	3	8	11	531191	5	2	2	1	0	979	1	4	0	80	94	0	1	99
fixed	3	8	12	532948	4	3	3	1	0	745	1	4	0	88	95	0	1	99
fixed	3	9	1	534806	4	1	1	1	0	778	1	4	0	72	96	0	1	99
fixed	3	9	2	536195	1	2	2	1	0	1271	1	4	0	80	97	0	1	99
fixed	3	9	3	538119	6	4	4	1	0	677	1	4	0	96	98	0	1	99
fixed	3	9	4	539266	2	1	1	1	0	989	1	4	0	72	99	0	1	99
fixed	3	9	5	540691	5	3	3	1	0	1792	1	4	0	88	100	0	1	99
fixed	3	9	6	543251	6	4	4	1	0	612	1	4	0	96	101	0	1	99
fixed	3	9	7	544491	3	1	1	1	0	840	1	4	0	72	102	0	1	99
fixed	3	9	8	545693	2	3	3	1	0	1005	1	4	0	88	103	0	1	99
fixed	3	9	9	547562	3	2	2	2	0	910	2	4	0	80	104	0	1	99
fixed	3	9	10	549401	1	4	4	1	0	624	1	4	0	96	105	0	1	99
fixed	3	9	11	550541	5	2	2	1	0	1336	1	4	0	80	106	0	1	99
fixed	3	9	12	552263	4	3	3	1	0	847	1	4	0	88	107	0	1	99
fixed	3	10	1	553803	4	1	1	1	0	829	1	4	0	72	108	0	1	99
fixed	3	10	2	555032	1	2	2	1	0	889	1	4	0	80	109	0	1	99
fixed	3	10	3	556328	6	4	4	1	0	866	1	4	0	96	110	0	1	99
fixed	3	10	4	557578	2	1	1	1	0	941	1	4	0	72	111	0	1	99
fixed	3	10	5	559054	5	3	3	1	0	847	1	4	0	88	112	0	1	99
fixed	3	10	6	560622	6	4	4	1	0	652	1	4	0	96	113	0	1	99
fixed	3	10	7	562099	3	1	1	1	0	734	1	4	0	72	114	0	1	99
fixed	3	10	8	563800	2	3	3	1	0	1038	1	4	0	88	115	0	1	99
fixed	3	10	9	565588	3	2	2	1	0	642	1	4	0	80	116	0	1	99
fixed	3	10	10	567126	1	4	4	1	0	441	1	4	0	96	117	0	1	99
fixed	3	10	11	568035	5	2	2	1	0	1067	1	4	0	80	118	0	1	99
fixed	3	10	12	569538	4	3	3	1	0	891	1	4	0	88	119	0	1	99
fixed	4	1	1	744068	4	1	1	1	0	1042	1	4	0	104	1	0	0	100
fixed	4	1	2	746122	1	2	2	1	0	811	1	4	0	112	2	0	0	100
fixed	4	1	3	747687	6	4	4	1	0	785	1	4	0	128	3	0	0	100
fixed	4	1	4	748873	2	1	1	1	0	943	1	4	0	104	4	0	0	100
fixed	4	1	5	750760	5	3	3	1	0	919	1	4	0	120	5	0	0	100
fixed	4	1	6	752720	6	4	4	1	0	756	1	4	0	128	6	0	0	100
fixed	4	1	7	754107	3	1	1	1	0	786	1	4	0	104	7	0	0	100
fixed	4	1	8	755399	2	3	3	1	0	1018	1	4	0	120	8	0	0	100
fixed	4	1	9	756948	3	2	2	1	0	833	1	4	0	112	9	0	0	100
fixed	4	1	10	758660	1	4	4	1	0	736	1	4	0	128	10	0	0	100
fixed	4	1	11	759884	5	2	2	1	0	1021	1	4	0	112	11	0	0	100
fixed	4	1	12	761896	4	3	3	1	0	687	1	4	0	120	12	0	0	100
fixed	4	2	1	763852	4	1	1	1	0	836	1	4	0	104	13	0	0	100
fixed	4	2	2	765173	1	2	2	1	0	1196	1	4	0	112	14	0	0	100
fixed	4	2	3	767162	6	4	4	1	0	672	1	4	0	128	15	0	0	100
fixed	4	2	4	768462	2	1	1	1	0	865	1	4	0	104	16	0	0	100
fixed	4	2	5	769988	5	3	3	1	0	873	1	4	0	120	17	0	0	100
fixed	4	2	6	771740	6	4	4	1	0	718	1	4	0	128	18	0	0	100
fixed	4	2	7	772769	3	1	1	1	0	931	1	4	0	104	19	0	0	100
fixed	4	2	8	774379	2	3	3	1	0	854	1	4	0	120	20	0	0	100
fixed	4	2	9	775564	3	2	2	1	0	1588	1	4	0	112	21	0	0	100
fixed	4	2	10	777494	1	4	4	1	0	1035	1	4	0	128	22	0	0	100
fixed	4	2	11	779036	5	2	2	1	0	858	1	4	0	112	23	0	0	100
fixed	4	2	12	780364	4	3	3	1	0	769	1	4	0	120	24	0	0	100
fixed	4	3	1	781996	4	1	1	1	0	732	1	4	0	104	25	0	0	100
fixed	4	3	2	783621	1	2	2	1	0	1111	1	4	0	112	26	0	0	100
fixed	4	3	3	785379	6	4	4	1	0	765	1	4	0	128	27	0	0	100
fixed	4	3	4	787106	2	1	1	1	0	868	1	4	0	104	28	0	0	100
fixed	4	3	5	788705	5	3	3	1	0	1520	1	4	0	120	29	0	0	100
fixed	4	3	6	790759	6	4	4	1	0	937	1	4	0	128	30	0	0	100
fixed	4	3	7	792032	3	1	1	1	0	1011	1	4	0	104	31	0	0	100
fixed	4	3	8	793716	2	3	3	1	0	884	1	4	0	120	32	0	0	100
fixed	4	3	9	795415	3	2	2	1	0	652	1	4	0	112	33	0	0	100
fixed	4	3	10	796498	1	4	4	1	0	822	1	4	0	128	34	0	0	100
fixed	4	3	11	797826	5	2	2	1	0	958	1	4	0	112	35	0	0	100
fixed	4	3	12	799483	4	3	3	1	0	792	1	4	0	120	36	0	0	100
fixed	4	4	1	800909	4	1	1	1	0	755	1	4	0	104	37	0	0	100
fixed	4	4	2	802434	1	2	2	1	0	1034	1	4	0	112	38	0	0	100
fixed	4	4	3	804275	6	4	4	1	0	692	1	4	0	128	39	0	0	100
fixed	4	4	4	805788	2	1	1	1	0	804	1	4	0	104	40	0	0	100
fixed	4	4	5	807351	5	3	3	1	0	986	1	4	0	120	41	0	0	100
fixed	4	4	6	808778	6	4	4	1	0	1013	1	4	0	128	42	0	0	100
fixed	4	4	7	810316	3	1	1	1	0	948	1	4	0	104	43	0	0	100
fixed	4	4	8	811621	2	3	3	1	0	1133	1	4	0	120	44	0	0	100
fixed	4	4	9	813070	3	2	2	1	0	1112	1	4	0	112	45	0	0	100
fixed	4	4	10	814687	1	4	4	1	0	860	1	4	0	128	46	0	0	100
fixed	4	4	11	816277	5	2	2	1	0	1000	1	4	0	112	47	0	0	100
fixed	4	4	12	817975	4	3	3	1	0	824	1	4	0	120	48	0	0	100
fixed	4	5	1	819923	4	1	1	1	0	1141	1	4	0	104	49	0	0	100
fixed	4	5	2	821624	1	2	2	1	0	1014	1	4	0	112	50	0	0	100
fixed	4	5	3	823469	6	4	4	1	0	695	1	4	0	128	51	0	0	100
fixed	4	5	4	824885	2	1	1	1	0	867	1	4	0	104	52	0	0	100
fixed	4	5	5	826686	5	3	3	1	0	1096	1	4	0	120	53	0	0	100
fixed	4	5	6	828078	6	4	4	1	0	1116	1	4	0	128	54	0	0	100
fixed	4	5	7	829586	3	1	1	1	0	1100	1	4	0	104	55	0	0	100
fixed	4	5	8	831167	2	3	3	1	0	1201	1	4	0	120	56	0	0	100
fixed	4	5	9	833351	3	2	2	1	0	989	1	4	0	112	57	0	0	100
fixed	4	5	10	834909	1	4	4	1	0	1227	1	4	0	128	58	0	0	100
fixed	4	5	11	837130	5	2	2	1	0	901	1	4	0	112	59	0	0	100
fixed	4	5	12	838540	4	3	3	1	0	849	1	4	0	120	60	0	0	100
fixed	4	6	1	840122	4	1	1	1	0	982	1	4	0	104	61	0	0	100
fixed	4	6	2	841842	1	2	2	1	0	885	1	4	0	112	62	0	0	100
fixed	4	6	3	843769	6	4	4	1	0	764	1	4	0	128	63	0	0	100
fixed	4	6	4	845011	2	1	1	1	0	1015	1	4	0	104	64	0	0	100
fixed	4	6	5	846833	5	3	3	1	0	818	1	4	0	120	65	0	0	100
fixed	4	6	6	848489	6	4	4	1	0	852	1	4	0	128	66	0	0	100
fixed	4	6	7	850119	3	1	1	1	0	911	1	4	0	104	67	0	0	100
fixed	4	6	8	851961	2	3	3	1	0	1169	1	4	0	120	68	0	0	100
fixed	4	6	9	854133	3	2	2	1	0	805	1	4	0	112	69	0	0	100
fixed	4	6	10	855959	1	4	4	1	0	1015	1	4	0	128	70	0	0	100
fixed	4	6	11	857805	5	2	2	1	0	849	1	4	0	112	71	0	0	100
fixed	4	6	12	859488	4	3	3	1	0	850	1	4	0	120	72	0	0	100
fixed	4	7	1	861558	4	1	1	1	0	922	1	4	0	104	73	0	0	100
fixed	4	7	2	863074	1	2	2	1	0	1570	1	4	0	112	74	0	0	100
fixed	4	7	3	865450	6	4	4	1	0	805	1	4	0	128	75	0	0	100
fixed	4	7	4	866581	2	1	1	1	0	1198	1	4	0	104	76	0	0	100
fixed	4	7	5	868394	5	3	3	1	0	1024	1	4	0	120	77	0	0	100
fixed	4	7	6	869969	6	4	4	1	0	758	1	4	0	128	78	0	0	100
fixed	4	7	7	871188	3	1	1	1	0	930	1	4	0	104	79	0	0	100
fixed	4	7	8	872628	2	3	3	1	0	1022	1	4	0	120	80	0	0	100
fixed	4	7	9	874056	3	2	2	1	0	953	1	4	0	112	81	0	0	100
fixed	4	7	10	875456	1	4	4	1	0	1429	1	4	0	128	82	0	0	100
fixed	4	7	11	877729	5	2	2	1	0	893	1	4	0	112	83	0	0	100
fixed	4	7	12	879083	4	3	3	1	0	956	1	4	0	120	84	0	0	100
fixed	4	8	1	880839	4	1	1	1	0	913	1	4	0	104	85	0	0	100
fixed	4	8	2	882167	1	2	2	1	0	1457	1	4	0	112	86	0	0	100
fixed	4	8	3	884430	6	4	4	1	0	921	1	4	0	128	87	0	0	100
fixed	4	8	4	885702	2	1	1	1	0	1115	1	4	0	104	88	0	0	100
fixed	4	8	5	887385	5	3	3	1	0	949	1	4	0	120	89	0	0	100
fixed	4	8	6	888983	6	4	4	1	0	825	1	4	0	128	90	0	0	100
fixed	4	8	7	890498	3	1	1	1	0	696	1	4	0	104	91	0	0	100
fixed	4	8	8	892216	2	3	3	1	0	1151	1	4	0	120	92	0	0	100
fixed	4	8	9	894307	3	2	2	1	0	703	1	4	0	112	93	0	0	100
fixed	4	8	10	895474	1	4	4	1	0	877	1	4	0	128	94	0	0	100
fixed	4	8	11	896930	5	2	2	1	0	1144	1	4	0	112	95	0	0	100
fixed	4	8	12	898656	4	3	3	1	0	823	1	4	0	120	96	0	0	100
fixed	4	9	1	900704	4	1	1	1	0	808	1	4	0	104	97	0	0	100
fixed	4	9	2	902302	1	2	2	1	0	909	1	4	0	112	98	0	0	100
fixed	4	9	3	903570	6	4	4	1	0	975	1	4	0	128	99	0	0	100
fixed	4	9	4	905451	2	1	1	1	0	839	1	4	0	104	100	0	0	100
fixed	4	9	5	907295	5	3	3	1	0	1273	1	4	0	120	101	0	0	100
fixed	4	9	6	909301	6	4	4	1	0	900	1	4	0	128	102	0	0	100
fixed	4	9	7	911073	3	1	1	1	0	817	1	4	0	104	103	0	0	100
fixed	4	9	8	912440	2	3	3	1	0	1215	1	4	0	120	104	0	0	100
fixed	4	9	9	914036	3	2	2	1	0	939	1	4	0	112	105	0	0	100
fixed	4	9	10	915949	1	4	4	1	0	786	1	4	0	128	106	0	0	100
fixed	4	9	11	917768	5	2	2	1	0	725	1	4	0	112	107	0	0	100
fixed	4	9	12	919097	4	3	3	1	0	853	1	4	0	120	108	0	0	100
fixed	4	10	1	921238	4	1	1	1	0	754	1	4	0	104	109	0	0	100
fixed	4	10	2	923016	1	2	2	1	0	1119	1	4	0	112	110	0	0	100
fixed	4	10	3	924659	6	4	4	1	0	898	1	4	0	128	111	0	0	100
fixed	4	10	4	926156	2	1	1	1	0	930	1	4	0	104	112	0	0	100
fixed	4	10	5	927623	5	3	3	1	0	868	1	4	0	120	113	0	0	100
fixed	4	10	6	928811	6	4	4	1	0	1210	1	4	0	128	114	0	0	100
fixed	4	10	7	930951	3	1	1	1	0	807	1	4	0	104	115	0	0	100
fixed	4	10	8	932372	2	3	3	1	0	875	1	4	0	120	116	0	0	100
fixed	4	10	9	934265	3	2	2	1	0	739	1	4	0	112	117	0	0	100
fixed	4	10	10	935464	1	4	4	1	0	864	1	4	0	128	118	0	0	100
fixed	4	10	11	937323	5	2	2	1	0	1225	1	4	0	112	119	0	0	100
fixed	4	10	12	939283	4	3	3	1	0	694	1	4	0	120	120	0	0	100
fixed	5	1	1	941201	4	1	1	1	0	645	1	4	0	136	1	0	0	100
fixed	5	1	2	942209	1	2	2	1	0	986	1	4	0	144	2	0	0	100
fixed	5	1	3	943858	6	4	4	1	0	804	1	4	0	160	3	0	0	100
fixed	5	1	4	945481	2	1	1	1	0	871	1	4	0	136	4	0	0	100
fixed	5	1	5	947390	5	3	3	1	0	911	1	4	0	152	5	0	0	100
fixed	5	1	6	948740	6	4	4	1	0	821	1	4	0	160	6	0	0	100
fixed	5	1	7	950262	3	1	1	1	0	1021	1	4	0	136	7	0	0	100
fixed	5	1	8	952072	2	3	3	1	0	953	1	4	0	152	8	0	0	100
fixed	5	1	9	953587	3	2	2	1	0	960	1	4	0	144	9	0	0	100
fixed	5	1	10	954849	1	4	4	1	0	1011	1	4	0	160	10	0	0	100
fixed	5	1	11	956579	5	2	2	1	0	818	1	4	0	144	11	0	0	100
fixed	5	1	12	958370	4	3	3	1	0	798	1	4	0	152	12	0	0	100
fixed	5	2	1	960000	4	1	1	1	0	712	1	4	0	136	13	0	0	100
fixed	5	2	2	961051	1	2	2	2	0	1844	2	4	0	144	14	0	0	100
fixed	5	2	3	963525	6	4	4	1	0	739	1	4	0	160	15	0	0	100
fixed	5	2	4	964594	2	1	1	1	0	1094	1	4	0	136	16	0	0	100
fixed	5	2	5	966274	5	3	3	1	0	863	1	4	0	152	17	0	0	100
fixed	5	2	6	967767	6	4	4	1	0	783	1	4	0	160	18	0	0	100
fixed	5	2	7	969058	3	1	1	1	0	1065	1	4	0	136	19	0	0	100
fixed	5	2	8	970868	2	3	3	1	0	876	1	4	0	152	20	0	0	100
fixed	5	2	9	972332	3	2	2	1	0	710	1	4	0	144	21	0	0	100
fixed	5	2	10	973773	1	4	4	1	0	673	1	4	0	160	22	0	0	100
fixed	5	2	11	975408	5	2	2	1	0	1044	1	4	0	144	23	0	0	100
fixed	5	2	12	977349	4	3	3	1	0	746	1	4	0	152	24	0	0	100
fixed	5	3	1	978662	4	1	1	1	0	994	1	4	0	136	25	0	0	100
fixed	5	3	2	980320	1	2	2	1	0	1316	1	4	0	144	26	0	0	100
fixed	5	3	3	982238	6	4	4	1	0	706	1	4	0	160	27	0	0	100
fixed	5	3	4	983597	2	1	1	1	0	793	1	4	0	136	28	0	0	100
fixed	5	3	5	984948	5	3	3	1	0	816	1	4	0	152	29	0	0	100
fixed	5	3	6	986492	6	4	4	1	0	743	1	4	0	160	30	0	0	100
fixed	5	3	7	988041	3	1	1	1	0	781	1	4	0	136	31	0	0	100
fixed	5	3	8	989219	2	3	3	1	0	1371	1	4	0	152	32	0	0	100
fixed	5	3	9	991260	3	2	2	1	0	732	1	4	0	144	33	0	0	100
fixed	5	3	10	992814	1	4	4	1	0	771	1	4	0	160	34	0	0	100
fixed	5	3	11	994266	5	2	2	1	0	869	1	4	0	144	35	0	0	100
fixed	5	3	12	995679	4	3	3	1	0	778	1	4	0	152	36	0	0	100
fixed	5	4	1	997558	4	1	1	1	0	754	1	4	0	136	37	0	0	100
fixed	5	4	2	999262	1	2	2	1	0	1209	1	4	0	144	38	0	0	100
fixed	5	4	3	1000879	6	4	4	1	0	981	1	4	0	160	39	0	0	100
fixed	5	4	4	1002396	2	1	1	1	0	757	1	4	0	136	40	0	0	100
fixed	5	4	5	1003913	5	3	3	1	0	917	1	4	0	152	41	0	0	100
fixed	5	4	6	1005732	6	4	4	1	0	736	1	4	0	160	42	0	0	100
fixed	5	4	7	1007325	3	1	1	1	0	756	1	4	0	136	43	0	0	100
fixed	5	4	8	1008488	2	3	3	1	0	1011	1	4	0	152	44	0	0	100
fixed	5	4	9	1010257	3	2	2	1	0	760	1	4	0	144	45	0	0	100
fixed	5	4	10	1011529	1	4	4	1	0	1066	1	4	0	160	46	0	0	100
fixed	5	4	11	1013274	5	2	2	1	0	1064	1	4	0	144	47	0	0	100
fixed	5	4	12	1014638	4	3	3	1	0	958	1	4	0	152	48	0	0	100
fixed	5	5	1	1016772	4	1	1	1	0	876	1	4	0	136	49	0	0	100
fixed	5	5	2	1018298	1	2	2	1	0	931	1	4	0	144	50	0	0	100
fixed	5	5	3	1019756	6	4	4	1	0	926	1	4	0	160	51	0	0	100
fixed	5	5	4	1021254	2	1	1	1	0	766	1	4	0	136	52	0	0	100
fixed	5	5	5	1022646	5	3	3	1	0	1027	1	4	0	152	53	0	0	100
fixed	5	5	6	1024533	6	4	4	1	0	644	1	4	0	160	54	0	0	100
fixed	5	5	7	1025670	3	1	1	1	0	931	1	4	0	136	55	0	0	100
fixed	5	5	8	1026992	2	3	3	1	0	1275	1	4	0	152	56	0	0	100
fixed	5	5	9	1028848	3	2	2	1	0	1037	1	4	0	144	57	0	0	100
fixed	5	5	10	1030670	1	4	4	1	0	672	1	4	0	160	58	0	0	100
fixed	5	5	11	1032050	5	2	2	1	0	1205	1	4	0	144	59	0	0	100
fixed	5	5	12	1033940	4	3	3	1	0	973	1	4	0	152	60	0	0	100
fixed	5	6	1	1035585	4	1	1	1	0	895	1	4	0	136	61	0	0	100
fixed	5	6	2	1037485	1	2	2	1	0	863	1	4	0	144	62	0	0	100
fixed	5	6	3	1039239	6	4	4	1	0	709	1	4	0	160	63	0	0	100
fixed	5	6	4	1040308	2	1	1	1	0	1055	1	4	0	136	64	0	0	100
fixed	5	6	5	1042023	5	3	3	1	0	823	1	4	0	152	65	0	0	100
fixed	5	6	6	1043509	6	4	4	1	0	768	1	4	0	160	66	0	0	100
fixed	5	6	7	1044670	3	1	1	1	0	1031	1	4	0	136	67	0	0	100
fixed	5	6	8	1046088	2	3	3	1	0	1483	1	4	0	152	68	0	0	100
fixed	5	6	9	1048154	3	2	2	1	0	803	1	4	0	144	69	0	0	100
fixed	5	6	10	1049654	1	4	4	1	0	715	1	4	0	160	70	0	0	100
fixed	5	6	11	1050852	5	2	2	1	0	993	1	4	0	144	71	0	0	100
fixed	5	6	12	1052526	4	3	3	1	0	769	1	4	0	152	72	0	0	100
fixed	5	7	1	1054281	4	1	1	1	0	759	1	4	0	136	73	0	0	100
fixed	5	7	2	1055676	1	2	2	1	0	948	1	4	0	144	74	0	0	100
fixed	5	7	3	1057479	6	4	4	1	0	712	1	4	0	160	75	0	0	100
fixed	5	7	4	1058505	2	1	1	1	0	1741	1	4	0	136	76	0	0	100
fixed	5	7	5	1060993	5	3	3	1	0	1035	1	4	0	152	77	0	0	100
fixed	5	7	6	1062665	6	4	4	1	0	701	1	4	0	160	78	0	0	100
fixed	5	7	7	1064011	3	1	1	1	0	803	1	4	0	136	79	0	0	100
fixed	5	7	8	1065328	2	3	3	1	0	963	1	4	0	152	80	0	0	100
fixed	5	7	9	1066920	3	2	2	1	0	944	1	4	0	144	81	0	0	100
fixed	5	7	10	1068775	1	4	4	1	0	818	1	4	0	160	82	0	0	100
fixed	5	7	11	1070493	5	2	2	1	0	905	1	4	0	144	83	0	0	100
fixed	5	7	12	1072190	4	3	3	1	0	745	1	4	0	152	84	0	0	100
fixed	5	8	1	1074096	4	1	1	1	0	920	1	4	0	136	85	0	0	100
fixed	5	8	2	1075898	1	2	2	1	0	699	1	4	0	144	86	0	0	100
fixed	5	8	3	1076982	6	4	4	1	0	1062	1	4	0	160	87	0	0	100
fixed	5	8	4	1078739	2	1	1	1	0	907	1	4	0	136	88	0	0	100
fixed	5	8	5	1080159	5	3	3	1	0	879	1	4	0	152	89	0	0	100
fixed	5	8	6	1082050	6	4	4	1	0	719	1	4	0	160	90	0	0	100
fixed	5	8	7	1083239	3	1	1	1	0	909	1	4	0	136	91	0	0	100
fixed	5	8	8	1085097	2	3	3	1	0	1278	1	4	0	152	92	0	0	100
fixed	5	8	9	1086698	3	2	2	1	0	834	1	4	0	144	93	0	0	100
fixed	5	8	10	1088228	1	4	4	1	0	697	1	4	0	160	94	0	0	100
fixed	5	8	11	1089804	5	2	2	1	0	1007	1	4	0	144	95	0	0	100
fixed	5	8	12	1091230	4	3	3	1	0	1219	1	4	0	152	96	0	0	100
fixed	5	9	1	1093076	4	1	1	1	0	772	1	4	0	136	97	0	0	100
fixed	5	9	2	1094766	1	2	2	1	0	1037	1	4	0	144	98	0	0	100
fixed	5	9	3	1096648	6	4	4	1	0	781	1	4	0	160	99	0	0	100
fixed	5	9	4	1097955	2	1	1	1	0	925	1	4	0	136	100	0	0	100
fixed	5	9	5	1099355	5	3	3	1	0	1107	1	4	0	152	101	0	0	100
fixed	5	9	6	1101203	6	4	4	1	0	852	1	4	0	160	102	0	0	100
fixed	5	9	7	1103003	3	1	1	1	0	776	1	4	0	136	103	0	0	100
fixed	5	9	8	1104341	2	3	3	1	0	1063	1	4	0	152	104	0	0	100
fixed	5	9	9	1106099	3	2	2	1	0	1005	1	4	0	144	105	0	0	100
fixed	5	9	10	1107780	1	4	4	1	0	813	1	4	0	160	106	0	0	100
fixed	5	9	11	1109207	5	2	2	1	0	977	1	4	0	144	107	0	0	100
fixed	5	9	12	1110816	4	3	3	1	0	869	1	4	0	152	108	0	0	100
fixed	5	10	1	1112407	4	1	1	1	0	801	1	4	0	136	109	0	0	100
fixed	5	10	2	1113545	1	2	2	1	0	1361	1	4	0	144	110	0	0	100
fixed	5	10	3	1115773	6	4	4	1	0	635	1	4	0	160	111	0	0	100
fixed	5	10	4	1117026	2	1	1	1	0	798	1	4	0	136	112	0	0	100
fixed	5	10	5	1118545	5	3	3	1	0	1070	1	4	0	152	113	0	0	100
fixed	5	10	6	1120586	6	4	4	1	0	559	1	4	0	160	114	0	0	100
fixed	5	10	7	1121709	3	1	1	1	0	904	1	4	0	136	115	0	0	100
fixed	5	10	8	1123100	2	3	3	1	0	1100	1	4	0	152	116	0	0	100
fixed	5	10	9	1125134	3	2	2	1	0	735	1	4	0	144	117	0	0	100
fixed	5	10	10	1126643	1	4	4	1	0	702	1	4	0	160	118	0	0	100
fixed	5	10	11	1127828	5	2	2	1	0	1164	1	4	0	144	119	0	0	100
fixed	5	10	12	1129493	4	3	3	1	0	750	1	4	0	152	120	0	0	100
random	6	1	1	1344140	6	1	1	1	0	1090	1	4	0	168	1	0	0	100
random	6	1	2	1345995	4	4	4	1	0	899	1	4	0	192	2	0	0	100
random	6	1	3	1347494	2	2	2	1	0	1268	1	4	0	176	3	0	0	100
random	6	1	4	1349546	3	3	3	1	0	701	1	4	0	184	4	0	0	100
random	6	1	5	1350662	5	2	2	1	0	1150	1	4	0	176	5	0	0	100
random	6	1	6	1352770	1	4	4	1	0	701	1	4	0	192	6	0	0	100
random	6	1	7	1354361	6	1	1	1	0	1058	1	4	0	168	7	0	0	100
random	6	1	8	1355847	2	3	3	1	0	1091	1	4	0	184	8	0	0	100
random	6	1	9	1357674	4	2	2	1	0	837	1	4	0	176	9	0	0	100
random	6	1	10	1359342	1	1	1	1	0	959	1	4	0	168	10	0	0	100
random	6	1	11	1360844	5	4	4	1	0	887	1	4	0	192	11	0	0	100
random	6	1	12	1362569	3	3	3	1	0	1157	1	4	0	184	12	0	0	100
random	6	1	13	1364576	5	2	2	1	0	929	1	4	0	176	13	0	0	100
random	6	1	14	1366465	1	4	4	1	0	697	1	4	0	192	14	0	0	100
random	6	1	15	1367877	3	1	1	1	0	813	1	4	0	168	15	0	0	100
random	6	1	16	1369165	4	3	3	1	0	951	1	4	0	184	16	0	0	100
random	6	1	17	1370440	6	4	4	1	0	1032	1	4	0	192	17	0	0	100
random	6	1	18	1372393	2	1	1	1	0	1029	1	4	0	168	18	0	0	100
random	6	1	19	1373787	5	3	3	1	0	1075	1	4	0	184	19	0	0	100
random	6	1	20	1375641	2	2	2	1	0	780	1	4	0	176	20	0	0	100
random	6	1	21	1377079	3	3	3	1	0	1055	1	4	0	184	21	0	0	100
random	6	1	22	1378642	6	1	1	1	0	1004	1	4	0	168	22	0	0	100
random	6	1	23	1380371	4	2	2	1	0	1476	1	4	0	176	23	0	0	100
random	6	1	24	1382714	1	4	4	1	0	849	1	4	0	192	24	0	0	100
random	6	1	25	1384692	4	3	3	1	0	956	1	4	0	184	25	0	0	100
random	6	1	26	1386504	2	1	1	1	0	920	1	4	0	168	26	0	0	100
random	6	1	27	1388285	5	2	2	1	0	780	1	4	0	176	27	0	0	100
random	6	1	28	1389897	6	4	4	1	0	648	1	4	0	192	28	0	0	100
random	6	1	29	1390860	1	3	3	1	0	1175	1	4	0	184	29	0	0	100
random	6	1	30	1392772	5	2	2	1	0	919	1	4	0	176	30	0	0	100
random	6	1	31	1394730	2	1	1	1	0	820	1	4	0	168	31	0	0	100
random	6	1	32	1396235	3	3	3	1	0	836	1	4	0	184	32	0	0	100
random	6	1	33	1397646	6	4	4	1	0	864	1	4	0	192	33	0	0	100
random	6	1	34	1399355	4	2	2	1	0	896	1	4	0	176	34	0	0	100
random	6	1	35	1400838	3	4	4	1	0	1137	1	4	0	192	35	0	0	100
random	6	1	36	1402985	1	1	1	1	0	910	1	4	0	168	36	0	0	100
random	6	1	37	1404457	3	4	4	1	0	911	1	4	0	192	37	0	0	100
random	6	1	38	1406274	5	3	3	1	0	851	1	4	0	184	38	0	0	100
random	6	1	39	1407928	6	1	1	1	0	1093	1	4	0	168	39	0	0	100
random	6	1	40	1409590	1	2	2	1	0	1006	1	4	0	176	40	0	0	100
random	6	1	41	1411444	2	3	3	1	0	1160	1	4	0	184	41	0	0	100
random	6	1	42	1413256	4	4	4	1	0	971	1	4	0	192	42	0	0	100
random	6	1	43	1414738	1	2	2	1	0	1100	1	4	0	176	43	0	0	100
random	6	1	44	1416258	6	3	3	1	0	908	1	4	0	184	44	0	0	100
random	6	1	45	1417796	3	1	1	1	0	1339	1	4	0	168	45	0	0	100
random	6	1	46	1419832	4	4	4	1	0	756	1	4	0	192	46	0	0	100
random	6	1	47	1421568	2	2	2	1	0	1091	1	4	0	176	47	0	0	100
random	6	1	48	1423019	5	1	1	1	0	1005	1	4	0	168	48	0	0	100
random	6	1	49	1424757	2	3	3	1	0	1068	1	4	0	184	49	0	0	100
random	6	1	50	1426245	3	1	1	1	0	1037	1	4	0	168	50	0	0	100
random	6	1	51	1427849	1	4	4	1	0	921	1	4	0	192	51	0	0	100
random	6	1	52	1429284	5	3	3	1	0	924	1	4	0	184	52	0	0	100
random	6	1	53	1430734	3	2	2	1	0	1047	1	4	0	176	53	0	0	100
random	6	1	54	1432171	6	4	4	1	0	1034	1	4	0	192	54	0	0	100
random	6	1	55	1433526	4	2	2	1	0	1024	1	4	0	176	55	0	0	100
random	6	1	56	1434995	1	1	1	1	0	970	1	4	0	168	56	0	0	100
random	6	1	57	1436964	5	4	4	1	0	791	1	4	0	192	57	0	0	100
random	6	1	58	1438382	2	1	1	1	0	1163	1	4	0	168	58	0	0	100
random	6	1	59	1439898	6	2	2	1	0	954	1	4	0	176	59	0	0	100
random	6	1	60	1441858	4	3	3	1	0	728	1	4	0	184	60	0	0	100
random	6	1	61	1443636	1	2	2	1	0	1132	1	4	0	176	61	0	0	100
random	6	1	62	1445631	6	4	4	1	0	808	1	4	0	192	62	0	0	100
random	6	1	63	1447348	4	1	1	1	0	1431	1	4	0	168	63	0	0	100
random	6	1	64	1449739	2	2	2	1	0	826	1	4	0	176	64	0	0	100
random	6	1	65	1451451	4	3	3	1	0	857	1	4	0	184	65	0	0	100
random	6	1	66	1452835	3	1	1	1	0	935	1	4	0	168	66	0	0	100
random	6	1	67	1454470	1	3	3	1	0	977	1	4	0	184	67	0	0	100
random	6	1	68	1456077	5	4	4	2	0	1917	2	4	0	192	68	0	0	100
random	6	1	69	1458898	2	2	2	1	0	1038	1	4	0	176	69	0	0	100
random	6	1	70	1460565	3	1	1	1	0	983	1	4	0	168	70	0	0	100
random	6	1	71	1462488	5	4	4	1	0	598	1	4	0	192	71	0	0	100
random	6	1	72	1463985	6	3	3	1	0	1046	1	4	0	184	72	0	0	100
random	6	1	73	1465958	2	1	1	1	0	946	1	4	0	168	73	0	0	100
random	6	1	74	1467568	5	3	3	1	0	871	1	4	0	184	74	0	0	100
random	6	1	75	1469131	1	4	4	1	0	852	1	4	0	192	75	0	0	100
random	6	1	76	1470438	6	2	2	1	0	1141	1	4	0	176	76	0	0	100
random	6	1	77	1472365	2	1	1	1	0	811	1	4	0	168	77	0	0	100
random	6	1	78	1473582	4	4	4	1	0	1088	1	4	0	192	78	0	0	100
random	6	1	79	1475193	3	2	2	1	0	1140	1	4	0	176	79	0	0	100
random	6	1	80	1477007	4	3	3	1	0	775	1	4	0	184	80	0	0	100
random	6	1	81	1478385	1	4	4	1	0	1717	1	4	0	192	81	0	0	100
random	6	1	82	1481073	5	1	1	1	0	819	1	4	0	168	82	0	0	100
random	6	1	83	1482705	3	2	2	1	0	1077	1	4	0	176	83	0	0	100
random	6	1	84	1484434	6	3	3	1	0	756	1	4	0	184	84	0	0	100
random	6	1	85	1486307	3	2	2	1	0	941	1	4	0	176	85	0	0	100
random	6	1	86	1488107	1	3	3	1	0	793	1	4	0	184	86	0	0	100
random	6	1	87	1489443	4	4	4	1	0	936	1	4	0	192	87	0	0	100
random	6	1	88	1491139	2	1	1	1	0	800	1	4	0	168	88	0	0	100
random	6	1	89	1492257	6	4	4	1	0	1089	1	4	0	192	89	0	0	100
random	6	1	90	1494167	3	3	3	1	0	880	1	4	0	184	90	0	0	100
random	6	1	91	1495551	5	4	4	1	0	1365	1	4	0	192	91	0	0	100
random	6	1	92	1497284	1	2	2	1	0	1100	1	4	0	176	92	0	0	100
random	6	1	93	1499273	5	1	1	1	0	895	1	4	0	168	93	0	0	100
random	6	1	94	1501175	4	3	3	1	0	807	1	4	0	184	94	0	0	100
random	6	1	95	1502739	6	1	1	1	0	925	1	4	0	168	95	0	0	100
random	6	1	96	1504133	2	2	2	1	0	1193	1	4	0	176	96	0	0	100
random	6	1	97	1506423	4	3	3	1	0	776	1	4	0	184	97	0	0	100
random	6	1	98	1508112	3	2	2	1	0	1161	1	4	0	176	98	0	0	100
random	6	1	99	1509867	6	3	3	1	0	1135	1	4	0	184	99	0	0	100
random	6	1	100	1511539	1	4	4	1	0	912	1	4	0	192	100	0	0	100
random	6	1	101	1513183	4	1	1	1	0	835	1	4	0	168	101	0	0	100
random	6	1	102	1514419	5	2	2	1	0	1070	1	4	0	176	102	0	0	100
random	6	1	103	1516365	2	4	4	1	0	707	1	4	0	192	103	0	0	100
random	6	1	104	1517992	3	1	1	1	0	1159	1	4	0	168	104	0	0	100
random	6	1	105	1519680	1	3	3	1	0	1311	1	4	0	184	105	0	0	100
random	6	1	106	1521685	2	2	2	1	0	802	1	4	0	176	106	0	0	100
random	6	1	107	1523360	5	4	4	1	0	980	1	4	0	192	107	0	0	100
random	6	1	108	1525078	6	1	1	1	0	1139	1	4	0	168	108	0	0	100
random	6	1	109	1526790	5	4	4	1	0	922	1	4	0	192	109	0	0	100
random	6	1	110	1528393	6	3	3	1	0	966	1	4	0	184	110	0	0	100
random	6	1	111	1529709	2	2	2	1	0	1127	1	4	0	176	111	0	0	100
random	6	1	112	1531453	3	1	1	1	0	804	1	4	0	168	112	0	0	100
random	6	1	113	1532939	1	2	2	1	0	933	1	4	0	176	113	0	0	100
random	6	1	114	1534688	2	3	3	1	0	732	1	4	0	184	114	0	0	100
random	6	1	115	1535846	3	1	1	1	0	1010	1	4	0	168	115	0	0	100
random	6	1	116	1537704	4	4	4	1	0	612	1	4	0	192	116	0	0	100
random	6	1	117	1538695	6	1	1	1	0	1026	1	4	0	168	117	0	0	100
random	6	1	118	1540233	5	3	3	1	0	889	1	4	0	184	118	0	0	100
random	6	1	119	1541901	1	4	4	1	0	690	1	4	0	192	119	0	0	100
random	6	1	120	1543540	4	2	2	1	0	1061	1	4	0	176	120	0	0	100
fixed	7	1	1	1545718	4	1	1	1	0	856	1	4	0	200	1	0	0	100
fixed	7	1	2	1547265	1	2	2	1	0	855	1	4	0	208	2	0	0	100
fixed	7	1	3	1549158	6	4	0	0	2	0	3	4	0	224	2	0	1	67
fixed	7	1	4	1552299	2	1	1	1	0	906	1	4	0	200	3	0	1	75
fixed	7	1	5	1554233	5	3	3	1	0	888	1	4	0	216	4	0	1	80
fixed	7	1	6	1555494	6	4	4	1	0	1122	1	4	0	224	5	0	1	83
fixed	7	1	7	1557507	3	1	1	1	0	869	1	4	0	200	6	0	1	86
fixed	7	1	8	1559291	2	3	3	1	0	977	1	4	0	216	7	0	1	88
fixed	7	1	9	1560815	3	2	2	1	0	961	1	4	0	208	8	0	1	89
fixed	7	1	10	1562444	1	4	4	1	0	708	1	4	0	224	9	0	1	90
fixed	7	1	11	1563538	5	2	2	1	0	1030	1	4	0	208	10	0	1	91
fixed	7	1	12	1564889	4	3	3	1	0	916	1	4	0	216	11	0	1	92
fixed	7	2	1	1566638	4	1	1	1	0	786	1	4	0	200	1	0	0	8
fixed	7	2	2	1567979	1	2	2	1	0	977	1	4	0	208	2	0	0	14
fixed	7	2	3	1569491	6	4	4	1	0	986	1	4	0	224	3	0	0	20
fixed	7	2	4	1570975	2	1	1	1	0	867	1	4	0	200	4	0	0	25
fixed	7	2	5	1572542	5	3	3	1	0	888	1	4	0	216	5	0	0	29
fixed	7	2	6	1574049	6	4	4	1	0	969	1	4	0	224	6	0	0	33
fixed	7	2	7	1576011	3	1	1	1	0	1013	1	4	0	200	7	0	0	37
fixed	7	2	8	1577755	2	3	3	1	0	1067	1	4	0	216	8	0	0	40
fixed	7	2	9	1579441	3	2	2	1	0	892	1	4	0	208	9	0	0	43
fixed	7	2	10	1580632	1	4	4	1	0	1082	1	4	0	224	10	0	0	45
fixed	7	2	11	1582241	5	2	2	1	0	1389	1	4	0	208	11	0	0	48
fixed	7	2	12	1584493	4	3	3	1	0	782	1	4	0	216	12	0	0	50
fixed	7	3	1	1586420	4	1	1	1	0	788	1	4	0	200	1	0	0	4
fixed	7	3	2	1587836	1	2	2	1	0	1137	1	4	0	208	2	0	0	8
fixed	7	3	3	1589303	6	4	4	1	0	1019	1	4	0	224	3	0	0	11
fixed	7	3	4	1590662	2	1	1	1	0	984	1	4	0	200	4	0	0	14
fixed	7	3	5	1591966	5	3	3	1	0	1169	1	4	0	216	5	0	0	17
fixed	7	3	6	1593715	6	4	4	1	0	1184	1	4	0	224	6	0	0	20
fixed	7	3	7	1595824	3	1	1	1	0	758	1	4	0	200	7	0	0	23
fixed	7	3	8	1596948	2	3	3	1	0	974	1	4	0	216	8	0	0	25
fixed	7	3	9	1598493	3	2	2	1	0	1037	1	4	0	208	9	0	0	27
fixed	7	3	10	1600288	1	4	4	1	0	689	1	4	0	224	10	0	0	29
fixed	7	3	11	1601345	5	2	2	1	0	1060	1	4	0	208	11	0	0	31
fixed	7	3	12	1603013	4	3	3	1	0	790	1	4	0	216	12	0	0	33
fixed	7	4	1	1604414	4	1	1	1	0	794	1	4	0	200	1	0	0	3
fixed	7	4	2	1605877	1	2	2	1	0	917	1	4	0	208	2	0	0	5
fixed	7	4	3	1607347	6	4	4	1	0	806	1	4	0	224	3	0	0	8
fixed	7	4	4	1608883	2	1	1	1	0	1269	1	4	0	200	4	0	0	10
fixed	7	4	5	1610936	5	3	3	1	0	798	1	4	0	216	5	0	0	12
fixed	7	4	6	1612585	6	4	4	1	0	664	1	4	0	224	6	0	0	14
fixed	7	4	7	1614054	3	1	1	1	0	930	1	4	0	200	7	0	0	16
fixed	7	4	8	1615886	2	3	3	1	0	981	1	4	0	216	8	0	0	18
fixed	7	4	9	1617522	3	2	2	1	0	999	1	4	0	208	9	0	0	20
fixed	7	4	10	1618865	1	4	4	1	0	1006	1	4	0	224	10	0	0	22
fixed	7	4	11	1620473	5	2	2	1	0	1146	1	4	0	208	11	0	0	23
fixed	7	4	12	1622410	4	3	3	1	0	592	1	4	0	216	12	0	0	25
fixed	7	5	1	1623728	4	1	1	1	0	792	1	4	0	200	1	0	0	2
fixed	7	5	2	1625355	1	2	2	1	0	907	1	4	0	208	2	0	0	4
fixed	7	5	3	1626947	6	4	4	1	0	776	1	4	0	224	3	0	0	6
fixed	7	5	4	1628067	2	1	1	1	0	1145	1	4	0	200	4	0	0	8
fixed	7	5	5	1630057	5	3	3	1	0	821	1	4	0	216	5	0	0	9
fixed	7	5	6	1631480	6	4	4	1	0	728	1	4	0	224	6	0	0	11
fixed	7	5	7	1633088	3	1	1	1	0	772	1	4	0	200	7	0	0	13
fixed	7	5	8	1634606	2	3	3	1	0	995	1	4	0	216	8	0	0	14
fixed	7	5	9	1636300	3	2	2	1	0	1044	1	4	0	208	9	0	0	16
fixed	7	5	10	1637709	1	4	4	1	0	912	1	4	0	224	10	0	0	17
fixed	7	5	11	1639204	5	2	0	0	2	0	3	4	0	208	10	0	1	17
fixed	7	5	12	1642453	4	3	3	1	0	1535	1	4	0	216	11	0	1	18
fixed	7	6	1	1644529	4	1	1	1	0	727	1	4	0	200	1	0	0	2
fixed	7	6	2	1645597	1	2	2	1	0	986	1	4	0	208	2	0	0	3
fixed	7	6	3	1647398	6	4	4	1	0	670	1	4	0	224	3	0	0	5
fixed	7	6	4	1648654	2	1	1	1	0	744	1	4	0	200	4	0	0	6
fixed	7	6	5	1649895	5	3	3	1	0	780	1	4	0	216	5	0	0	8
fixed	7	6	6	1651449	6	4	4	1	0	714	1	4	0	224	6	0	0	9
fixed	7	6	7	1652533	3	1	1	1	0	860	1	4	0	200	7	0	0	10
fixed	7	6	8	1653939	2	3	3	1	0	889	1	4	0	216	8	0	0	12
fixed	7	6	9	1655572	3	2	2	1	0	691	1	4	0	208	9	0	0	13
fixed	7	6	10	1656937	1	4	4	1	0	714	1	4	0	224	10	0	0	14
fixed	7	6	11	1658026	5	2	2	1	0	956	1	4	0	208	11	0	0	15
fixed	7	6	12	1659491	4	3	3	1	0	790	1	4	0	216	12	0	0	17
fixed	7	7	1	1661404	4	1	1	1	0	852	1	4	0	200	1	0	0	1
fixed	7	7	2	1663120	1	2	2	1	0	788	1	4	0	208	2	0	0	3
fixed	7	7	3	1664437	6	4	4	1	0	740	1	4	0	224	3	0	0	4
fixed	7	7	4	1665778	2	1	1	1	0	884	1	4	0	200	4	0	0	5
fixed	7	7	5	1667158	5	3	3	1	0	905	1	4	0	216	5	0	0	6
fixed	7	7	6	1668832	6	4	4	1	0	602	1	4	0	224	6	0	0	8
fixed	7	7	7	1670108	3	1	1	1	0	804	1	4	0	200	7	0	0	9
fixed	7	7	8	1671752	2	3	3	1	0	1078	1	4	0	216	8	0	0	10
fixed	7	7	9	1673250	3	2	2	1	0	903	1	4	0	208	9	0	0	11
fixed	7	7	10	1674739	1	4	4	1	0	760	1	4	0	224	10	0	0	12
fixed	7	7	11	1676100	5	2	2	1	0	934	1	4	0	208	11	0	0	13
fixed	7	7	12	1677589	4	3	3	1	0	951	1	4	0	216	12	0	0	14
fixed	7	8	1	1679665	4	1	1	1	0	767	1	4	0	200	1	0	0	1
fixed	7	8	2	1680908	1	2	2	1	0	874	1	4	0	208	2	0	0	2
fixed	7	8	3	1682257	6	4	4	1	0	761	1	4	0	224	3	0	0	3
fixed	7	8	4	1683885	2	1	1	1	0	764	1	4	0	200	4	0	0	5
fixed	7	8	5	1685416	5	3	3	1	0	947	1	4	0	216	5	0	0	6
fixed	7	8	6	1686853	6	4	4	1	0	847	1	4	0	224	6	0	0	7
fixed	7	8	7	1688360	3	1	1	1	0	727	1	4	0	200	7	0	0	8
fixed	7	8	8	1689726	2	3	3	1	0	861	1	4	0	216	8	0	0	9
fixed	7	8	9	1691125	3	2	2	1	0	897	1	4	0	208	9	0	0	10
fixed	7	8	10	1692559	1	4	4	1	0	821	1	4	0	224	10	0	0	11
fixed	7	8	11	1694088	5	2	2	1	0	868	1	4	0	208	11	0	0	12
fixed	7	8	12	1695678	4	3	3	1	0	777	1	4	0	216	12	0	0	13
fixed	7	9	1	1697659	4	1	1	1	0	733	1	4	0	200	1	0	0	1
fixed	7	9	2	1699194	1	2	2	1	0	996	1	4	0	208	2	0	0	2
fixed	7	9	3	1701160	6	4	4	1	0	777	1	4	0	224	3	0	0	3
fixed	7	9	4	1702251	2	1	1	1	0	859	1	4	0	200	4	0	0	4
fixed	7	9	5	1703703	5	3	3	1	0	845	1	4	0	216	5	0	0	5
fixed	7	9	6	1704847	6	4	4	1	0	836	1	4	0	224	6	0	0	6
fixed	7	9	7	1706209	3	1	1	1	0	747	1	4	0	200	7	0	0	7
fixed	7	9	8	1707880	2	3	3	1	0	876	1	4	0	216	8	0	0	8
fixed	7	9	9	1709535	3	2	2	1	0	934	1	4	0	208	9	0	0	9
fixed	7	9	10	1711166	1	4	4	1	0	729	1	4	0	224	10	0	0	9
fixed	7	9	11	1712797	5	2	2	1	0	1284	1	4	0	208	11	0	0	10
fixed	7	9	12	1714517	4	3	3	1	0	803	1	4	0	216	12	0	0	11
fixed	7	10	1	1716556	4	1	1	1	0	756	1	4	0	200	1	0	0	1
fixed	7	10	2	1718177	1	2	2	1	0	880	1	4	0	208	2	0	0	2
fixed	7	10	3	1720076	6	4	4	1	0	744	1	4	0	224	3	0	0	3
fixed	7	10	4	1721529	2	1	1	1	0	722	1	4	0	200	4	0	0	4
fixed	7	10	5	1722651	5	3	3	1	0	971	1	4	0	216	5	0	0	4
fixed	7	10	6	1724500	6	4	4	1	0	812	1	4	0	224	6	0	0	5
fixed	7	10	7	1726281	3	1	1	1	0	856	1	4	0	200	7	0	0	6
fixed	7	10	8	1727617	2	3	3	1	0	960	1	4	0	216	8	0	0	7
fixed	7	10	9	1729019	3	2	2	1	0	900	1	4	0	208	9	0	0	8
fixed	7	10	10	1730324	1	4	4	1	0	845	1	4	0	224	10	0	0	8
fixed	7	10	11	1731779	5	2	2	1	0	1048	1	4	0	208	11	0	0	9
fixed	7	10	12	1733821	4	3	3	1	0	753	1	4	0	216	12	0	0	10
