type	block	sequ.	trial	time	Pos.	Color	Button	NumRsp	Resp_1	RT_1	R_Code	Resp_2	RT_2	Trigg.	n_hit	n_inc	n_miss	score_%

random	1	1	1	13689	6	1	1	1	0	580	1	4	0	8	1	0	0	100
random	1	1	2	15239	4	4	4	1	0	579	1	4	0	32	2	0	0	100
random	1	1	3	16318	2	2	2	1	0	925	1	4	0	16	3	0	0	100
random	1	1	4	18070	3	3	3	1	0	411	1	4	0	24	4	0	0	100
random	1	1	5	19484	5	2	2	1	0	975	1	4	0	16	5	0	0	100
random	1	1	6	21222	1	4	4	1	0	702	1	4	0	32	6	0	0	100
random	1	1	7	22738	6	1	1	1	0	773	1	4	0	8	7	0	0	100
random	1	1	8	24402	2	3	3	1	0	687	1	4	0	24	8	0	0	100
random	1	1	9	25393	4	2	2	1	0	949	1	4	0	16	9	0	0	100
random	1	1	10	26692	1	1	1	1	0	870	1	4	0	8	10	0	0	100
random	1	1	11	28131	5	4	4	1	0	361	1	4	0	32	11	0	0	100
random	1	1	12	29387	3	3	3	1	0	900	1	4	0	24	12	0	0	100
random	1	1	13	31317	5	2	2	1	0	674	1	4	0	16	13	0	0	100
random	1	1	14	32894	1	4	4	1	0	631	1	4	0	32	14	0	0	100
random	1	1	15	34281	3	1	1	1	0	860	1	4	0	8	15	0	0	100
random	1	1	16	36118	4	3	3	1	0	823	1	4	0	24	16	0	0	100
random	1	1	17	37322	6	4	4	1	0	996	1	4	0	32	17	0	0	100
random	1	1	18	39068	2	1	1	1	0	569	1	4	0	8	18	0	0	100
random	1	1	19	40393	5	3	3	2	0	1921	2	4	0	24	19	0	0	100
random	1	1	20	43128	2	2	2	1	0	1349	1	4	0	16	20	0	0	100
random	1	1	21	45142	3	3	3	1	0	1000	1	4	0	24	21	0	0	100
random	1	1	22	47044	6	1	1	1	0	848	1	4	0	8	22	0	0	100
random	1	1	23	48625	4	2	2	1	0	1093	1	4	0	16	23	0	0	100
random	1	1	24	50727	1	4	4	1	0	740	1	4	0	32	24	0	0	100
random	1	1	25	52653	4	3	0	2	2	0	3	4	0	24	24	0	1	96
random	1	1	26	56125	2	1	1	1	0	944	1	4	0	8	25	0	1	96
random	1	1	27	58072	5	2	2	1	0	1325	1	4	0	16	26	0	1	96
random	1	1	28	59914	6	4	4	1	0	743	1	4	0	32	27	0	1	96
random	1	1	29	61619	1	3	3	1	0	1047	1	4	0	24	28	0	1	97
random	1	1	30	63309	5	2	2	1	0	759	1	4	0	16	29	0	1	97
random	1	1	31	64598	2	1	1	1	0	776	1	4	0	8	30	0	1	97
random	1	1	32	66138	3	3	3	1	0	1071	1	4	0	24	31	0	1	97
random	1	1	33	67746	6	4	4	1	0	683	1	4	0	32	32	0	1	97
random	1	1	34	69273	4	2	2	1	0	779	1	4	0	16	33	0	1	97
random	1	1	35	70721	3	4	4	1	0	653	1	4	0	32	34	0	1	97
random	1	1	36	72188	1	1	0	2	2	0	3	4	0	8	34	0	2	94
random	1	1	37	75610	3	4	4	1	0	806	1	4	0	32	35	0	2	95
random	1	1	38	77282	5	3	3	1	0	1575	1	4	0	24	36	0	2	95
random	1	1	39	79308	6	1	1	1	0	873	1	4	0	8	37	0	2	95
random	1	1	40	80796	1	2	2	1	0	1618	1	4	0	16	38	0	2	95
random	1	1	41	82813	2	3	3	1	0	477	1	4	0	24	39	0	2	95
random	1	1	42	84147	4	4	4	1	0	612	1	4	0	32	40	0	2	95
random	1	1	43	85218	1	2	2	1	0	1399	1	4	0	16	41	0	2	95
random	1	1	44	87162	6	3	3	1	0	597	1	4	0	24	42	0	2	95
random	1	1	45	88528	3	1	1	1	0	691	1	4	0	8	43	0	2	96
random	1	1	46	89845	4	4	4	1	0	819	1	4	0	32	44	0	2	96
random	1	1	47	91458	2	2	2	1	0	863	1	4	0	16	45	0	2	96
random	1	1	48	93286	5	1	1	1	0	953	1	4	0	8	46	0	2	96
random	1	1	49	95526	2	3	3	1	0	1450	1	4	0	24	47	0	2	96
random	1	1	50	97604	3	1	1	1	0	922	1	4	0	8	48	0	2	96
random	1	1	51	99534	1	4	4	1	0	664	1	4	0	32	49	0	2	96
random	1	1	52	100524	5	3	3	1	0	1031	1	4	0	24	50	0	2	96
random	1	1	53	101938	3	2	2	1	0	699	1	4	0	16	51	0	2	96
random	1	1	54	103131	6	4	4	1	0	1224	1	4	0	32	52	0	2	96
random	1	1	55	104939	4	2	2	1	0	1052	1	4	0	16	53	0	2	96
random	1	1	56	106522	1	1	1	1	0	809	1	4	0	8	54	0	2	96
random	1	1	57	108213	5	4	4	1	0	857	1	4	0	32	55	0	2	96
random	1	1	58	109518	2	1	1	1	0	1522	1	4	0	8	56	0	2	97
random	1	1	59	111800	6	2	2	1	0	969	1	4	0	16	57	0	2	97
random	1	1	60	113779	4	3	3	1	0	957	1	4	0	24	58	0	2	97
random	1	1	61	115324	1	2	2	1	0	1180	1	4	0	16	59	0	2	97
random	1	1	62	117386	6	4	4	1	0	725	1	4	0	32	60	0	2	97
random	1	1	63	118974	4	1	1	1	0	497	1	4	0	8	61	0	2	97
random	1	1	64	119953	2	2	2	1	0	912	1	4	0	16	62	0	2	97
random	1	1	65	121216	4	3	3	1	0	746	1	4	0	24	63	0	2	97
random	1	1	66	122455	3	1	1	1	0	1150	1	4	0	8	64	0	2	97
random	1	1	67	123953	1	3	3	2	0	2094	2	4	0	24	65	0	2	97
random	1	1	68	126479	5	4	4	1	0	996	1	4	0	32	66	0	2	97
random	1	1	69	128112	2	2	2	1	0	1390	1	4	0	16	67	0	2	97
random	1	1	70	130039	3	1	1	1	0	1013	1	4	0	8	68	0	2	97
random	1	1	71	131371	5	4	4	1	0	668	1	4	0	32	69	0	2	97
random	1	1	72	132736	6	3	3	1	0	1194	1	4	0	24	70	0	2	97
random	1	1	73	135106	2	1	1	1	0	1246	1	4	0	8	71	0	2	97
random	1	1	74	136980	5	3	3	1	0	1206	1	4	0	24	72	0	2	97
random	1	1	75	138645	1	4	4	1	0	1432	1	4	0	32	73	0	2	97
random	1	1	76	140951	6	2	2	1	0	958	1	4	0	16	74	0	2	97
random	1	1	77	142534	2	1	1	1	0	892	1	4	0	8	75	0	2	97
random	1	1	78	144272	4	4	4	1	0	1194	1	4	0	32	76	0	2	97
random	1	1	79	145792	3	2	2	1	0	1570	1	4	0	16	77	0	2	97
random	1	1	80	148255	4	3	3	1	0	545	1	4	0	24	78	0	2	98
random	1	1	81	149428	1	4	4	1	0	959	1	4	0	32	79	0	2	98
random	1	1	82	150871	5	1	1	1	0	786	1	4	0	8	80	0	2	98
random	1	1	83	152529	3	2	2	1	0	1100	1	4	0	16	81	0	2	98
random	1	1	84	154576	6	3	3	1	0	821	1	4	0	24	82	0	2	98
random	1	1	85	156258	3	2	2	1	0	1462	1	4	0	16	83	0	2	98
random	1	1	86	158501	1	3	3	1	0	871	1	4	0	24	84	0	2	98
random	1	1	87	160194	4	4	4	1	0	1056	1	4	0	32	85	0	2	98
random	1	1	88	161811	2	1	1	1	0	779	1	4	0	8	86	0	2	98
random	1	1	89	163044	6	4	4	1	0	766	1	4	0	32	87	0	2	98
random	1	1	90	164814	3	3	3	1	0	1035	1	4	0	24	88	0	2	98
random	1	1	91	166535	5	4	4	1	0	883	1	4	0	32	89	0	2	98
random	1	1	92	167961	1	2	2	1	0	1198	1	4	0	16	90	0	2	98
random	1	1	93	169973	5	1	1	1	0	553	1	4	0	8	91	0	2	98
random	1	1	94	171550	4	3	3	1	0	1422	1	4	0	24	92	0	2	98
random	1	1	95	173807	6	1	1	1	0	823	1	4	0	8	93	0	2	98
random	1	1	96	174954	2	2	2	1	0	1030	1	4	0	16	94	0	2	98
random	1	1	97	176875	4	3	3	1	0	1725	1	4	0	24	95	0	2	98
random	1	1	98	178986	3	2	2	1	0	563	1	4	0	16	96	0	2	98
random	1	1	99	180001	6	3	3	2	0	1664	2	4	0	24	97	0	2	98
random	1	1	100	182253	1	4	4	1	0	993	1	4	0	32	98	0	2	98
random	1	1	101	184217	4	1	1	1	0	662	1	4	0	8	99	0	2	98
random	1	1	102	185547	5	2	2	1	0	1181	1	4	0	16	100	0	2	98
random	1	1	103	187235	2	4	4	1	0	718	1	4	0	32	101	0	2	98
random	1	1	104	188869	3	1	1	1	0	848	1	4	0	8	102	0	2	98
random	1	1	105	190229	1	3	3	1	0	807	1	4	0	24	103	0	2	98
random	1	1	106	191492	2	2	2	1	0	1513	1	4	0	16	104	0	2	98
random	1	1	107	194041	5	4	4	1	0	1302	1	4	0	32	105	0	2	98
random	1	1	108	195621	6	1	1	1	0	755	1	4	0	8	106	0	2	98
random	1	1	109	197225	5	4	4	1	0	1383	1	4	0	32	107	0	2	98
random	1	1	110	199007	6	3	3	1	0	1188	1	4	0	24	108	0	2	98
random	1	1	111	201101	2	2	2	1	0	746	1	4	0	16	109	0	2	98
random	1	1	112	202277	3	1	1	1	0	513	1	4	0	8	110	0	2	98
random	1	1	113	203516	1	2	2	1	0	1181	1	4	0	16	111	0	2	98
random	1	1	114	205714	2	3	3	1	0	703	1	4	0	24	112	0	2	98
random	1	1	115	207011	3	1	1	1	0	777	1	4	0	8	113	0	2	98
random	1	1	116	208472	4	4	4	1	0	538	1	4	0	32	114	0	2	98
random	1	1	117	209630	6	1	1	1	0	1146	1	4	0	8	115	0	2	98
random	1	1	118	211540	5	3	3	1	0	1089	1	4	0	24	116	0	2	98
random	1	1	119	213395	1	4	4	1	0	842	1	4	0	32	117	0	2	98
random	1	1	120	214848	4	2	2	1	0	1101	1	4	0	16	118	0	2	98
fixed	2	1	1	217139	4	1	1	1	0	859	1	4	0	40	1	0	0	100
fixed	2	1	2	218924	1	2	2	1	0	1328	1	4	0	48	2	0	0	100
fixed	2	1	3	221125	6	4	4	1	0	843	1	4	0	64	3	0	0	100
fixed	2	1	4	222458	2	1	1	1	0	1186	1	4	0	40	4	0	0	100
fixed	2	1	5	223972	5	3	3	2	0	1658	2	4	0	56	5	0	0	100
fixed	2	1	6	226372	6	4	4	1	0	908	1	4	0	64	6	0	0	100
fixed	2	1	7	227649	3	1	1	1	0	1598	1	4	0	40	7	0	0	100
fixed	2	1	8	230047	2	3	3	1	0	1041	1	4	0	56	8	0	0	100
fixed	2	1	9	231900	3	2	2	1	0	714	1	4	0	48	9	0	0	100
fixed	2	1	10	233222	1	4	4	1	0	1338	1	4	0	64	10	0	0	100
fixed	2	1	11	235378	5	2	2	1	0	1231	1	4	0	48	11	0	0	100
fixed	2	1	12	236980	4	3	3	1	0	803	1	4	0	56	12	0	0	100
fixed	2	2	1	238443	4	1	1	1	0	941	1	4	0	40	13	0	0	100
fixed	2	2	2	239779	1	2	2	1	0	1116	1	4	0	48	14	0	0	100
fixed	2	2	3	241882	6	4	4	1	0	891	1	4	0	64	15	0	0	100
fixed	2	2	4	243482	2	1	1	1	0	880	1	4	0	40	16	0	0	100
fixed	2	2	5	244992	5	3	3	1	0	799	1	4	0	56	17	0	0	100
fixed	2	2	6	246235	6	4	4	1	0	1179	1	4	0	64	18	0	0	100
fixed	2	2	7	248182	3	1	1	1	0	888	1	4	0	40	19	0	0	100
fixed	2	2	8	250000	2	3	3	1	0	1516	1	4	0	56	20	0	0	100
fixed	2	2	9	252420	3	2	2	1	0	645	1	4	0	48	21	0	0	100
fixed	2	2	10	253633	1	4	4	1	0	554	1	4	0	64	22	0	0	100
fixed	2	2	11	255198	5	2	2	1	0	1064	1	4	0	48	23	0	0	100
fixed	2	2	12	256787	4	3	3	1	0	1188	1	4	0	56	24	0	0	100
fixed	2	3	1	258760	4	1	1	1	0	776	1	4	0	40	25	0	0	100
fixed	2	3	2	259901	1	2	2	1	0	1536	1	4	0	48	26	0	0	100
fixed	2	3	3	262029	6	4	4	1	0	766	1	4	0	64	27	0	0	100
fixed	2	3	4	263671	2	1	1	1	0	752	1	4	0	40	28	0	0	100
fixed	2	3	5	265010	5	3	3	1	0	1144	1	4	0	56	29	0	0	100
fixed	2	3	6	267022	6	4	4	1	0	747	1	4	0	64	30	0	0	100
fixed	2	3	7	268528	3	1	1	1	0	1307	1	4	0	40	31	0	0	100
fixed	2	3	8	270464	2	3	3	1	0	881	1	4	0	56	32	0	0	100
fixed	2	3	9	272365	3	2	2	1	0	648	1	4	0	48	33	0	0	100
fixed	2	3	10	273800	1	4	4	1	0	835	1	4	0	64	34	0	0	100
fixed	2	3	11	275109	5	2	2	1	0	988	1	4	0	48	35	0	0	100
fixed	2	3	12	276923	4	3	3	1	0	1167	1	4	0	56	36	0	0	100
fixed	2	4	1	279310	4	1	1	1	0	1762	1	4	0	40	37	0	0	100
fixed	2	4	2	281740	1	2	2	1	0	1379	1	4	0	48	38	0	0	100
fixed	2	4	3	283724	6	4	4	1	0	927	1	4	0	64	39	0	0	100
fixed	2	4	4	285590	2	1	1	1	0	992	1	4	0	40	40	0	0	100
fixed	2	4	5	287576	5	3	3	1	0	836	1	4	0	56	41	0	0	100
fixed	2	4	6	288745	6	4	4	1	0	915	1	4	0	64	42	0	0	100
fixed	2	4	7	290533	3	1	1	1	0	855	1	4	0	40	43	0	0	100
fixed	2	4	8	292304	2	3	3	1	0	924	1	4	0	56	44	0	0	100
fixed	2	4	9	293672	3	2	2	1	0	666	1	4	0	48	45	0	0	100
fixed	2	4	10	295356	1	4	4	1	0	811	1	4	0	64	46	0	0	100
fixed	2	4	11	296951	5	2	2	1	0	991	1	4	0	48	47	0	0	100
fixed	2	4	12	298573	4	3	3	1	0	778	1	4	0	56	48	0	0	100
fixed	2	5	1	300629	4	1	1	1	0	1811	1	4	0	40	49	0	0	100
fixed	2	5	2	302845	1	2	2	1	0	1341	1	4	0	48	50	0	0	100
fixed	2	5	3	304632	6	4	4	1	0	882	1	4	0	64	51	0	0	100
fixed	2	5	4	306214	2	1	1	1	0	1111	1	4	0	40	52	0	0	100
fixed	2	5	5	308050	5	3	3	1	0	977	1	4	0	56	53	0	0	100
fixed	2	5	6	309377	6	4	4	1	0	1417	1	4	0	64	54	0	0	100
fixed	2	5	7	311241	3	1	1	1	0	1034	1	4	0	40	55	0	0	100
fixed	2	5	8	313103	2	3	3	1	0	1243	1	4	0	56	56	0	0	100
fixed	2	5	9	314854	3	2	2	1	0	633	1	4	0	48	57	0	0	100
fixed	2	5	10	316194	1	4	4	1	0	768	1	4	0	64	58	0	0	100
fixed	2	5	11	317450	5	2	2	1	0	1331	1	4	0	48	59	0	0	100
fixed	2	5	12	319431	4	3	3	1	0	543	1	4	0	56	60	0	0	100
fixed	2	6	1	320578	4	1	1	1	0	966	1	4	0	40	61	0	0	100
fixed	2	6	2	322046	1	2	2	1	0	1184	1	4	0	48	62	0	0	100
fixed	2	6	3	323655	6	4	4	1	0	1068	1	4	0	64	63	0	0	100
fixed	2	6	4	325418	2	1	1	1	0	913	1	4	0	40	64	0	0	100
fixed	2	6	5	326903	5	3	3	1	0	986	1	4	0	56	65	0	0	100
fixed	2	6	6	328295	6	4	4	1	0	1039	1	4	0	64	66	0	0	100
fixed	2	6	7	330338	3	1	1	1	0	705	1	4	0	40	67	0	0	100
fixed	2	6	8	331713	2	3	3	1	0	911	1	4	0	56	68	0	0	100
fixed	2	6	9	332997	3	2	2	1	0	808	1	4	0	48	69	0	0	100
fixed	2	6	10	334400	1	4	4	1	0	749	1	4	0	64	70	0	0	100
fixed	2	6	11	335986	5	2	2	1	0	1249	1	4	0	48	71	0	0	100
fixed	2	6	12	338067	4	3	3	1	0	1226	1	4	0	56	72	0	0	100
fixed	2	7	1	339909	4	1	1	1	0	803	1	4	0	40	73	0	0	100
fixed	2	7	2	341577	1	2	2	1	0	1476	1	4	0	48	74	0	0	100
fixed	2	7	3	343458	6	4	4	1	0	813	1	4	0	64	75	0	0	100
fixed	2	7	4	344586	2	1	1	1	0	1197	1	4	0	40	76	0	0	100
fixed	2	7	5	346099	5	3	3	1	0	973	1	4	0	56	77	0	0	100
fixed	2	7	6	347616	6	4	4	1	0	837	1	4	0	64	78	0	0	100
fixed	2	7	7	348751	3	1	1	1	0	1077	1	4	0	40	79	0	0	100
fixed	2	7	8	350187	2	3	3	2	0	1808	2	4	0	56	80	0	0	100
fixed	2	7	9	352954	3	2	2	1	0	627	1	4	0	48	81	0	0	100
fixed	2	7	10	354235	1	4	4	1	0	645	1	4	0	64	82	0	0	100
fixed	2	7	11	355562	5	2	2	1	0	1316	1	4	0	48	83	0	0	100
fixed	2	7	12	357908	4	3	3	1	0	985	1	4	0	56	84	0	0	100
fixed	2	8	1	360175	4	1	1	1	0	809	1	4	0	40	85	0	0	100
fixed	2	8	2	361703	1	2	2	1	0	992	1	4	0	48	86	0	0	100
fixed	2	8	3	363621	6	4	4	1	0	839	1	4	0	64	87	0	0	100
fixed	2	8	4	365110	2	1	1	1	0	848	1	4	0	40	88	0	0	100
fixed	2	8	5	366465	5	3	3	1	0	943	1	4	0	56	89	0	0	100
fixed	2	8	6	368080	6	4	4	1	0	1018	1	4	0	64	90	0	0	100
fixed	2	8	7	369564	3	1	1	1	0	891	1	4	0	40	91	0	0	100
fixed	2	8	8	371390	2	3	3	1	0	1390	1	4	0	56	92	0	0	100
fixed	2	8	9	373332	3	2	2	1	0	740	1	4	0	48	93	0	0	100
fixed	2	8	10	374785	1	4	4	1	0	798	1	4	0	64	94	0	0	100
fixed	2	8	11	376601	5	2	2	1	0	1113	1	4	0	48	95	0	0	100
fixed	2	8	12	378590	4	3	3	1	0	501	1	4	0	56	96	0	0	100
fixed	2	9	1	380074	4	1	1	1	0	782	1	4	0	40	97	0	0	100
fixed	2	9	2	381807	1	2	2	1	0	1141	1	4	0	48	98	0	0	100
fixed	2	9	3	383459	6	4	4	1	0	831	1	4	0	64	99	0	0	100
fixed	2	9	4	385060	2	1	1	1	0	1075	1	4	0	40	100	0	0	100
fixed	2	9	5	386901	5	3	3	1	0	853	1	4	0	56	101	0	0	100
fixed	2	9	6	388585	6	4	4	1	0	774	1	4	0	64	102	0	0	100
fixed	2	9	7	390251	3	1	1	1	0	1111	1	4	0	40	103	0	0	100
fixed	2	9	8	392160	2	3	3	1	0	934	1	4	0	56	104	0	0	100
fixed	2	9	9	394061	3	2	2	1	0	1334	1	4	0	48	105	0	0	100
fixed	2	9	10	396230	1	4	4	1	0	802	1	4	0	64	106	0	0	100
fixed	2	9	11	397926	5	2	2	1	0	1234	1	4	0	48	107	0	0	100
fixed	2	9	12	399521	4	3	3	1	0	894	1	4	0	56	108	0	0	100
fixed	2	10	1	401510	4	1	1	1	0	1130	1	4	0	40	109	0	0	100
fixed	2	10	2	403163	1	2	2	1	0	1364	1	4	0	48	110	0	0	100
fixed	2	10	3	405425	6	4	4	1	0	804	1	4	0	64	111	0	0	100
fixed	2	10	4	406765	2	1	1	1	0	852	1	4	0	40	112	0	0	100
fixed	2	10	5	408005	5	3	3	1	0	911	1	4	0	56	113	0	0	100
fixed	2	10	6	409713	6	4	4	1	0	871	1	4	0	64	114	0	0	100
fixed	2	10	7	411355	3	1	1	1	0	785	1	4	0	40	115	0	0	100
fixed	2	10	8	412606	2	3	3	1	0	932	1	4	0	56	116	0	0	100
fixed	2	10	9	414382	3	2	2	1	0	921	1	4	0	48	117	0	0	100
fixed	2	10	10	415596	1	4	4	1	0	958	1	4	0	64	118	0	0	100
fixed	2	10	11	417332	5	2	2	1	0	1212	1	4	0	48	119	0	0	100
fixed	2	10	12	419091	4	3	3	1	0	562	1	4	0	56	120	0	0	100
fixed	3	1	1	420688	4	1	1	1	0	2174	1	4	0	72	1	0	0	100
fixed	3	1	2	423476	1	2	2	1	0	928	1	4	0	80	2	0	0	100
fixed	3	1	3	425430	6	4	4	1	0	750	1	4	0	96	3	0	0	100
fixed	3	1	4	427178	2	1	1	1	0	1019	1	4	0	72	4	0	0	100
fixed	3	1	5	428558	5	3	3	1	0	1104	1	4	0	88	5	0	0	100
fixed	3	1	6	430691	6	4	4	1	0	1007	1	4	0	96	6	0	0	100
fixed	3	1	7	432523	3	1	1	1	0	937	1	4	0	72	7	0	0	100
fixed	3	1	8	434387	2	3	3	1	0	954	1	4	0	88	8	0	0	100
fixed	3	1	9	435937	3	2	2	1	0	672	1	4	0	80	9	0	0	100
fixed	3	1	10	436911	1	4	4	1	0	1143	1	4	0	96	10	0	0	100
fixed	3	1	11	438625	5	2	2	1	0	1046	1	4	0	80	11	0	0	100
fixed	3	1	12	440584	4	3	3	2	0	1252	2	4	0	88	12	0	0	100
fixed	3	2	1	442895	4	1	1	1	0	1441	1	4	0	72	13	0	0	100
fixed	3	2	2	445059	1	2	2	1	0	1286	1	4	0	80	14	0	0	100
fixed	3	2	3	447046	6	4	4	1	0	1042	1	4	0	96	15	0	0	100
fixed	3	2	4	448828	2	1	1	1	0	846	1	4	0	72	16	0	0	100
fixed	3	2	5	450192	5	3	3	1	0	1357	1	4	0	88	17	0	0	100
fixed	3	2	6	452215	6	4	4	1	0	830	1	4	0	96	18	0	0	100
fixed	3	2	7	453826	3	1	1	1	0	2002	1	4	0	72	19	0	0	100
fixed	3	2	8	456504	2	3	3	1	0	1009	1	4	0	88	20	0	0	100
fixed	3	2	9	458129	3	2	2	1	0	1109	1	4	0	80	21	0	0	100
fixed	3	2	10	459582	1	4	4	1	0	839	1	4	0	96	22	0	0	100
fixed	3	2	11	461308	5	2	2	1	0	1453	1	4	0	80	23	0	0	100
fixed	3	2	12	463748	4	3	3	1	0	566	1	4	0	88	24	0	0	100
fixed	3	3	1	464932	4	1	1	1	0	1004	1	4	0	72	25	0	0	100
fixed	3	3	2	466366	1	2	2	1	0	1167	1	4	0	80	26	0	0	100
fixed	3	3	3	468570	6	4	4	1	0	1074	1	4	0	96	27	0	0	100
fixed	3	3	4	470570	2	1	1	1	0	821	1	4	0	72	28	0	0	100
fixed	3	3	5	472407	5	3	3	2	0	1711	2	4	0	88	29	0	0	100
fixed	3	3	6	475014	6	4	4	1	0	913	1	4	0	96	30	0	0	100
fixed	3	3	7	476497	3	1	1	1	0	818	1	4	0	72	31	0	0	100
fixed	3	3	8	477619	2	3	3	1	0	883	1	4	0	88	32	0	0	100
fixed	3	3	9	478959	3	2	2	1	0	914	1	4	0	80	33	0	0	100
fixed	3	3	10	480499	1	4	4	1	0	1105	1	4	0	96	34	0	0	100
fixed	3	3	11	481973	5	2	0	2	2	0	3	4	0	80	34	0	1	97
fixed	3	3	12	485315	4	3	3	1	0	1964	1	4	0	88	35	0	1	97
fixed	3	4	1	487955	4	1	1	1	0	973	1	4	0	72	36	0	1	97
fixed	3	4	2	489378	1	2	2	1	0	1609	1	4	0	80	37	0	1	97
fixed	3	4	3	491901	6	4	4	1	0	838	1	4	0	96	38	0	1	97
fixed	3	4	4	493536	2	1	1	1	0	840	1	4	0	72	39	0	1	98
fixed	3	4	5	495125	5	3	3	1	0	901	1	4	0	88	40	0	1	98
fixed	3	4	6	496565	6	4	4	1	0	1024	1	4	0	96	41	0	1	98
fixed	3	4	7	498545	3	1	1	1	0	1573	1	4	0	72	42	0	1	98
fixed	3	4	8	500947	2	3	3	1	0	1175	1	4	0	88	43	0	1	98
fixed	3	4	9	502667	3	2	2	1	0	830	1	4	0	80	44	0	1	98
fixed	3	4	10	503947	1	4	4	1	0	783	1	4	0	96	45	0	1	98
fixed	3	4	11	505489	5	2	2	1	0	1094	1	4	0	80	46	0	1	98
fixed	3	4	12	507556	4	3	3	1	0	1623	1	4	0	88	47	0	1	98
fixed	3	5	1	510310	4	1	1	1	0	922	1	4	0	72	48	0	1	98
fixed	3	5	2	512058	1	2	2	1	0	1096	1	4	0	80	49	0	1	98
fixed	3	5	3	514184	6	4	4	1	0	894	1	4	0	96	50	0	1	98
fixed	3	5	4	515701	2	1	1	1	0	1166	1	4	0	72	51	0	1	98
fixed	3	5	5	517578	5	3	3	1	0	1238	1	4	0	88	52	0	1	98
fixed	3	5	6	519275	6	4	4	1	0	1503	1	4	0	96	53	0	1	98
fixed	3	5	7	521771	3	1	1	1	0	1676	1	4	0	72	54	0	1	98
fixed	3	5	8	524342	2	3	3	1	0	1327	1	4	0	88	55	0	1	98
fixed	3	5	9	526461	3	2	2	1	0	766	1	4	0	80	56	0	1	98
fixed	3	5	10	528117	1	4	4	1	0	1056	1	4	0	96	57	0	1	98
fixed	3	5	11	529475	5	2	2	1	0	1550	1	4	0	80	58	0	1	98
fixed	3	5	12	531480	4	3	3	1	0	921	1	4	0	88	59	0	1	98
fixed	3	6	1	533484	4	1	1	1	0	1220	1	4	0	72	60	0	1	98
fixed	3	6	2	535456	1	2	2	1	0	1201	1	4	0	80	61	0	1	98
fixed	3	6	3	537010	6	4	4	1	0	951	1	4	0	96	62	0	1	98
fixed	3	6	4	538421	2	1	1	1	0	972	1	4	0	72	63	0	1	98
fixed	3	6	5	539996	5	3	3	1	0	1473	1	4	0	88	64	0	1	98
fixed	3	6	6	542252	6	4	4	1	0	938	1	4	0	96	65	0	1	98
fixed	3	6	7	544035	3	1	1	1	0	1718	1	4	0	72	66	0	1	99
fixed	3	6	8	546095	2	3	3	1	0	1599	1	4	0	88	67	0	1	99
fixed	3	6	9	548255	3	2	2	1	0	795	1	4	0	80	68	0	1	99
fixed	3	6	10	549557	1	4	4	1	0	1660	1	4	0	96	69	0	1	99
fixed	3	6	11	551958	5	2	2	1	0	1062	1	4	0	80	70	0	1	99
fixed	3	6	12	553525	4	3	3	1	0	996	1	4	0	88	71	0	1	99
fixed	3	7	1	555187	4	1	1	1	0	1173	1	4	0	72	72	0	1	99
fixed	3	7	2	556895	1	2	2	1	0	1069	1	4	0	80	73	0	1	99
fixed	3	7	3	558493	6	4	4	1	0	1089	1	4	0	96	74	0	1	99
fixed	3	7	4	559995	2	1	1	1	0	1874	1	4	0	72	75	0	1	99
fixed	3	7	5	562878	5	3	3	1	0	952	1	4	0	88	76	0	1	99
fixed	3	7	6	564649	6	4	4	1	0	1013	1	4	0	96	77	0	1	99
fixed	3	7	7	566148	3	1	1	1	0	1269	1	4	0	72	78	0	1	99
fixed	3	7	8	567898	2	3	3	1	0	947	1	4	0	88	79	0	1	99
fixed	3	7	9	569432	3	2	2	1	0	914	1	4	0	80	80	0	1	99
fixed	3	7	10	570713	1	4	4	1	0	1004	1	4	0	96	81	0	1	99
fixed	3	7	11	572697	5	2	2	1	0	1264	1	4	0	80	82	0	1	99
fixed	3	7	12	574511	4	3	3	1	0	1275	1	4	0	88	83	0	1	99
fixed	3	8	1	576606	4	1	1	1	0	1418	1	4	0	72	84	0	1	99
fixed	3	8	2	578602	1	2	2	1	0	1270	1	4	0	80	85	0	1	99
fixed	3	8	3	580751	6	4	4	1	0	834	1	4	0	96	86	0	1	99
fixed	3	8	4	582140	2	1	1	1	0	1272	1	4	0	72	87	0	1	99
fixed	3	8	5	584072	5	3	3	1	0	1038	1	4	0	88	88	0	1	99
fixed	3	8	6	585553	6	4	4	1	0	1135	1	4	0	96	89	0	1	99
fixed	3	8	7	587709	3	1	1	1	0	1580	1	4	0	72	90	0	1	99
fixed	3	8	8	590246	2	3	3	1	0	944	1	4	0	88	91	0	1	99
fixed	3	8	9	592152	3	2	2	1	0	704	1	4	0	80	92	0	1	99
fixed	3	8	10	593781	1	4	4	1	0	890	1	4	0	96	93	0	1	99
fixed	3	8	11	595086	5	2	2	1	0	1411	1	4	0	80	94	0	1	99
fixed	3	8	12	596893	4	3	3	1	0	607	1	4	0	88	95	0	1	99
fixed	3	9	1	598543	4	1	1	1	0	1033	1	4	0	72	96	0	1	99
fixed	3	9	2	600146	1	2	2	1	0	1501	1	4	0	80	97	0	1	99
fixed	3	9	3	602463	6	4	4	1	0	947	1	4	0	96	98	0	1	99
fixed	3	9	4	604369	2	1	1	2	0	2082	2	4	0	72	99	0	1	99
fixed	3	9	5	607453	5	3	3	1	0	1320	1	4	0	88	100	0	1	99
fixed	3	9	6	609439	6	4	4	1	0	1075	1	4	0	96	101	0	1	99
fixed	3	9	7	611011	3	1	1	1	0	1105	1	4	0	72	102	0	1	99
fixed	3	9	8	612734	2	3	3	1	0	1432	1	4	0	88	103	0	1	99
fixed	3	9	9	614728	3	2	2	1	0	2212	1	4	0	80	104	0	1	99
fixed	3	9	10	617643	1	4	4	1	0	800	1	4	0	96	105	0	1	99
fixed	3	9	11	618896	5	2	0	0	2	0	3	4	0	80	105	0	2	98
fixed	3	9	12	621931	4	3	0	0	2	0	3	4	0	88	105	0	3	97
fixed	3	10	1	625693	4	1	1	1	0	859	1	4	0	72	106	0	3	97
fixed	3	10	2	627567	1	2	2	1	0	1236	1	4	0	80	107	0	3	97
fixed	3	10	3	629641	6	4	4	1	0	724	1	4	0	96	108	0	3	97
fixed	3	10	4	631405	2	1	1	1	0	1377	1	4	0	72	109	0	3	97
fixed	3	10	5	633648	5	3	3	1	0	874	1	4	0	88	110	0	3	97
fixed	3	10	6	635494	6	4	4	1	0	884	1	4	0	96	111	0	3	97
fixed	3	10	7	637294	3	1	1	1	0	1528	1	4	0	72	112	0	3	97
fixed	3	10	8	639629	2	3	3	1	0	1717	1	4	0	88	113	0	3	97
fixed	3	10	9	641825	3	2	2	1	0	688	1	4	0	80	114	0	3	97
fixed	3	10	10	642893	1	4	4	1	0	907	1	4	0	96	115	0	3	97
fixed	3	10	11	644479	5	2	2	1	0	1295	1	4	0	80	116	0	3	97
fixed	3	10	12	646619	4	3	3	1	0	925	1	4	0	88	117	0	3	98
fixed	4	1	1	871327	4	1	1	1	0	895	1	4	0	104	1	0	0	100
fixed	4	1	2	872656	1	2	2	1	0	1023	1	4	0	112	2	0	0	100
fixed	4	1	3	873986	6	4	4	1	0	734	1	4	0	128	3	0	0	100
fixed	4	1	4	875546	2	1	1	1	0	829	1	4	0	104	4	0	0	100
fixed	4	1	5	876809	5	3	3	1	0	767	1	4	0	120	5	0	0	100
fixed	4	1	6	878455	6	4	4	1	0	945	1	4	0	128	6	0	0	100
fixed	4	1	7	879704	3	1	1	1	0	1292	1	4	0	104	7	0	0	100
fixed	4	1	8	881293	2	3	3	1	0	865	1	4	0	120	8	0	0	100
fixed	4	1	9	882773	3	2	2	1	0	626	1	4	0	112	9	0	0	100
fixed	4	1	10	884098	1	4	4	1	0	738	1	4	0	128	10	0	0	100
fixed	4	1	11	885138	5	2	2	1	0	1462	1	4	0	112	11	0	0	100
fixed	4	1	12	887607	4	3	3	1	0	646	1	4	0	120	12	0	0	100
fixed	4	2	1	888839	4	1	1	1	0	833	1	4	0	104	13	0	0	100
fixed	4	2	2	890660	1	2	2	1	0	1316	1	4	0	112	14	0	0	100
fixed	4	2	3	892909	6	4	4	1	0	589	1	4	0	128	15	0	0	100
fixed	4	2	4	894334	2	1	1	1	0	704	1	4	0	104	16	0	0	100
fixed	4	2	5	895829	5	3	3	1	0	1161	1	4	0	120	17	0	0	100
fixed	4	2	6	897884	6	4	4	1	0	866	1	4	0	128	18	0	0	100
fixed	4	2	7	899343	3	1	1	1	0	1069	1	4	0	104	19	0	0	100
fixed	4	2	8	901218	2	3	3	1	0	2181	1	4	0	120	20	0	0	100
fixed	4	2	9	903796	3	2	2	1	0	568	1	4	0	112	21	0	0	100
fixed	4	2	10	904785	1	4	4	1	0	782	1	4	0	128	22	0	0	100
fixed	4	2	11	905946	5	2	2	1	0	949	1	4	0	112	23	0	0	100
fixed	4	2	12	907219	4	3	3	1	0	831	1	4	0	120	24	0	0	100
fixed	4	3	1	909072	4	1	1	1	0	888	1	4	0	104	25	0	0	100
fixed	4	3	2	910384	1	2	2	1	0	1289	1	4	0	112	26	0	0	100
fixed	4	3	3	912428	6	4	4	1	0	970	1	4	0	128	27	0	0	100
fixed	4	3	4	914032	2	1	1	1	0	846	1	4	0	104	28	0	0	100
fixed	4	3	5	915733	5	3	3	2	0	1799	2	4	0	120	29	0	0	100
fixed	4	3	6	918466	6	4	4	1	0	1059	1	4	0	128	30	0	0	100
fixed	4	3	7	920008	3	1	1	1	0	873	1	4	0	104	31	0	0	100
fixed	4	3	8	921574	2	3	3	1	0	1023	1	4	0	120	32	0	0	100
fixed	4	3	9	923220	3	2	2	1	0	778	1	4	0	112	33	0	0	100
fixed	4	3	10	924728	1	4	4	1	0	657	1	4	0	128	34	0	0	100
fixed	4	3	11	926418	5	2	2	1	0	842	1	4	0	112	35	0	0	100
fixed	4	3	12	927975	4	3	3	1	0	1152	1	4	0	120	36	0	0	100
fixed	4	4	1	929823	4	1	1	1	0	937	1	4	0	104	37	0	0	100
fixed	4	4	2	931172	1	2	2	1	0	1249	1	4	0	112	38	0	0	100
fixed	4	4	3	932955	6	4	4	1	0	725	1	4	0	128	39	0	0	100
fixed	4	4	4	934000	2	1	1	1	0	984	1	4	0	104	40	0	0	100
fixed	4	4	5	935667	5	3	3	1	0	922	1	4	0	120	41	0	0	100
fixed	4	4	6	937616	6	4	4	1	0	1176	1	4	0	128	42	0	0	100
fixed	4	4	7	939807	3	1	1	1	0	1219	1	4	0	104	43	0	0	100
fixed	4	4	8	941531	2	3	3	1	0	794	1	4	0	120	44	0	0	100
fixed	4	4	9	943268	3	2	2	1	0	1024	1	4	0	112	45	0	0	100
fixed	4	4	10	945145	1	4	4	1	0	984	1	4	0	128	46	0	0	100
fixed	4	4	11	947120	5	2	2	1	0	973	1	4	0	112	47	0	0	100
fixed	4	4	12	948867	4	3	3	1	0	931	1	4	0	120	48	0	0	100
fixed	4	5	1	950523	4	1	1	1	0	1181	1	4	0	104	49	0	0	100
fixed	4	5	2	952568	1	2	2	1	0	1222	1	4	0	112	50	0	0	100
fixed	4	5	3	954380	6	4	4	1	0	761	1	4	0	128	51	0	0	100
fixed	4	5	4	955532	2	1	1	1	0	1281	1	4	0	104	52	0	0	100
fixed	4	5	5	957791	5	3	3	1	0	857	1	4	0	120	53	0	0	100
fixed	4	5	6	959547	6	4	4	1	0	806	1	4	0	128	54	0	0	100
fixed	4	5	7	961398	3	1	1	1	0	1032	1	4	0	104	55	0	0	100
fixed	4	5	8	962723	2	3	3	1	0	1416	1	4	0	120	56	0	0	100
fixed	4	5	9	964885	3	2	2	1	0	581	1	4	0	112	57	0	0	100
fixed	4	5	10	966335	1	4	4	1	0	791	1	4	0	128	58	0	0	100
fixed	4	5	11	967892	5	2	2	1	0	1061	1	4	0	112	59	0	0	100
fixed	4	5	12	969314	4	3	3	1	0	889	1	4	0	120	60	0	0	100
fixed	4	6	1	970890	4	1	1	1	0	918	1	4	0	104	61	0	0	100
fixed	4	6	2	972263	1	2	2	1	0	980	1	4	0	112	62	0	0	100
fixed	4	6	3	974010	6	4	4	1	0	1146	1	4	0	128	63	0	0	100
fixed	4	6	4	975688	2	1	1	1	0	1035	1	4	0	104	64	0	0	100
fixed	4	6	5	977626	5	3	3	1	0	1337	1	4	0	120	65	0	0	100
fixed	4	6	6	979852	6	4	4	1	0	1139	1	4	0	128	66	0	0	100
fixed	4	6	7	981395	3	1	1	1	0	842	1	4	0	104	67	0	0	100
fixed	4	6	8	983123	2	3	3	1	0	1280	1	4	0	120	68	0	0	100
fixed	4	6	9	985001	3	2	2	1	0	817	1	4	0	112	69	0	0	100
fixed	4	6	10	986222	1	4	4	1	0	821	1	4	0	128	70	0	0	100
fixed	4	6	11	987898	5	2	2	2	0	1726	2	4	0	112	71	0	0	100
fixed	4	6	12	990335	4	3	3	1	0	1606	1	4	0	120	72	0	0	100
fixed	4	7	1	992543	4	1	1	1	0	809	1	4	0	104	73	0	0	100
fixed	4	7	2	993722	1	2	2	1	0	799	1	4	0	112	74	0	0	100
fixed	4	7	3	995073	6	4	4	1	0	766	1	4	0	128	75	0	0	100
fixed	4	7	4	996266	2	1	1	1	0	1076	1	4	0	104	76	0	0	100
fixed	4	7	5	998037	5	3	3	1	0	760	1	4	0	120	77	0	0	100
fixed	4	7	6	999311	6	4	4	1	0	882	1	4	0	128	78	0	0	100
fixed	4	7	7	1000874	3	1	1	1	0	1152	1	4	0	104	79	0	0	100
fixed	4	7	8	1002845	2	3	3	1	0	1253	1	4	0	120	80	0	0	100
fixed	4	7	9	1004441	3	2	2	1	0	713	1	4	0	112	81	0	0	100
fixed	4	7	10	1005884	1	4	4	1	0	924	1	4	0	128	82	0	0	100
fixed	4	7	11	1007670	5	2	2	1	0	888	1	4	0	112	83	0	0	100
fixed	4	7	12	1009284	4	3	3	1	0	780	1	4	0	120	84	0	0	100
fixed	4	8	1	1010638	4	1	1	1	0	1178	1	4	0	104	85	0	0	100
fixed	4	8	2	1012515	1	2	2	1	0	827	1	4	0	112	86	0	0	100
fixed	4	8	3	1014197	6	4	4	1	0	988	1	4	0	128	87	0	0	100
fixed	4	8	4	1015760	2	1	1	1	0	1042	1	4	0	104	88	0	0	100
fixed	4	8	5	1017119	5	3	3	1	0	1128	1	4	0	120	89	0	0	100
fixed	4	8	6	1018927	6	4	4	1	0	835	1	4	0	128	90	0	0	100
fixed	4	8	7	1020771	3	1	1	1	0	1454	1	4	0	104	91	0	0	100
fixed	4	8	8	1022615	2	3	3	1	0	823	1	4	0	120	92	0	0	100
fixed	4	8	9	1024348	3	2	2	1	0	574	1	4	0	112	93	0	0	100
fixed	4	8	10	1025906	1	4	4	1	0	764	1	4	0	128	94	0	0	100
fixed	4	8	11	1027043	5	2	2	1	0	1148	1	4	0	112	95	0	0	100
fixed	4	8	12	1029092	4	3	3	1	0	933	1	4	0	120	96	0	0	100
fixed	4	9	1	1031255	4	1	1	1	0	809	1	4	0	104	97	0	0	100
fixed	4	9	2	1032924	1	2	2	1	0	1482	1	4	0	112	98	0	0	100
fixed	4	9	3	1035341	6	4	4	1	0	813	1	4	0	128	99	0	0	100
fixed	4	9	4	1036946	2	1	1	1	0	801	1	4	0	104	100	0	0	100
fixed	4	9	5	1038369	5	3	3	1	0	1196	1	4	0	120	101	0	0	100
fixed	4	9	6	1040477	6	4	4	1	0	1019	1	4	0	128	102	0	0	100
fixed	4	9	7	1041975	3	1	1	1	0	1700	1	4	0	104	103	0	0	100
fixed	4	9	8	1044582	2	3	3	1	0	997	1	4	0	120	104	0	0	100
fixed	4	9	9	1045974	3	2	2	1	0	602	1	4	0	112	105	0	0	100
fixed	4	9	10	1047472	1	4	4	1	0	795	1	4	0	128	106	0	0	100
fixed	4	9	11	1049248	5	2	2	1	0	1047	1	4	0	112	107	0	0	100
fixed	4	9	12	1051095	4	3	3	1	0	513	1	4	0	120	108	0	0	100
fixed	4	10	1	1052189	4	1	1	1	0	738	1	4	0	104	109	0	0	100
fixed	4	10	2	1053928	1	2	2	1	0	985	1	4	0	112	110	0	0	100
fixed	4	10	3	1055918	6	4	4	1	0	741	1	4	0	128	111	0	0	100
fixed	4	10	4	1057272	2	1	1	1	0	1635	1	4	0	104	112	0	0	100
fixed	4	10	5	1059441	5	3	3	1	0	823	1	4	0	120	113	0	0	100
fixed	4	10	6	1060650	6	4	4	1	0	892	1	4	0	128	114	0	0	100
fixed	4	10	7	1062435	3	1	1	1	0	921	1	4	0	104	115	0	0	100
fixed	4	10	8	1064129	2	3	3	1	0	833	1	4	0	120	116	0	0	100
fixed	4	10	9	1065439	3	2	2	1	0	537	1	4	0	112	117	0	0	100
fixed	4	10	10	1067011	1	4	4	1	0	767	1	4	0	128	118	0	0	100
fixed	4	10	11	1068410	5	2	2	1	0	1156	1	4	0	112	119	0	0	100
fixed	4	10	12	1070469	4	3	3	1	0	564	1	4	0	120	120	0	0	100
fixed	5	1	1	1072587	4	1	1	1	0	882	1	4	0	136	1	0	0	100
fixed	5	1	2	1074040	1	2	2	1	0	926	1	4	0	144	2	0	0	100
fixed	5	1	3	1075832	6	4	4	1	0	865	1	4	0	160	3	0	0	100
fixed	5	1	4	1077522	2	1	1	1	0	1018	1	4	0	136	4	0	0	100
fixed	5	1	5	1079215	5	3	3	2	0	1338	2	4	0	152	5	0	0	100
fixed	5	1	6	1081013	6	4	4	1	0	870	1	4	0	160	6	0	0	100
fixed	5	1	7	1082813	3	1	1	1	0	1601	1	4	0	136	7	0	0	100
fixed	5	1	8	1084854	2	3	3	1	0	739	1	4	0	152	8	0	0	100
fixed	5	1	9	1086389	3	2	2	1	0	586	1	4	0	144	9	0	0	100
fixed	5	1	10	1087359	1	4	4	1	0	793	1	4	0	160	10	0	0	100
fixed	5	1	11	1088546	5	2	2	1	0	943	1	4	0	144	11	0	0	100
fixed	5	1	12	1090332	4	3	3	1	0	619	1	4	0	152	12	0	0	100
fixed	5	2	1	1091570	4	1	1	1	0	999	1	4	0	136	13	0	0	100
fixed	5	2	2	1093039	1	2	2	1	0	832	1	4	0	144	14	0	0	100
fixed	5	2	3	1094186	6	4	4	1	0	752	1	4	0	160	15	0	0	100
fixed	5	2	4	1095570	2	1	1	1	0	893	1	4	0	136	16	0	0	100
fixed	5	2	5	1096930	5	3	3	1	0	956	1	4	0	152	17	0	0	100
fixed	5	2	6	1098883	6	4	4	1	0	929	1	4	0	160	18	0	0	100
fixed	5	2	7	1100498	3	1	1	1	0	885	1	4	0	136	19	0	0	100
fixed	5	2	8	1102396	2	3	3	2	0	1476	2	4	0	152	20	0	0	100
fixed	5	2	9	1104725	3	2	2	1	0	530	1	4	0	144	21	0	0	100
fixed	5	2	10	1105983	1	4	4	1	0	837	1	4	0	160	22	0	0	100
fixed	5	2	11	1107154	5	2	2	1	0	1323	1	4	0	144	23	0	0	100
fixed	5	2	12	1108889	4	3	3	1	0	649	1	4	0	152	24	0	0	100
fixed	5	3	1	1110416	4	1	1	1	0	784	1	4	0	136	25	0	0	100
fixed	5	3	2	1111919	1	2	2	1	0	1345	1	4	0	144	26	0	0	100
fixed	5	3	3	1113889	6	4	4	1	0	669	1	4	0	160	27	0	0	100
fixed	5	3	4	1115427	2	1	1	1	0	716	1	4	0	136	28	0	0	100
fixed	5	3	5	1116767	5	3	3	1	0	771	1	4	0	152	29	0	0	100
fixed	5	3	6	1118187	6	4	4	1	0	1663	1	4	0	160	30	0	0	100
fixed	5	3	7	1120560	3	1	1	1	0	667	1	4	0	136	31	0	0	100
fixed	5	3	8	1121805	2	3	3	1	0	1374	1	4	0	152	32	0	0	100
fixed	5	3	9	1123817	3	2	2	1	0	577	1	4	0	144	33	0	0	100
fixed	5	3	10	1125106	1	4	4	1	0	1930	1	4	0	160	34	0	0	100
fixed	5	3	11	1127682	5	2	2	1	0	1013	1	4	0	144	35	0	0	100
fixed	5	3	12	1129477	4	3	3	1	0	921	1	4	0	152	36	0	0	100
fixed	5	4	1	1131401	4	1	1	1	0	840	1	4	0	136	37	0	0	100
fixed	5	4	2	1133098	1	2	2	1	0	1160	1	4	0	144	38	0	0	100
fixed	5	4	3	1134910	6	4	4	1	0	1003	1	4	0	160	39	0	0	100
fixed	5	4	4	1136812	2	1	1	1	0	1162	1	4	0	136	40	0	0	100
fixed	5	4	5	1138870	5	3	3	1	0	899	1	4	0	152	41	0	0	100
fixed	5	4	6	1140248	6	4	4	1	0	921	1	4	0	160	42	0	0	100
fixed	5	4	7	1141881	3	1	1	1	0	1260	1	4	0	136	43	0	0	100
fixed	5	4	8	1143467	2	3	3	1	0	1009	1	4	0	152	44	0	0	100
fixed	5	4	9	1145279	3	2	2	1	0	700	1	4	0	144	45	0	0	100
fixed	5	4	10	1146927	1	4	4	1	0	1974	1	4	0	160	46	0	0	100
fixed	5	4	11	1149505	5	2	2	1	0	1129	1	4	0	144	47	0	0	100
fixed	5	4	12	1151364	4	3	3	1	0	890	1	4	0	152	48	0	0	100
fixed	5	5	1	1153237	4	1	1	1	0	1139	1	4	0	136	49	0	0	100
fixed	5	5	2	1154799	1	2	2	1	0	1017	1	4	0	144	50	0	0	100
fixed	5	5	3	1156313	6	4	4	1	0	1648	1	4	0	160	51	0	0	100
fixed	5	5	4	1158676	2	1	1	1	0	1093	1	4	0	136	52	0	0	100
fixed	5	5	5	1160448	5	3	3	1	0	1066	1	4	0	152	53	0	0	100
fixed	5	5	6	1161895	6	4	4	1	0	956	1	4	0	160	54	0	0	100
fixed	5	5	7	1163316	3	1	1	1	0	1656	1	4	0	136	55	0	0	100
fixed	5	5	8	1165846	2	3	3	1	0	1053	1	4	0	152	56	0	0	100
fixed	5	5	9	1167382	3	2	2	1	0	1300	1	4	0	144	57	0	0	100
fixed	5	5	10	1169705	1	4	4	1	0	978	1	4	0	160	58	0	0	100
fixed	5	5	11	1171098	5	2	2	1	0	1174	1	4	0	144	59	0	0	100
fixed	5	5	12	1173121	4	3	3	1	0	576	1	4	0	152	60	0	0	100
fixed	5	6	1	1174690	4	1	1	2	0	1806	2	4	0	136	61	0	0	100
fixed	5	6	2	1177521	1	2	2	1	0	966	1	4	0	144	62	0	0	100
fixed	5	6	3	1179312	6	4	4	2	0	2347	2	4	0	160	63	0	0	100
fixed	5	6	4	1182681	2	1	1	1	0	902	1	4	0	136	64	0	0	100
fixed	5	6	5	1184449	5	3	3	1	0	1521	1	4	0	152	65	0	0	100
fixed	5	6	6	1186391	6	4	4	1	0	1087	1	4	0	160	66	0	0	100
fixed	5	6	7	1188484	3	1	1	1	0	1246	1	4	0	136	67	0	0	100
fixed	5	6	8	1190636	2	3	3	1	0	1675	1	4	0	152	68	0	0	100
fixed	5	6	9	1192911	3	2	2	1	0	995	1	4	0	144	69	0	0	100
fixed	5	6	10	1194761	1	4	4	1	0	860	1	4	0	160	70	0	0	100
fixed	5	6	11	1196035	5	2	2	1	0	1342	1	4	0	144	71	0	0	100
fixed	5	6	12	1198371	4	3	3	1	0	1539	1	4	0	152	72	0	0	100
fixed	5	7	1	1201205	4	1	1	1	0	755	1	4	0	136	73	0	0	100
fixed	5	7	2	1202343	1	2	2	1	0	1179	1	4	0	144	74	0	0	100
fixed	5	7	3	1204436	6	4	4	1	0	874	1	4	0	160	75	0	0	100
fixed	5	7	4	1206330	2	1	1	1	0	1354	1	4	0	136	76	0	0	100
fixed	5	7	5	1208499	5	3	3	1	0	998	1	4	0	152	77	0	0	100
fixed	5	7	6	1210469	6	4	4	1	0	795	1	4	0	160	78	0	0	100
fixed	5	7	7	1211930	3	1	1	1	0	1381	1	4	0	136	79	0	0	100
fixed	5	7	8	1213883	2	3	3	1	0	987	1	4	0	152	80	0	0	100
fixed	5	7	9	1215297	3	2	2	1	0	1598	1	4	0	144	81	0	0	100
fixed	5	7	10	1217307	1	4	4	1	0	1138	1	4	0	160	82	0	0	100
fixed	5	7	11	1219001	5	2	2	1	0	1089	1	4	0	144	83	0	0	100
fixed	5	7	12	1220873	4	3	3	1	0	2122	1	4	0	152	84	0	0	100
fixed	5	8	1	1224245	4	1	1	1	0	923	1	4	0	136	85	0	0	100
fixed	5	8	2	1225783	1	2	2	1	0	1074	1	4	0	144	86	0	0	100
fixed	5	8	3	1227171	6	4	4	1	0	855	1	4	0	160	87	0	0	100
fixed	5	8	4	1228899	2	1	1	1	0	950	1	4	0	136	88	0	0	100
fixed	5	8	5	1230232	5	3	3	1	0	1446	1	4	0	152	89	0	0	100
fixed	5	8	6	1232398	6	4	4	1	0	922	1	4	0	160	90	0	0	100
fixed	5	8	7	1233807	3	1	1	1	0	950	1	4	0	136	91	0	0	100
fixed	5	8	8	1235531	2	3	3	1	0	1565	1	4	0	152	92	0	0	100
fixed	5	8	9	1237735	3	2	2	1	0	616	1	4	0	144	93	0	0	100
fixed	5	8	10	1238704	1	4	4	1	0	1191	1	4	0	160	94	0	0	100
fixed	5	8	11	1240465	5	2	2	1	0	1141	1	4	0	144	95	0	0	100
fixed	5	8	12	1242316	4	3	3	1	0	534	1	4	0	152	96	0	0	100
fixed	5	9	1	1243760	4	1	1	1	0	769	1	4	0	136	97	0	0	100
fixed	5	9	2	1245215	1	2	2	1	0	1219	1	4	0	144	98	0	0	100
fixed	5	9	3	1247077	6	4	4	1	0	700	1	4	0	160	99	0	0	100
fixed	5	9	4	1248716	2	1	1	1	0	407	1	4	0	136	100	0	0	100
fixed	5	9	5	1250146	5	3	3	1	0	1698	1	4	0	152	101	0	0	100
fixed	5	9	6	1252760	6	4	4	1	0	860	1	4	0	160	102	0	0	100
fixed	5	9	7	1254288	3	1	1	1	0	1091	1	4	0	136	103	0	0	100
fixed	5	9	8	1256159	2	3	3	1	0	1364	1	4	0	152	104	0	0	100
fixed	5	9	9	1258043	3	2	2	1	0	643	1	4	0	144	105	0	0	100
fixed	5	9	10	1259176	1	4	4	1	0	1220	1	4	0	160	106	0	0	100
fixed	5	9	11	1261017	5	2	2	1	0	1286	1	4	0	144	107	0	0	100
fixed	5	9	12	1262898	4	3	3	1	0	966	1	4	0	152	108	0	0	100
fixed	5	10	1	1264995	4	1	1	1	0	1261	1	4	0	136	109	0	0	100
fixed	5	10	2	1266760	1	2	2	1	0	1179	1	4	0	144	110	0	0	100
fixed	5	10	3	1268436	6	4	4	1	0	803	1	4	0	160	111	0	0	100
fixed	5	10	4	1270184	2	1	1	1	0	1034	1	4	0	136	112	0	0	100
fixed	5	10	5	1272146	5	3	3	1	0	958	1	4	0	152	113	0	0	100
fixed	5	10	6	1273546	6	4	4	1	0	1300	1	4	0	160	114	0	0	100
fixed	5	10	7	1275292	3	1	1	1	0	1281	1	4	0	136	115	0	0	100
fixed	5	10	8	1277494	2	3	3	1	0	2124	1	4	0	152	116	0	0	100
fixed	5	10	9	1280160	3	2	2	1	0	763	1	4	0	144	117	0	0	100
fixed	5	10	10	1281903	1	4	4	1	0	1041	1	4	0	160	118	0	0	100
fixed	5	10	11	1283573	5	2	2	1	0	1266	1	4	0	144	119	0	0	100
fixed	5	10	12	1285243	4	3	3	1	0	667	1	4	0	152	120	0	0	100
random	6	1	1	1456680	6	1	1	1	0	1342	1	4	0	168	1	0	0	100
random	6	1	2	1458404	4	4	4	1	0	1101	1	4	0	192	2	0	0	100
random	6	1	3	1460254	2	2	2	1	0	840	1	4	0	176	3	0	0	100
random	6	1	4	1462093	3	3	3	1	0	697	1	4	0	184	4	0	0	100
random	6	1	5	1463425	5	2	2	1	0	849	1	4	0	176	5	0	0	100
random	6	1	6	1464792	1	4	4	1	0	807	1	4	0	192	6	0	0	100
random	6	1	7	1466578	6	1	1	1	0	547	1	4	0	168	7	0	0	100
random	6	1	8	1467490	2	3	3	1	0	1132	1	4	0	184	8	0	0	100
random	6	1	9	1469447	4	2	2	1	0	818	1	4	0	176	9	0	0	100
random	6	1	10	1471282	1	1	1	1	0	868	1	4	0	168	10	0	0	100
random	6	1	11	1472648	5	4	4	1	0	818	1	4	0	192	11	0	0	100
random	6	1	12	1473830	3	3	3	1	0	1016	1	4	0	184	12	0	0	100
random	6	1	13	1475511	5	2	2	1	0	729	1	4	0	176	13	0	0	100
random	6	1	14	1476583	1	4	4	1	0	787	1	4	0	192	14	0	0	100
random	6	1	15	1477753	3	1	1	1	0	890	1	4	0	168	15	0	0	100
random	6	1	16	1478946	4	3	3	1	0	1016	1	4	0	184	16	0	0	100
random	6	1	17	1480392	6	4	4	1	0	930	1	4	0	192	17	0	0	100
random	6	1	18	1482309	2	1	1	1	0	737	1	4	0	168	18	0	0	100
random	6	1	19	1483991	5	3	3	1	0	834	1	4	0	184	19	0	0	100
random	6	1	20	1485142	2	2	2	1	0	681	1	4	0	176	20	0	0	100
random	6	1	21	1486719	3	3	3	1	0	2303	1	4	0	184	21	0	0	100
random	6	1	22	1489889	6	1	1	2	0	1160	2	4	0	168	22	0	0	100
random	6	1	23	1491420	4	2	2	1	0	1503	1	4	0	176	23	0	0	100
random	6	1	24	1493803	1	4	4	1	0	763	1	4	0	192	24	0	0	100
random	6	1	25	1495844	4	3	3	1	0	1652	1	4	0	184	25	0	0	100
random	6	1	26	1497998	2	1	1	1	0	744	1	4	0	168	26	0	0	100
random	6	1	27	1499231	5	2	2	1	0	1117	1	4	0	176	27	0	0	100
random	6	1	28	1500801	6	4	4	1	0	890	1	4	0	192	28	0	0	100
random	6	1	29	1502205	1	3	3	1	0	559	1	4	0	184	29	0	0	100
random	6	1	30	1503356	5	2	2	1	0	1270	1	4	0	176	30	0	0	100
random	6	1	31	1505462	2	1	1	1	0	893	1	4	0	168	31	0	0	100
random	6	1	32	1507324	3	3	3	1	0	1205	1	4	0	184	32	0	0	100
random	6	1	33	1509028	6	4	4	1	0	909	1	4	0	192	33	0	0	100
random	6	1	34	1510345	4	2	2	1	0	949	1	4	0	176	34	0	0	100
random	6	1	35	1512204	3	4	4	1	0	951	1	4	0	192	35	0	0	100
random	6	1	36	1513761	1	1	1	1	0	893	1	4	0	168	36	0	0	100
random	6	1	37	1515443	3	4	4	1	0	1277	1	4	0	192	37	0	0	100
random	6	1	38	1517082	5	3	3	1	0	1336	1	4	0	184	38	0	0	100
random	6	1	39	1519239	6	1	1	1	0	789	1	4	0	168	39	0	0	100
random	6	1	40	1520860	1	2	2	1	0	872	1	4	0	176	40	0	0	100
random	6	1	41	1522367	2	3	3	1	0	1016	1	4	0	184	41	0	0	100
random	6	1	42	1524067	4	4	4	1	0	744	1	4	0	192	42	0	0	100
random	6	1	43	1525278	1	2	2	1	0	989	1	4	0	176	43	0	0	100
random	6	1	44	1527119	6	3	3	1	0	1015	1	4	0	184	44	0	0	100
random	6	1	45	1529011	3	1	1	1	0	751	1	4	0	168	45	0	0	100
random	6	1	46	1530073	4	4	4	1	0	906	1	4	0	192	46	0	0	100
random	6	1	47	1531850	2	2	2	1	0	1135	1	4	0	176	47	0	0	100
random	6	1	48	1533341	5	1	1	1	0	1032	1	4	0	168	48	0	0	100
random	6	1	49	1535508	2	3	3	1	0	1284	1	4	0	184	49	0	0	100
random	6	1	50	1537539	3	1	1	1	0	950	1	4	0	168	50	0	0	100
random	6	1	51	1538841	1	4	4	1	0	871	1	4	0	192	51	0	0	100
random	6	1	52	1540441	5	3	3	1	0	1635	1	4	0	184	52	0	0	100
random	6	1	53	1542388	3	2	2	1	0	569	1	4	0	176	53	0	0	100
random	6	1	54	1543493	6	4	4	1	0	865	1	4	0	192	54	0	0	100
random	6	1	55	1544738	4	2	2	1	0	1173	1	4	0	176	55	0	0	100
random	6	1	56	1546773	1	1	1	1	0	1151	1	4	0	168	56	0	0	100
random	6	1	57	1548408	5	4	4	1	0	1593	1	4	0	192	57	0	0	100
random	6	1	58	1550440	2	1	1	1	0	1196	1	4	0	168	58	0	0	100
random	6	1	59	1552552	6	2	2	1	0	898	1	4	0	176	59	0	0	100
random	6	1	60	1554006	4	3	3	1	0	732	1	4	0	184	60	0	0	100
random	6	1	61	1555625	1	2	2	1	0	992	1	4	0	176	61	0	0	100
random	6	1	62	1557181	6	4	4	1	0	878	1	4	0	192	62	0	0	100
random	6	1	63	1558713	4	1	1	1	0	1157	1	4	0	168	63	0	0	100
random	6	1	64	1560387	2	2	2	1	0	862	1	4	0	176	64	0	0	100
random	6	1	65	1561782	4	3	3	1	0	1019	1	4	0	184	65	0	0	100
random	6	1	66	1563217	3	1	1	1	0	1134	1	4	0	168	66	0	0	100
random	6	1	67	1564697	1	3	3	1	0	1359	1	4	0	184	67	0	0	100
random	6	1	68	1566457	5	4	4	1	0	853	1	4	0	192	68	0	0	100
random	6	1	69	1567719	2	2	2	1	0	927	1	4	0	176	69	0	0	100
random	6	1	70	1569146	3	1	1	1	0	939	1	4	0	168	70	0	0	100
random	6	1	71	1570700	5	4	4	1	0	889	1	4	0	192	71	0	0	100
random	6	1	72	1572578	6	3	3	1	0	1570	1	4	0	184	72	0	0	100
random	6	1	73	1575390	2	1	1	1	0	1026	1	4	0	168	73	0	0	100
random	6	1	74	1577260	5	3	3	1	0	955	1	4	0	184	74	0	0	100
random	6	1	75	1578795	1	4	4	1	0	819	1	4	0	192	75	0	0	100
random	6	1	76	1580174	6	2	2	1	0	1064	1	4	0	176	76	0	0	100
random	6	1	77	1581589	2	1	1	1	0	876	1	4	0	168	77	0	0	100
random	6	1	78	1582903	4	4	4	1	0	957	1	4	0	192	78	0	0	100
random	6	1	79	1584301	3	2	2	1	0	1041	1	4	0	176	79	0	0	100
random	6	1	80	1586289	4	3	3	1	0	1677	1	4	0	184	80	0	0	100
random	6	1	81	1588319	1	4	4	1	0	911	1	4	0	192	81	0	0	100
random	6	1	82	1590128	5	1	1	1	0	1146	1	4	0	168	82	0	0	100
random	6	1	83	1592057	3	2	2	1	0	929	1	4	0	176	83	0	0	100
random	6	1	84	1593904	6	3	3	1	0	882	1	4	0	184	84	0	0	100
random	6	1	85	1595339	3	2	2	1	0	933	1	4	0	176	85	0	0	100
random	6	1	86	1597146	1	3	3	1	0	985	1	4	0	184	86	0	0	100
random	6	1	87	1599022	4	4	4	1	0	1258	1	4	0	192	87	0	0	100
random	6	1	88	1600598	2	1	1	1	0	887	1	4	0	168	88	0	0	100
random	6	1	89	1602172	6	4	4	2	0	2092	2	4	0	192	89	0	0	100
random	6	1	90	1605106	3	3	3	2	0	1496	2	4	0	184	90	0	0	100
random	6	1	91	1607259	5	4	4	1	0	973	1	4	0	192	91	0	0	100
random	6	1	92	1608962	1	2	2	1	0	829	1	4	0	176	92	0	0	100
random	6	1	93	1610219	5	1	1	1	0	1040	1	4	0	168	93	0	0	100
random	6	1	94	1612259	4	3	3	1	0	1705	1	4	0	184	94	0	0	100
random	6	1	95	1614893	6	1	1	1	0	1361	1	4	0	168	95	0	0	100
random	6	1	96	1616781	2	2	2	1	0	969	1	4	0	176	96	0	0	100
random	6	1	97	1618946	4	3	3	1	0	1254	1	4	0	184	97	0	0	100
random	6	1	98	1621090	3	2	2	1	0	1331	1	4	0	176	98	0	0	100
random	6	1	99	1622850	6	3	3	1	0	1609	1	4	0	184	99	0	0	100
random	6	1	100	1624980	1	4	4	1	0	702	1	4	0	192	100	0	0	100
random	6	1	101	1626245	4	1	1	1	0	737	1	4	0	168	101	0	0	100
random	6	1	102	1627327	5	2	2	1	0	1107	1	4	0	176	102	0	0	100
random	6	1	103	1629300	2	4	4	1	0	1207	1	4	0	192	103	0	0	100
random	6	1	104	1631418	3	1	1	1	0	2030	1	4	0	168	104	0	0	100
random	6	1	105	1633888	1	3	3	1	0	1533	1	4	0	184	105	0	0	100
random	6	1	106	1636358	2	2	2	1	0	900	1	4	0	176	106	0	0	100
random	6	1	107	1637714	5	4	4	1	0	891	1	4	0	192	107	0	0	100
random	6	1	108	1639212	6	1	1	1	0	1259	1	4	0	168	108	0	0	100
random	6	1	109	1641118	5	4	4	1	0	1466	1	4	0	192	109	0	0	100
random	6	1	110	1643111	6	3	3	1	0	1302	1	4	0	184	110	0	0	100
random	6	1	111	1645185	2	2	2	1	0	822	1	4	0	176	111	0	0	100
random	6	1	112	1646457	3	1	1	1	0	1521	1	4	0	168	112	0	0	100
random	6	1	113	1648346	1	2	2	1	0	1089	1	4	0	176	113	0	0	100
random	6	1	114	1650276	2	3	3	1	0	1191	1	4	0	184	114	0	0	100
random	6	1	115	1651965	3	1	1	2	0	1559	2	4	0	168	115	0	0	100
random	6	1	116	1654059	4	4	4	1	0	1103	1	4	0	192	116	0	0	100
random	6	1	117	1655472	6	1	1	1	0	1299	1	4	0	168	117	0	0	100
random	6	1	118	1657662	5	3	3	1	0	974	1	4	0	184	118	0	0	100
random	6	1	119	1658959	1	4	4	1	0	1319	1	4	0	192	119	0	0	100
random	6	1	120	1660701	4	2	2	2	0	1605	2	4	0	176	120	0	0	100
fixed	7	1	1	1663721	4	1	1	1	0	949	1	4	0	200	1	0	0	100
fixed	7	1	2	1665407	1	2	2	1	0	990	1	4	0	208	2	0	0	100
fixed	7	1	3	1667430	6	4	4	1	0	808	1	4	0	224	3	0	0	100
fixed	7	1	4	1668867	2	1	1	1	0	1131	1	4	0	200	4	0	0	100
fixed	7	1	5	1670846	5	3	3	1	0	1512	1	4	0	216	5	0	0	100
fixed	7	1	6	1673010	6	4	4	1	0	844	1	4	0	224	6	0	0	100
fixed	7	1	7	1674699	3	1	1	1	0	908	1	4	0	200	7	0	0	100
fixed	7	1	8	1676021	2	3	3	1	0	1076	1	4	0	216	8	0	0	100
fixed	7	1	9	1677931	3	2	2	1	0	763	1	4	0	208	9	0	0	100
fixed	7	1	10	1678996	1	4	4	1	0	1862	1	4	0	224	10	0	0	100
fixed	7	1	11	1681479	5	2	2	1	0	1005	1	4	0	208	11	0	0	100
fixed	7	1	12	1682853	4	3	3	1	0	1523	1	4	0	216	12	0	0	100
fixed	7	2	1	1685025	4	1	1	1	0	959	1	4	0	200	1	0	0	8
fixed	7	2	2	1686711	1	2	2	1	0	943	1	4	0	208	2	0	0	14
fixed	7	2	3	1688693	6	4	4	2	0	1428	2	4	0	224	3	0	0	20
fixed	7	2	4	1690597	2	1	1	1	0	1683	1	4	0	200	4	0	0	25
fixed	7	2	5	1693111	5	3	3	1	0	1568	1	4	0	216	5	0	0	29
fixed	7	2	6	1694966	6	4	4	1	0	970	1	4	0	224	6	0	0	33
fixed	7	2	7	1696566	3	1	1	1	0	1078	1	4	0	200	7	0	0	37
fixed	7	2	8	1698646	2	3	3	1	0	1390	1	4	0	216	8	0	0	40
fixed	7	2	9	1700890	3	2	2	1	0	871	1	4	0	208	9	0	0	43
fixed	7	2	10	1702165	1	4	4	1	0	1137	1	4	0	224	10	0	0	45
fixed	7	2	11	1703859	5	2	2	1	0	1457	1	4	0	208	11	0	0	48
fixed	7	2	12	1705796	4	3	3	1	0	735	1	4	0	216	12	0	0	50
fixed	7	3	1	1707648	4	1	1	1	0	897	1	4	0	200	1	0	0	4
fixed	7	3	2	1708942	1	2	2	1	0	1506	1	4	0	208	2	0	0	8
fixed	7	3	3	1711242	6	4	4	1	0	816	1	4	0	224	3	0	0	11
fixed	7	3	4	1712697	2	1	1	1	0	1067	1	4	0	200	4	0	0	14
fixed	7	3	5	1714398	5	3	3	1	0	1267	1	4	0	216	5	0	0	17
fixed	7	3	6	1716029	6	4	4	1	0	1302	1	4	0	224	6	0	0	20
fixed	7	3	7	1717794	3	1	1	1	0	1211	1	4	0	200	7	0	0	23
fixed	7	3	8	1719595	2	3	3	1	0	1183	1	4	0	216	8	0	0	25
fixed	7	3	9	1721136	3	2	2	1	0	1245	1	4	0	208	9	0	0	27
fixed	7	3	10	1722842	1	4	4	1	0	1197	1	4	0	224	10	0	0	29
fixed	7	3	11	1724689	5	2	2	2	0	1799	2	4	0	208	11	0	0	31
fixed	7	3	12	1727045	4	3	3	1	0	1331	1	4	0	216	12	0	0	33
fixed	7	4	1	1729050	4	1	1	1	0	1046	1	4	0	200	1	0	0	3
fixed	7	4	2	1730707	1	2	2	1	0	1168	1	4	0	208	2	0	0	5
fixed	7	4	3	1732302	6	4	4	1	0	765	1	4	0	224	3	0	0	8
fixed	7	4	4	1733666	2	1	1	1	0	867	1	4	0	200	4	0	0	10
fixed	7	4	5	1735157	5	3	3	1	0	1252	1	4	0	216	5	0	0	12
fixed	7	4	6	1737154	6	4	4	1	0	1119	1	4	0	224	6	0	0	14
fixed	7	4	7	1738725	3	1	1	1	0	1116	1	4	0	200	7	0	0	16
fixed	7	4	8	1740473	2	3	3	1	0	1779	1	4	0	216	8	0	0	18
fixed	7	4	9	1742583	3	2	2	1	0	1489	1	4	0	208	9	0	0	20
fixed	7	4	10	1744979	1	4	4	1	0	1212	1	4	0	224	10	0	0	22
fixed	7	4	11	1746947	5	2	2	1	0	1752	1	4	0	208	11	0	0	23
fixed	7	4	12	1749302	4	3	3	1	0	668	1	4	0	216	12	0	0	25
fixed	7	5	1	1750770	4	1	1	1	0	934	1	4	0	200	1	0	0	2
fixed	7	5	2	1752219	1	2	2	1	0	1281	1	4	0	208	2	0	0	4
fixed	7	5	3	1754426	6	4	4	1	0	1059	1	4	0	224	3	0	0	6
fixed	7	5	4	1755812	2	1	1	1	0	913	1	4	0	200	4	0	0	8
fixed	7	5	5	1757080	5	3	3	1	0	1091	1	4	0	216	5	0	0	9
fixed	7	5	6	1758924	6	4	4	1	0	1765	1	4	0	224	6	0	0	11
fixed	7	5	7	1761190	3	1	1	1	0	1061	1	4	0	200	7	0	0	13
fixed	7	5	8	1762822	2	3	3	1	0	1072	1	4	0	216	8	0	0	14
fixed	7	5	9	1764537	3	2	2	1	0	847	1	4	0	208	9	0	0	16
fixed	7	5	10	1766096	1	4	4	1	0	1109	1	4	0	224	10	0	0	17
fixed	7	5	11	1768133	5	2	2	1	0	1167	1	4	0	208	11	0	0	19
fixed	7	5	12	1770169	4	3	3	1	0	1585	1	4	0	216	12	0	0	20
fixed	7	6	1	1772590	4	1	1	1	0	994	1	4	0	200	1	0	0	2
fixed	7	6	2	1774246	1	2	2	1	0	1476	1	4	0	208	2	0	0	3
fixed	7	6	3	1776671	6	4	4	1	0	1221	1	4	0	224	3	0	0	5
fixed	7	6	4	1778333	2	1	1	1	0	847	1	4	0	200	4	0	0	6
fixed	7	6	5	1780024	5	3	3	1	0	1255	1	4	0	216	5	0	0	8
fixed	7	6	6	1782147	6	4	4	1	0	1677	1	4	0	224	6	0	0	9
fixed	7	6	7	1784857	3	1	1	1	0	922	1	4	0	200	7	0	0	10
fixed	7	6	8	1786274	2	3	3	1	0	1910	1	4	0	216	8	0	0	12
fixed	7	6	9	1789168	3	2	2	1	0	1220	1	4	0	208	9	0	0	13
fixed	7	6	10	1791145	1	4	4	1	0	960	1	4	0	224	10	0	0	14
fixed	7	6	11	1792722	5	2	2	1	0	1061	1	4	0	208	11	0	0	15
fixed	7	6	12	1794583	4	3	3	1	0	2151	1	4	0	216	12	0	0	17
fixed	7	7	1	1797301	4	1	1	1	0	843	1	4	0	200	1	0	0	1
fixed	7	7	2	1798473	1	2	2	1	0	1058	1	4	0	208	2	0	0	3
fixed	7	7	3	1800151	6	4	4	1	0	851	1	4	0	224	3	0	0	4
fixed	7	7	4	1801883	2	1	1	1	0	817	1	4	0	200	4	0	0	5
fixed	7	7	5	1803620	5	3	3	1	0	1096	1	4	0	216	5	0	0	6
fixed	7	7	6	1805656	6	4	4	1	0	945	1	4	0	224	6	0	0	8
fixed	7	7	7	1807288	3	1	1	1	0	1629	1	4	0	200	7	0	0	9
fixed	7	7	8	1809870	2	3	3	1	0	1679	1	4	0	216	8	0	0	10
fixed	7	7	9	1812068	3	2	2	1	0	722	1	4	0	208	9	0	0	11
fixed	7	7	10	1813149	1	4	4	1	0	1052	1	4	0	224	10	0	0	12
fixed	7	7	11	1815018	5	2	2	2	0	1541	2	4	0	208	11	0	0	13
fixed	7	7	12	1817483	4	3	3	1	0	1092	1	4	0	216	12	0	0	14
fixed	7	8	1	1819271	4	1	1	1	0	921	1	4	0	200	1	0	0	1
fixed	7	8	2	1820683	1	2	2	2	0	1493	2	4	0	208	2	0	0	2
fixed	7	8	3	1823191	6	4	4	1	0	2035	1	4	0	224	3	0	0	3
fixed	7	8	4	1826200	2	1	1	1	0	1772	1	4	0	200	4	0	0	5
fixed	7	8	5	1828818	5	3	3	1	0	1189	1	4	0	216	5	0	0	6
fixed	7	8	6	1830316	6	4	4	1	0	949	1	4	0	224	6	0	0	7
fixed	7	8	7	1831693	3	1	1	1	0	1755	1	4	0	200	7	0	0	8
fixed	7	8	8	1834101	2	3	3	1	0	973	1	4	0	216	8	0	0	9
fixed	7	8	9	1835831	3	2	2	1	0	1779	1	4	0	208	9	0	0	10
fixed	7	8	10	1838635	1	4	4	1	0	1773	1	4	0	224	10	0	0	11
fixed	7	8	11	1840953	5	2	2	1	0	1075	1	4	0	208	11	0	0	12
fixed	7	8	12	1842926	4	3	3	1	0	823	1	4	0	216	12	0	0	13
fixed	7	9	1	1845035	4	1	1	1	0	830	1	4	0	200	1	0	0	1
fixed	7	9	2	1846815	1	2	2	1	0	978	1	4	0	208	2	0	0	2
fixed	7	9	3	1848707	6	4	4	1	0	963	1	4	0	224	3	0	0	3
fixed	7	9	4	1850390	2	1	1	1	0	1011	1	4	0	200	4	0	0	4
fixed	7	9	5	1851984	5	3	3	1	0	1095	1	4	0	216	5	0	0	5
fixed	7	9	6	1853547	6	4	4	1	0	1389	1	4	0	224	6	0	0	6
fixed	7	9	7	1855328	3	1	1	1	0	1594	1	4	0	200	7	0	0	7
fixed	7	9	8	1857886	2	3	3	1	0	1637	1	4	0	216	8	0	0	8
fixed	7	9	9	1860473	3	2	2	1	0	1032	1	4	0	208	9	0	0	9
fixed	7	9	10	1862470	1	4	4	1	0	1539	1	4	0	224	10	0	0	9
fixed	7	9	11	1864372	5	2	2	1	0	1347	1	4	0	208	11	0	0	10
fixed	7	9	12	1866330	4	3	3	1	0	2376	1	4	0	216	12	0	0	11
fixed	7	10	1	1869929	4	1	1	1	0	919	1	4	0	200	1	0	0	1
fixed	7	10	2	1871739	1	2	2	1	0	1203	1	4	0	208	2	0	0	2
fixed	7	10	3	1873625	6	4	4	1	0	1307	1	4	0	224	3	0	0	3
fixed	7	10	4	1875237	2	1	1	1	0	1007	1	4	0	200	4	0	0	4
fixed	7	10	5	1877188	5	3	3	1	0	1252	1	4	0	216	5	0	0	4
fixed	7	10	6	1878765	6	4	4	1	0	881	1	4	0	224	6	0	0	5
fixed	7	10	7	1880493	3	1	1	1	0	1064	1	4	0	200	7	0	0	6
fixed	7	10	8	1882108	2	3	3	1	0	1203	1	4	0	216	8	0	0	7
fixed	7	10	9	1883645	3	2	2	1	0	810	1	4	0	208	9	0	0	8
fixed	7	10	10	1885186	1	4	4	1	0	921	1	4	0	224	10	0	0	8
fixed	7	10	11	1886902	5	2	2	1	0	1480	1	4	0	208	11	0	0	9
fixed	7	10	12	1888833	4	3	3	1	0	607	1	4	0	216	12	0	0	10
