type	block	sequ.	trial	time	Pos.	Color	Button	NumRsp	Resp_1	RT_1	R_Code	Resp_2	RT_2	Trigg.	n_hit	n_inc	n_miss	score_%

random	1	1	1	2869	6	1	1	1	0	1273	1	4	0	8	1	0	0	100
random	1	1	2	4511	4	4	4	1	0	675	1	4	0	32	2	0	0	100
random	1	1	3	6199	2	2	2	1	0	884	1	4	0	16	3	0	0	100
random	1	1	4	7788	3	3	3	1	0	633	1	4	0	24	4	0	0	100
random	1	1	5	9156	5	2	2	1	0	1038	1	4	0	16	5	0	0	100
random	1	1	6	11214	1	4	4	1	0	711	1	4	0	32	6	0	0	100
random	1	1	7	12849	6	1	1	1	0	458	1	4	0	8	7	0	0	100
random	1	1	8	13892	2	3	3	1	0	798	1	4	0	24	8	0	0	100
random	1	1	9	15134	4	2	2	1	0	737	1	4	0	16	9	0	0	100
random	1	1	10	16204	1	1	1	1	0	1180	1	4	0	8	10	0	0	100
random	1	1	11	18195	5	4	4	1	0	536	1	4	0	32	11	0	0	100
random	1	1	12	19332	3	3	3	2	0	1471	2	4	0	24	12	0	0	100
random	1	1	13	21833	5	2	2	1	0	805	1	4	0	16	13	0	0	100
random	1	1	14	23378	1	4	4	1	0	924	1	4	0	32	14	0	0	100
random	1	1	15	24618	3	1	1	1	0	888	1	4	0	8	15	0	0	100
random	1	1	16	26502	4	3	3	1	0	920	1	4	0	24	16	0	0	100
random	1	1	17	28150	6	4	4	1	0	882	1	4	0	32	17	0	0	100
random	1	1	18	29413	2	1	1	1	0	661	1	4	0	8	18	0	0	100
random	1	1	19	30599	5	3	3	1	0	795	1	4	0	24	19	0	0	100
random	1	1	20	32338	2	2	2	1	0	601	1	4	0	16	20	0	0	100
random	1	1	21	33708	3	3	3	1	0	1127	1	4	0	24	21	0	0	100
random	1	1	22	35833	6	1	1	1	0	836	1	4	0	8	22	0	0	100
random	1	1	23	37497	4	2	2	1	0	966	1	4	0	16	23	0	0	100
random	1	1	24	38862	1	4	4	1	0	716	1	4	0	32	24	0	0	100
random	1	1	25	40764	4	3	3	1	0	1796	1	4	0	24	25	0	0	100
random	1	1	26	43098	2	1	1	1	0	753	1	4	0	8	26	0	0	100
random	1	1	27	44427	5	2	2	1	0	913	1	4	0	16	27	0	0	100
random	1	1	28	46186	6	4	4	1	0	798	1	4	0	32	28	0	0	100
random	1	1	29	47745	1	3	3	1	0	1300	1	4	0	24	29	0	0	100
random	1	1	30	49667	5	2	2	1	0	1378	1	4	0	16	30	0	0	100
random	1	1	31	51528	2	1	1	1	0	796	1	4	0	8	31	0	0	100
random	1	1	32	53163	3	3	3	1	0	1046	1	4	0	24	32	0	0	100
random	1	1	33	54633	6	4	4	1	0	1032	1	4	0	32	33	0	0	100
random	1	1	34	56196	4	2	2	1	0	910	1	4	0	16	34	0	0	100
random	1	1	35	57657	3	4	4	1	0	1128	1	4	0	32	35	0	0	100
random	1	1	36	59741	1	1	1	1	0	808	1	4	0	8	36	0	0	100
random	1	1	37	61348	3	4	4	1	0	1348	1	4	0	32	37	0	0	100
random	1	1	38	63031	5	3	3	1	0	1357	1	4	0	24	38	0	0	100
random	1	1	39	65098	6	1	1	1	0	941	1	4	0	8	39	0	0	100
random	1	1	40	66716	1	2	2	1	0	545	1	4	0	16	40	0	0	100
random	1	1	41	68044	2	3	3	1	0	825	1	4	0	24	41	0	0	100
random	1	1	42	69275	4	4	4	1	0	700	1	4	0	32	42	0	0	100
random	1	1	43	70462	1	2	2	1	0	850	1	4	0	16	43	0	0	100
random	1	1	44	72266	6	3	3	1	0	550	1	4	0	24	44	0	0	100
random	1	1	45	73359	3	1	1	1	0	999	1	4	0	8	45	0	0	100
random	1	1	46	75260	4	4	4	1	0	799	1	4	0	32	46	0	0	100
random	1	1	47	76759	2	2	2	1	0	999	1	4	0	16	47	0	0	100
random	1	1	48	78268	5	1	1	1	0	1328	1	4	0	8	48	0	0	100
random	1	1	49	80478	2	3	3	1	0	1073	1	4	0	24	49	0	0	100
random	1	1	50	82414	3	1	1	1	0	1263	1	4	0	8	50	0	0	100
random	1	1	51	84364	1	4	4	1	0	821	1	4	0	32	51	0	0	100
random	1	1	52	86160	5	3	3	1	0	1457	1	4	0	24	52	0	0	100
random	1	1	53	88377	3	2	2	1	0	723	1	4	0	16	53	0	0	100
random	1	1	54	89772	6	4	4	1	0	1160	1	4	0	32	54	0	0	100
random	1	1	55	91744	4	2	2	1	0	852	1	4	0	16	55	0	0	100
random	1	1	56	93567	1	1	1	1	0	959	1	4	0	8	56	0	0	100
random	1	1	57	95279	5	4	4	1	0	974	1	4	0	32	57	0	0	100
random	1	1	58	97155	2	1	1	1	0	967	1	4	0	8	58	0	0	100
random	1	1	59	98815	6	2	2	1	0	993	1	4	0	16	59	0	0	100
random	1	1	60	100527	4	3	3	1	0	528	1	4	0	24	60	0	0	100
random	1	1	61	102014	1	2	2	1	0	1089	1	4	0	16	61	0	0	100
random	1	1	62	103801	6	4	4	1	0	750	1	4	0	32	62	0	0	100
random	1	1	63	105336	4	1	1	1	0	877	1	4	0	8	63	0	0	100
random	1	1	64	106706	2	2	2	1	0	1059	1	4	0	16	64	0	0	100
random	1	1	65	108616	4	3	3	1	0	1026	1	4	0	24	65	0	0	100
random	1	1	66	110431	3	1	1	1	0	917	1	4	0	8	66	0	0	100
random	1	1	67	112258	1	3	3	1	0	1511	1	4	0	24	67	0	0	100
random	1	1	68	114562	5	4	4	1	0	1182	1	4	0	32	68	0	0	100
random	1	1	69	116493	2	2	2	1	0	1124	1	4	0	16	69	0	0	100
random	1	1	70	118231	3	1	1	1	0	499	1	4	0	8	70	0	0	100
random	1	1	71	119549	5	4	4	1	0	867	1	4	0	32	71	0	0	100
random	1	1	72	121258	6	3	3	1	0	1003	1	4	0	24	72	0	0	100
random	1	1	73	122866	2	1	1	1	0	918	1	4	0	8	73	0	0	100
random	1	1	74	124710	5	3	3	1	0	992	1	4	0	24	74	0	0	100
random	1	1	75	126605	1	4	4	1	0	1528	1	4	0	32	75	0	0	100
random	1	1	76	128928	6	2	2	1	0	829	1	4	0	16	76	0	0	100
random	1	1	77	130397	2	1	1	1	0	1056	1	4	0	8	77	0	0	100
random	1	1	78	131798	4	4	4	1	0	1020	1	4	0	32	78	0	0	100
random	1	1	79	133160	3	2	2	1	0	1178	1	4	0	16	79	0	0	100
random	1	1	80	134753	4	3	3	2	0	1183	2	4	0	24	80	0	0	100
random	1	1	81	136652	1	4	4	1	0	870	1	4	0	32	81	0	0	100
random	1	1	82	137849	5	1	1	1	0	996	1	4	0	8	82	0	0	100
random	1	1	83	139231	3	2	2	1	0	1473	1	4	0	16	83	0	0	100
random	1	1	84	141586	6	3	3	1	0	902	1	4	0	24	84	0	0	100
random	1	1	85	143049	3	2	2	1	0	1254	1	4	0	16	85	0	0	100
random	1	1	86	145244	1	3	3	1	0	795	1	4	0	24	86	0	0	100
random	1	1	87	146960	4	4	4	1	0	1074	1	4	0	32	87	0	0	100
random	1	1	88	148974	2	1	1	1	0	893	1	4	0	8	88	0	0	100
random	1	1	89	150271	6	4	4	1	0	894	1	4	0	32	89	0	0	100
random	1	1	90	151662	3	3	3	1	0	1043	1	4	0	24	90	0	0	100
random	1	1	91	153087	5	4	4	1	0	1127	1	4	0	32	91	0	0	100
random	1	1	92	155115	1	2	2	1	0	784	1	4	0	16	92	0	0	100
random	1	1	93	156534	5	1	1	1	0	676	1	4	0	8	93	0	0	100
random	1	1	94	157738	4	3	3	1	0	897	1	4	0	24	94	0	0	100
random	1	1	95	159059	6	1	1	1	0	1145	1	4	0	8	95	0	0	100
random	1	1	96	160863	2	2	2	1	0	981	1	4	0	16	96	0	0	100
random	1	1	97	162663	4	3	3	2	0	1528	2	4	0	24	97	0	0	100
random	1	1	98	165173	3	2	2	1	0	1030	1	4	0	16	98	0	0	100
random	1	1	99	166582	6	3	3	1	0	1195	1	4	0	24	99	0	0	100
random	1	1	100	168165	1	4	4	1	0	680	1	4	0	32	100	0	0	100
random	1	1	101	169806	4	1	1	1	0	594	1	4	0	8	101	0	0	100
random	1	1	102	170742	5	2	2	1	0	1035	1	4	0	16	102	0	0	100
random	1	1	103	172634	2	4	4	1	0	915	1	4	0	32	103	0	0	100
random	1	1	104	174198	3	1	1	1	0	1520	1	4	0	8	104	0	0	100
random	1	1	105	176455	1	3	3	1	0	833	1	4	0	24	105	0	0	100
random	1	1	106	177663	2	2	2	1	0	574	1	4	0	16	106	0	0	100
random	1	1	107	178838	5	4	4	1	0	899	1	4	0	32	107	0	0	100
random	1	1	108	180599	6	1	1	1	0	1425	1	4	0	8	108	0	0	100
random	1	1	109	183197	5	4	4	1	0	963	1	4	0	32	109	0	0	100
random	1	1	110	185146	6	3	3	1	0	1161	1	4	0	24	110	0	0	100
random	1	1	111	187139	2	2	2	1	0	668	1	4	0	16	111	0	0	100
random	1	1	112	188512	3	1	1	1	0	1098	1	4	0	8	112	0	0	100
random	1	1	113	190548	1	2	2	1	0	891	1	4	0	16	113	0	0	100
random	1	1	114	191829	2	3	3	1	0	1030	1	4	0	24	114	0	0	100
random	1	1	115	193884	3	1	1	1	0	847	1	4	0	8	115	0	0	100
random	1	1	116	195521	4	4	4	1	0	1049	1	4	0	32	116	0	0	100
random	1	1	117	197155	6	1	1	1	0	1020	1	4	0	8	117	0	0	100
random	1	1	118	198696	5	3	3	1	0	1043	1	4	0	24	118	0	0	100
random	1	1	119	200335	1	4	4	1	0	997	1	4	0	32	119	0	0	100
random	1	1	120	202288	4	2	2	1	0	1067	1	4	0	16	120	0	0	100
fixed	2	1	1	204781	4	1	1	1	0	880	1	4	0	40	1	0	0	100
fixed	2	1	2	206258	1	2	2	1	0	1130	1	4	0	48	2	0	0	100
fixed	2	1	3	207803	6	4	4	1	0	881	1	4	0	64	3	0	0	100
fixed	2	1	4	209523	2	1	1	1	0	880	1	4	0	40	4	0	0	100
fixed	2	1	5	211362	5	3	3	1	0	810	1	4	0	56	5	0	0	100
fixed	2	1	6	212595	6	4	4	1	0	790	1	4	0	64	6	0	0	100
fixed	2	1	7	213904	3	1	1	1	0	822	1	4	0	40	7	0	0	100
fixed	2	1	8	215283	2	3	3	1	0	908	1	4	0	56	8	0	0	100
fixed	2	1	9	216496	3	2	2	1	0	944	1	4	0	48	9	0	0	100
fixed	2	1	10	217980	1	4	4	1	0	617	1	4	0	64	10	0	0	100
fixed	2	1	11	219478	5	2	2	1	0	1723	1	4	0	48	11	0	0	100
fixed	2	1	12	222017	4	3	3	1	0	655	1	4	0	56	12	0	0	100
fixed	2	2	1	223880	4	1	1	1	0	1016	1	4	0	40	13	0	0	100
fixed	2	2	2	225754	1	2	2	1	0	1024	1	4	0	48	14	0	0	100
fixed	2	2	3	227463	6	4	4	1	0	736	1	4	0	64	15	0	0	100
fixed	2	2	4	229095	2	1	1	1	0	907	1	4	0	40	16	0	0	100
fixed	2	2	5	230678	5	3	3	1	0	816	1	4	0	56	17	0	0	100
fixed	2	2	6	232025	6	4	4	1	0	863	1	4	0	64	18	0	0	100
fixed	2	2	7	233185	3	1	1	1	0	885	1	4	0	40	19	0	0	100
fixed	2	2	8	234615	2	3	3	1	0	993	1	4	0	56	20	0	0	100
fixed	2	2	9	236243	3	2	2	1	0	892	1	4	0	48	21	0	0	100
fixed	2	2	10	237936	1	4	4	1	0	1052	1	4	0	64	22	0	0	100
fixed	2	2	11	239820	5	2	2	1	0	1565	1	4	0	48	23	0	0	100
fixed	2	2	12	242299	4	3	3	1	0	476	1	4	0	56	24	0	0	100
fixed	2	3	1	243378	4	1	1	1	0	982	1	4	0	40	25	0	0	100
fixed	2	3	2	244997	1	2	2	1	0	889	1	4	0	48	26	0	0	100
fixed	2	3	3	246402	6	4	4	1	0	862	1	4	0	64	27	0	0	100
fixed	2	3	4	248097	2	1	1	1	0	1294	1	4	0	40	28	0	0	100
fixed	2	3	5	249922	5	3	3	1	0	1625	1	4	0	56	29	0	0	100
fixed	2	3	6	252504	6	4	4	1	0	691	1	4	0	64	30	0	0	100
fixed	2	3	7	253624	3	1	1	1	0	1220	1	4	0	40	31	0	0	100
fixed	2	3	8	255255	2	3	3	1	0	1807	1	4	0	56	32	0	0	100
fixed	2	3	9	257536	3	2	2	1	0	606	1	4	0	48	33	0	0	100
fixed	2	3	10	258903	1	4	4	1	0	684	1	4	0	64	34	0	0	100
fixed	2	3	11	260626	5	2	2	1	0	1476	1	4	0	48	35	0	0	100
fixed	2	3	12	262472	4	3	3	1	0	749	1	4	0	56	36	0	0	100
fixed	2	4	1	264263	4	1	1	1	0	713	1	4	0	40	37	0	0	100
fixed	2	4	2	265284	1	2	2	1	0	1478	1	4	0	48	38	0	0	100
fixed	2	4	3	267460	6	4	4	1	0	842	1	4	0	64	39	0	0	100
fixed	2	4	4	268639	2	1	1	1	0	1328	1	4	0	40	40	0	0	100
fixed	2	4	5	270593	5	3	3	2	0	1493	2	4	0	56	41	0	0	100
fixed	2	4	6	272936	6	4	4	1	0	986	1	4	0	64	42	0	0	100
fixed	2	4	7	274721	3	1	1	1	0	990	1	4	0	40	43	0	0	100
fixed	2	4	8	276141	2	3	3	1	0	962	1	4	0	56	44	0	0	100
fixed	2	4	9	278089	3	2	2	1	0	784	1	4	0	48	45	0	0	100
fixed	2	4	10	279447	1	4	4	1	0	1534	1	4	0	64	46	0	0	100
fixed	2	4	11	281393	5	2	2	1	0	1164	1	4	0	48	47	0	0	100
fixed	2	4	12	282936	4	3	3	1	0	635	1	4	0	56	48	0	0	100
fixed	2	5	1	284445	4	1	1	1	0	850	1	4	0	40	49	0	0	100
fixed	2	5	2	285863	1	2	2	1	0	1119	1	4	0	48	50	0	0	100
fixed	2	5	3	287768	6	4	4	1	0	766	1	4	0	64	51	0	0	100
fixed	2	5	4	288859	2	1	1	1	0	1176	1	4	0	40	52	0	0	100
fixed	2	5	5	290853	5	3	3	1	0	1075	1	4	0	56	53	0	0	100
fixed	2	5	6	292303	6	4	4	1	0	814	1	4	0	64	54	0	0	100
fixed	2	5	7	293633	3	1	1	1	0	965	1	4	0	40	55	0	0	100
fixed	2	5	8	295339	2	3	3	1	0	917	1	4	0	56	56	0	0	100
fixed	2	5	9	296640	3	2	2	1	0	606	1	4	0	48	57	0	0	100
fixed	2	5	10	297965	1	4	4	1	0	870	1	4	0	64	58	0	0	100
fixed	2	5	11	299340	5	2	2	2	0	1412	2	4	0	48	59	0	0	100
fixed	2	5	12	301550	4	3	3	1	0	1430	1	4	0	56	60	0	0	100
fixed	2	6	1	304110	4	1	1	1	0	833	1	4	0	40	61	0	0	100
fixed	2	6	2	305709	1	2	2	1	0	1126	1	4	0	48	62	0	0	100
fixed	2	6	3	307167	6	4	4	1	0	856	1	4	0	64	63	0	0	100
fixed	2	6	4	309020	2	1	1	1	0	1601	1	4	0	40	64	0	0	100
fixed	2	6	5	311655	5	3	3	1	0	698	1	4	0	56	65	0	0	100
fixed	2	6	6	312843	6	4	4	1	0	1128	1	4	0	64	66	0	0	100
fixed	2	6	7	314352	3	1	1	1	0	1640	1	4	0	40	67	0	0	100
fixed	2	6	8	317006	2	3	3	1	0	1655	1	4	0	56	68	0	0	100
fixed	2	6	9	319480	3	2	2	1	0	694	1	4	0	48	69	0	0	100
fixed	2	6	10	320927	1	4	4	1	0	986	1	4	0	64	70	0	0	100
fixed	2	6	11	322284	5	2	2	1	0	1296	1	4	0	48	71	0	0	100
fixed	2	6	12	323967	4	3	3	1	0	1457	1	4	0	56	72	0	0	100
fixed	2	7	1	326048	4	1	1	1	0	1528	1	4	0	40	73	0	0	100
fixed	2	7	2	328028	1	2	2	1	0	1117	1	4	0	48	74	0	0	100
fixed	2	7	3	329683	6	4	4	1	0	1367	1	4	0	64	75	0	0	100
fixed	2	7	4	331384	2	1	1	1	0	1495	1	4	0	40	76	0	0	100
fixed	2	7	5	333366	5	3	3	1	0	1018	1	4	0	56	77	0	0	100
fixed	2	7	6	334841	6	4	4	1	0	1092	1	4	0	64	78	0	0	100
fixed	2	7	7	336368	3	1	1	1	0	1612	1	4	0	40	79	0	0	100
fixed	2	7	8	338842	2	3	3	1	0	1123	1	4	0	56	80	0	0	100
fixed	2	7	9	340889	3	2	2	1	0	884	1	4	0	48	81	0	0	100
fixed	2	7	10	342449	1	4	4	1	0	826	1	4	0	64	82	0	0	100
fixed	2	7	11	344161	5	2	2	1	0	1105	1	4	0	48	83	0	0	100
fixed	2	7	12	346036	4	3	3	1	0	978	1	4	0	56	84	0	0	100
fixed	2	8	1	347734	4	1	1	1	0	1410	1	4	0	40	85	0	0	100
fixed	2	8	2	349822	1	2	2	1	0	937	1	4	0	48	86	0	0	100
fixed	2	8	3	351518	6	4	4	1	0	914	1	4	0	64	87	0	0	100
fixed	2	8	4	352803	2	1	1	1	0	1291	1	4	0	40	88	0	0	100
fixed	2	8	5	354542	5	3	3	1	0	1642	1	4	0	56	89	0	0	100
fixed	2	8	6	357174	6	4	4	2	0	1978	2	4	0	64	90	0	0	100
fixed	2	8	7	359682	3	1	1	1	0	1016	1	4	0	40	91	0	0	100
fixed	2	8	8	360985	2	3	3	1	0	1529	1	4	0	56	92	0	0	100
fixed	2	8	9	363442	3	2	2	1	0	681	1	4	0	48	93	0	0	100
fixed	2	8	10	364963	1	4	4	1	0	1288	1	4	0	64	94	0	0	100
fixed	2	8	11	366903	5	2	2	1	0	1038	1	4	0	48	95	0	0	100
fixed	2	8	12	368397	4	3	3	1	0	927	1	4	0	56	96	0	0	100
fixed	2	9	1	370206	4	1	1	1	0	1090	1	4	0	40	97	0	0	100
fixed	2	9	2	372167	1	2	2	1	0	935	1	4	0	48	98	0	0	100
fixed	2	9	3	373448	6	4	4	1	0	857	1	4	0	64	99	0	0	100
fixed	2	9	4	374672	2	1	1	1	0	997	1	4	0	40	100	0	0	100
fixed	2	9	5	376361	5	3	3	1	0	1414	1	4	0	56	101	0	0	100
fixed	2	9	6	378797	6	4	4	1	0	926	1	4	0	64	102	0	0	100
fixed	2	9	7	380529	3	1	1	1	0	1197	1	4	0	40	103	0	0	100
fixed	2	9	8	382497	2	3	3	1	0	930	1	4	0	56	104	0	0	100
fixed	2	9	9	383948	3	2	2	1	0	588	1	4	0	48	105	0	0	100
fixed	2	9	10	384906	1	4	4	1	0	715	1	4	0	64	106	0	0	100
fixed	2	9	11	386286	5	2	2	1	0	945	1	4	0	48	107	0	0	100
fixed	2	9	12	388064	4	3	3	2	0	2062	2	4	0	56	108	0	0	100
fixed	2	10	1	391191	4	1	1	1	0	985	1	4	0	40	109	0	0	100
fixed	2	10	2	393077	1	2	2	1	0	1065	1	4	0	48	110	0	0	100
fixed	2	10	3	394855	6	4	4	1	0	1006	1	4	0	64	111	0	0	100
fixed	2	10	4	396428	2	1	1	1	0	948	1	4	0	40	112	0	0	100
fixed	2	10	5	398307	5	3	3	1	0	1028	1	4	0	56	113	0	0	100
fixed	2	10	6	400141	6	4	4	1	0	799	1	4	0	64	114	0	0	100
fixed	2	10	7	401475	3	1	1	1	0	1918	1	4	0	40	115	0	0	100
fixed	2	10	8	404128	2	3	3	1	0	1014	1	4	0	56	116	0	0	100
fixed	2	10	9	405909	3	2	2	1	0	818	1	4	0	48	117	0	0	100
fixed	2	10	10	407390	1	4	4	1	0	1036	1	4	0	64	118	0	0	100
fixed	2	10	11	409373	5	2	2	1	0	1719	1	4	0	48	119	0	0	100
fixed	2	10	12	411667	4	3	3	1	0	718	1	4	0	56	120	0	0	100
fixed	3	1	1	413610	4	1	1	2	0	2188	2	4	0	72	1	0	0	100
fixed	3	1	2	416647	1	2	2	2	0	2020	2	4	0	80	2	0	0	100
fixed	3	1	3	419044	6	4	4	1	0	838	1	4	0	96	3	0	0	100
fixed	3	1	4	420871	2	1	1	1	0	912	1	4	0	72	4	0	0	100
fixed	3	1	5	422323	5	3	3	1	0	1683	1	4	0	88	5	0	0	100
fixed	3	1	6	425019	6	4	4	1	0	913	1	4	0	96	6	0	0	100
fixed	3	1	7	426700	3	1	1	1	0	1545	1	4	0	72	7	0	0	100
fixed	3	1	8	429167	2	3	3	1	0	1161	1	4	0	88	8	0	0	100
fixed	3	1	9	430949	3	2	2	1	0	1382	1	4	0	80	9	0	0	100
fixed	3	1	10	432874	1	4	4	1	0	1540	1	4	0	96	10	0	0	100
fixed	3	1	11	435076	5	2	2	1	0	1399	1	4	0	80	11	0	0	100
fixed	3	1	12	437169	4	3	3	1	0	910	1	4	0	88	12	0	0	100
fixed	3	2	1	438724	4	1	1	1	0	1460	1	4	0	72	13	0	0	100
fixed	3	2	2	440731	1	2	2	1	0	903	1	4	0	80	14	0	0	100
fixed	3	2	3	442016	6	4	4	1	0	928	1	4	0	96	15	0	0	100
fixed	3	2	4	443412	2	1	1	1	0	1502	1	4	0	72	16	0	0	100
fixed	3	2	5	445700	5	3	3	2	0	1965	2	4	0	88	17	0	0	100
fixed	3	2	6	448389	6	4	4	1	0	979	1	4	0	96	18	0	0	100
fixed	3	2	7	450052	3	1	1	1	0	940	1	4	0	72	19	0	0	100
fixed	3	2	8	451830	2	3	3	1	0	1049	1	4	0	88	20	0	0	100
fixed	3	2	9	453681	3	2	2	1	0	611	1	4	0	80	21	0	0	100
fixed	3	2	10	455147	1	4	4	1	0	668	1	4	0	96	22	0	0	100
fixed	3	2	11	456307	5	2	2	1	0	1276	1	4	0	80	23	0	0	100
fixed	3	2	12	458312	4	3	3	1	0	887	1	4	0	88	24	0	0	100
fixed	3	3	1	460327	4	1	1	1	0	1049	1	4	0	72	25	0	0	100
fixed	3	3	2	462071	1	2	2	1	0	1047	1	4	0	80	26	0	0	100
fixed	3	3	3	464001	6	4	4	1	0	797	1	4	0	96	27	0	0	100
fixed	3	3	4	465624	2	1	1	1	0	969	1	4	0	72	28	0	0	100
fixed	3	3	5	466951	5	3	3	1	0	1873	1	4	0	88	29	0	0	100
fixed	3	3	6	469730	6	4	4	1	0	803	1	4	0	96	30	0	0	100
fixed	3	3	7	470960	3	1	1	1	0	911	1	4	0	72	31	0	0	100
fixed	3	3	8	472307	2	3	0	1	2	0	3	4	0	88	31	0	1	97
fixed	3	3	9	475504	3	2	2	1	0	870	1	4	0	80	32	0	1	97
fixed	3	3	10	477393	1	4	4	1	0	975	1	4	0	96	33	0	1	97
fixed	3	3	11	478786	5	2	2	1	0	1691	1	4	0	80	34	0	1	97
fixed	3	3	12	481489	4	3	3	1	0	1513	1	4	0	88	35	0	1	97
fixed	3	4	1	484052	4	1	1	1	0	868	1	4	0	72	36	0	1	97
fixed	3	4	2	485716	1	2	2	1	0	950	1	4	0	80	37	0	1	97
fixed	3	4	3	487480	6	4	4	1	0	851	1	4	0	96	38	0	1	97
fixed	3	4	4	488940	2	1	1	1	0	1573	1	4	0	72	39	0	1	98
fixed	3	4	5	490991	5	3	3	1	0	1206	1	4	0	88	40	0	1	98
fixed	3	4	6	492685	6	4	4	1	0	1079	1	4	0	96	41	0	1	98
fixed	3	4	7	494168	3	1	1	1	0	1896	1	4	0	72	42	0	1	98
fixed	3	4	8	496884	2	3	3	1	0	909	1	4	0	88	43	0	1	98
fixed	3	4	9	498165	3	2	2	1	0	1095	1	4	0	80	44	0	1	98
fixed	3	4	10	500194	1	4	4	1	0	1345	1	4	0	96	45	0	1	98
fixed	3	4	11	502336	5	2	2	1	0	942	1	4	0	80	46	0	1	98
fixed	3	4	12	504118	4	3	3	1	0	722	1	4	0	88	47	0	1	98
fixed	3	5	1	505605	4	1	1	1	0	1475	1	4	0	72	48	0	1	98
fixed	3	5	2	507424	1	2	2	1	0	1102	1	4	0	80	49	0	1	98
fixed	3	5	3	509535	6	4	4	1	0	1229	1	4	0	96	50	0	1	98
fixed	3	5	4	511220	2	1	1	1	0	1621	1	4	0	72	51	0	1	98
fixed	3	5	5	513591	5	3	3	1	0	809	1	4	0	88	52	0	1	98
fixed	3	5	6	514865	6	4	4	1	0	955	1	4	0	96	53	0	1	98
fixed	3	5	7	516834	3	1	1	1	0	976	1	4	0	72	54	0	1	98
fixed	3	5	8	518743	2	3	3	1	0	1119	1	4	0	88	55	0	1	98
fixed	3	5	9	520638	3	2	2	1	0	743	1	4	0	80	56	0	1	98
fixed	3	5	10	521722	1	4	4	1	0	1705	1	4	0	96	57	0	1	98
fixed	3	5	11	524198	5	2	2	1	0	1040	1	4	0	80	58	0	1	98
fixed	3	5	12	525972	4	3	3	1	0	733	1	4	0	88	59	0	1	98
fixed	3	6	1	527341	4	1	1	1	0	611	1	4	0	72	60	0	1	98
fixed	3	6	2	528713	1	2	2	1	0	1185	1	4	0	80	61	0	1	98
fixed	3	6	3	530239	6	4	4	1	0	736	1	4	0	96	62	0	1	98
fixed	3	6	4	531427	2	1	1	1	0	1302	1	4	0	72	63	0	1	98
fixed	3	6	5	533070	5	3	3	1	0	1248	1	4	0	88	64	0	1	98
fixed	3	6	6	534799	6	4	4	1	0	1015	1	4	0	96	65	0	1	98
fixed	3	6	7	536373	3	1	1	1	0	1580	1	4	0	72	66	0	1	99
fixed	3	6	8	538808	2	3	3	1	0	1253	1	4	0	88	67	0	1	99
fixed	3	6	9	540462	3	2	2	1	0	711	1	4	0	80	68	0	1	99
fixed	3	6	10	541695	1	4	4	1	0	891	1	4	0	96	69	0	1	99
fixed	3	6	11	542925	5	2	2	1	0	1599	1	4	0	80	70	0	1	99
fixed	3	6	12	545164	4	3	3	1	0	1232	1	4	0	88	71	0	1	99
fixed	3	7	1	547224	4	1	1	1	0	928	1	4	0	72	72	0	1	99
fixed	3	7	2	549148	1	2	2	1	0	1063	1	4	0	80	73	0	1	99
fixed	3	7	3	551173	6	4	4	1	0	721	1	4	0	96	74	0	1	99
fixed	3	7	4	552430	2	1	1	1	0	1948	1	4	0	72	75	0	1	99
fixed	3	7	5	554679	5	3	3	1	0	869	1	4	0	88	76	0	1	99
fixed	3	7	6	556375	6	4	4	1	0	1149	1	4	0	96	77	0	1	99
fixed	3	7	7	558114	3	1	1	1	0	1819	1	4	0	72	78	0	1	99
fixed	3	7	8	560224	2	3	3	1	0	1338	1	4	0	88	79	0	1	99
fixed	3	7	9	562358	3	2	2	2	0	1928	2	4	0	80	80	0	1	99
fixed	3	7	10	565109	1	4	4	1	0	907	1	4	0	96	81	0	1	99
fixed	3	7	11	567005	5	2	2	1	0	1563	1	4	0	80	82	0	1	99
fixed	3	7	12	569042	4	3	3	1	0	1700	1	4	0	88	83	0	1	99
fixed	3	8	1	571984	4	1	1	1	0	1576	1	4	0	72	84	0	1	99
fixed	3	8	2	574268	1	2	2	1	0	1343	1	4	0	80	85	0	1	99
fixed	3	8	3	576319	6	4	4	1	0	776	1	4	0	96	86	0	1	99
fixed	3	8	4	577862	2	1	1	1	0	1423	1	4	0	72	87	0	1	99
fixed	3	8	5	580263	5	3	3	1	0	785	1	4	0	88	88	0	1	99
fixed	3	8	6	581495	6	4	4	1	0	1077	1	4	0	96	89	0	1	99
fixed	3	8	7	583424	3	1	1	1	0	1140	1	4	0	72	90	0	1	99
fixed	3	8	8	584938	2	3	3	1	0	1123	1	4	0	88	91	0	1	99
fixed	3	8	9	586494	3	2	2	1	0	1113	1	4	0	80	92	0	1	99
fixed	3	8	10	587967	1	4	4	1	0	819	1	4	0	96	93	0	1	99
fixed	3	8	11	589737	5	2	2	1	0	1024	1	4	0	80	94	0	1	99
fixed	3	8	12	591635	4	3	3	1	0	1480	1	4	0	88	95	0	1	99
fixed	3	9	1	594272	4	1	1	1	0	896	1	4	0	72	96	0	1	99
fixed	3	9	2	595900	1	2	2	1	0	875	1	4	0	80	97	0	1	99
fixed	3	9	3	597637	6	4	4	1	0	1033	1	4	0	96	98	0	1	99
fixed	3	9	4	599317	2	1	1	1	0	1010	1	4	0	72	99	0	1	99
fixed	3	9	5	600664	5	3	3	1	0	969	1	4	0	88	100	0	1	99
fixed	3	9	6	602450	6	4	4	1	0	1022	1	4	0	96	101	0	1	99
fixed	3	9	7	604053	3	1	1	1	0	1722	1	4	0	72	102	0	1	99
fixed	3	9	8	606463	2	3	3	1	0	1324	1	4	0	88	103	0	1	99
fixed	3	9	9	608648	3	2	2	1	0	1151	1	4	0	80	104	0	1	99
fixed	3	9	10	610736	1	4	0	1	2	0	3	4	0	96	104	0	2	98
fixed	3	9	11	613577	5	2	2	1	0	1182	1	4	0	80	105	0	2	98
fixed	3	9	12	615625	4	3	3	1	0	1679	1	4	0	88	106	0	2	98
fixed	3	10	1	618064	4	1	1	1	0	1288	1	4	0	72	107	0	2	98
fixed	3	10	2	619849	1	2	2	1	0	1060	1	4	0	80	108	0	2	98
fixed	3	10	3	621795	6	4	4	1	0	834	1	4	0	96	109	0	2	98
fixed	3	10	4	623034	2	1	1	1	0	990	1	4	0	72	110	0	2	98
fixed	3	10	5	624932	5	3	3	1	0	1901	1	4	0	88	111	0	2	98
fixed	3	10	6	627419	6	4	4	1	0	908	1	4	0	96	112	0	2	98
fixed	3	10	7	628678	3	1	0	0	2	0	3	4	0	72	112	0	3	97
fixed	3	10	8	631488	2	3	3	1	0	1384	1	4	0	88	113	0	3	97
fixed	3	10	9	633347	3	2	2	1	0	713	1	4	0	80	114	0	3	97
fixed	3	10	10	634695	1	4	4	1	0	896	1	4	0	96	115	0	3	97
fixed	3	10	11	635953	5	2	2	1	0	1259	1	4	0	80	116	0	3	97
fixed	3	10	12	637954	4	3	3	1	0	1654	1	4	0	88	117	0	3	98
fixed	4	1	1	786692	4	1	1	1	0	1154	1	4	0	104	1	0	0	100
fixed	4	1	2	788826	1	2	2	1	0	920	1	4	0	112	2	0	0	100
fixed	4	1	3	790488	6	4	4	1	0	777	1	4	0	128	3	0	0	100
fixed	4	1	4	791914	2	1	1	1	0	901	1	4	0	104	4	0	0	100
fixed	4	1	5	793773	5	3	3	1	0	758	1	4	0	120	5	0	0	100
fixed	4	1	6	794848	6	4	4	1	0	752	1	4	0	128	6	0	0	100
fixed	4	1	7	796530	3	1	1	1	0	866	1	4	0	104	7	0	0	100
fixed	4	1	8	797805	2	3	3	1	0	915	1	4	0	120	8	0	0	100
fixed	4	1	9	799493	3	2	2	1	0	644	1	4	0	112	9	0	0	100
fixed	4	1	10	801166	1	4	4	1	0	845	1	4	0	128	10	0	0	100
fixed	4	1	11	802922	5	2	2	1	0	954	1	4	0	112	11	0	0	100
fixed	4	1	12	804859	4	3	3	1	0	712	1	4	0	120	12	0	0	100
fixed	4	2	1	806493	4	1	1	1	0	763	1	4	0	104	13	0	0	100
fixed	4	2	2	808092	1	2	2	1	0	1120	1	4	0	112	14	0	0	100
fixed	4	2	3	810072	6	4	4	1	0	532	1	4	0	128	15	0	0	100
fixed	4	2	4	811167	2	1	1	1	0	878	1	4	0	104	16	0	0	100
fixed	4	2	5	812376	5	3	3	1	0	970	1	4	0	120	17	0	0	100
fixed	4	2	6	814091	6	4	4	1	0	922	1	4	0	128	18	0	0	100
fixed	4	2	7	815658	3	1	1	1	0	903	1	4	0	104	19	0	0	100
fixed	4	2	8	817169	2	3	3	1	0	1271	1	4	0	120	20	0	0	100
fixed	4	2	9	819091	3	2	2	1	0	797	1	4	0	112	21	0	0	100
fixed	4	2	10	820508	1	4	4	1	0	761	1	4	0	128	22	0	0	100
fixed	4	2	11	822103	5	2	2	1	0	1230	1	4	0	112	23	0	0	100
fixed	4	2	12	823783	4	3	3	1	0	671	1	4	0	120	24	0	0	100
fixed	4	3	1	825523	4	1	1	1	0	1085	1	4	0	104	25	0	0	100
fixed	4	3	2	827375	1	2	2	1	0	1166	1	4	0	112	26	0	0	100
fixed	4	3	3	829539	6	4	4	1	0	899	1	4	0	128	27	0	0	100
fixed	4	3	4	831338	2	1	1	2	0	1959	2	4	0	104	28	0	0	100
fixed	4	3	5	833724	5	3	3	1	0	906	1	4	0	120	29	0	0	100
fixed	4	3	6	835643	6	4	4	1	0	1401	1	4	0	128	30	0	0	100
fixed	4	3	7	837592	3	1	1	1	0	670	1	4	0	104	31	0	0	100
fixed	4	3	8	838612	2	3	3	1	0	1211	1	4	0	120	32	0	0	100
fixed	4	3	9	840841	3	2	2	1	0	789	1	4	0	112	33	0	0	100
fixed	4	3	10	842335	1	4	4	1	0	925	1	4	0	128	34	0	0	100
fixed	4	3	11	843841	5	2	2	1	0	941	1	4	0	112	35	0	0	100
fixed	4	3	12	845258	4	3	3	1	0	1353	1	4	0	120	36	0	0	100
fixed	4	4	1	847644	4	1	1	1	0	812	1	4	0	104	37	0	0	100
fixed	4	4	2	849048	1	2	2	1	0	977	1	4	0	112	38	0	0	100
fixed	4	4	3	850723	6	4	4	1	0	762	1	4	0	128	39	0	0	100
fixed	4	4	4	852181	2	1	1	1	0	1452	1	4	0	104	40	0	0	100
fixed	4	4	5	854464	5	3	3	1	0	811	1	4	0	120	41	0	0	100
fixed	4	4	6	856093	6	4	4	1	0	911	1	4	0	128	42	0	0	100
fixed	4	4	7	857558	3	1	1	1	0	1344	1	4	0	104	43	0	0	100
fixed	4	4	8	859417	2	3	3	1	0	969	1	4	0	120	44	0	0	100
fixed	4	4	9	860698	3	2	2	1	0	1979	1	4	0	112	45	0	0	100
fixed	4	4	10	863597	1	4	4	1	0	944	1	4	0	128	46	0	0	100
fixed	4	4	11	864966	5	2	2	1	0	1791	1	4	0	112	47	0	0	100
fixed	4	4	12	867119	4	3	3	1	0	2012	1	4	0	120	48	0	0	100
fixed	4	5	1	869748	4	1	1	1	0	804	1	4	0	104	49	0	0	100
fixed	4	5	2	871245	1	2	2	1	0	925	1	4	0	112	50	0	0	100
fixed	4	5	3	872900	6	4	4	1	0	703	1	4	0	128	51	0	0	100
fixed	4	5	4	874340	2	1	1	1	0	1274	1	4	0	104	52	0	0	100
fixed	4	5	5	876542	5	3	3	1	0	973	1	4	0	120	53	0	0	100
fixed	4	5	6	878248	6	4	4	1	0	924	1	4	0	128	54	0	0	100
fixed	4	5	7	879748	3	1	1	1	0	1557	1	4	0	104	55	0	0	100
fixed	4	5	8	881984	2	3	3	1	0	1126	1	4	0	120	56	0	0	100
fixed	4	5	9	883884	3	2	2	1	0	749	1	4	0	112	57	0	0	100
fixed	4	5	10	885595	1	4	4	1	0	805	1	4	0	128	58	0	0	100
fixed	4	5	11	886857	5	2	2	1	0	1975	1	4	0	112	59	0	0	100
fixed	4	5	12	889463	4	3	3	1	0	1097	1	4	0	120	60	0	0	100
fixed	4	6	1	891552	4	1	1	1	0	1256	1	4	0	104	61	0	0	100
fixed	4	6	2	893381	1	2	2	1	0	819	1	4	0	112	62	0	0	100
fixed	4	6	3	894999	6	4	4	1	0	751	1	4	0	128	63	0	0	100
fixed	4	6	4	896345	2	1	1	1	0	781	1	4	0	104	64	0	0	100
fixed	4	6	5	897891	5	3	3	1	0	836	1	4	0	120	65	0	0	100
fixed	4	6	6	899124	6	4	4	1	0	1080	1	4	0	128	66	0	0	100
fixed	4	6	7	900686	3	1	1	1	0	1086	1	4	0	104	67	0	0	100
fixed	4	6	8	902110	2	3	3	1	0	1665	1	4	0	120	68	0	0	100
fixed	4	6	9	904396	3	2	2	1	0	593	1	4	0	112	69	0	0	100
fixed	4	6	10	905717	1	4	4	1	0	809	1	4	0	128	70	0	0	100
fixed	4	6	11	907385	5	2	2	1	0	858	1	4	0	112	71	0	0	100
fixed	4	6	12	908680	4	3	3	1	0	795	1	4	0	120	72	0	0	100
fixed	4	7	1	910448	4	1	1	1	0	960	1	4	0	104	73	0	0	100
fixed	4	7	2	911972	1	2	2	1	0	1728	1	4	0	112	74	0	0	100
fixed	4	7	3	914240	6	4	4	1	0	671	1	4	0	128	75	0	0	100
fixed	4	7	4	915524	2	1	1	1	0	794	1	4	0	104	76	0	0	100
fixed	4	7	5	917337	5	3	3	1	0	948	1	4	0	120	77	0	0	100
fixed	4	7	6	919290	6	4	4	1	0	962	1	4	0	128	78	0	0	100
fixed	4	7	7	921200	3	1	1	1	0	449	1	4	0	104	79	0	0	100
fixed	4	7	8	922417	2	3	3	1	0	1045	1	4	0	120	80	0	0	100
fixed	4	7	9	923939	3	2	2	1	0	749	1	4	0	112	81	0	0	100
fixed	4	7	10	925568	1	4	4	1	0	1336	1	4	0	128	82	0	0	100
fixed	4	7	11	927461	5	2	2	1	0	992	1	4	0	112	83	0	0	100
fixed	4	7	12	929344	4	3	3	1	0	1552	1	4	0	120	84	0	0	100
fixed	4	8	1	931934	4	1	1	2	0	1682	2	4	0	104	85	0	0	100
fixed	4	8	2	934255	1	2	2	1	0	920	1	4	0	112	86	0	0	100
fixed	4	8	3	936222	6	4	4	1	0	1325	1	4	0	128	87	0	0	100
fixed	4	8	4	937910	2	1	1	1	0	1021	1	4	0	104	88	0	0	100
fixed	4	8	5	939244	5	3	3	1	0	1021	1	4	0	120	89	0	0	100
fixed	4	8	6	941017	6	4	4	1	0	2394	1	4	0	128	90	0	0	100
fixed	4	8	7	943865	3	1	1	1	0	889	1	4	0	104	91	0	0	100
fixed	4	8	8	945780	2	3	3	1	0	1056	1	4	0	120	92	0	0	100
fixed	4	8	9	947403	3	2	2	1	0	1083	1	4	0	112	93	0	0	100
fixed	4	8	10	949468	1	4	4	1	0	1284	1	4	0	128	94	0	0	100
fixed	4	8	11	951383	5	2	2	1	0	1194	1	4	0	112	95	0	0	100
fixed	4	8	12	953469	4	3	3	1	0	1546	1	4	0	120	96	0	0	100
fixed	4	9	1	956144	4	1	1	1	0	1409	1	4	0	104	97	0	0	100
fixed	4	9	2	958586	1	2	2	1	0	1097	1	4	0	112	98	0	0	100
fixed	4	9	3	960609	6	4	4	1	0	1308	1	4	0	128	99	0	0	100
fixed	4	9	4	962407	2	1	1	1	0	935	1	4	0	104	100	0	0	100
fixed	4	9	5	963789	5	3	3	1	0	1037	1	4	0	120	101	0	0	100
fixed	4	9	6	965767	6	4	4	1	0	889	1	4	0	128	102	0	0	100
fixed	4	9	7	967107	3	1	1	1	0	1648	1	4	0	104	103	0	0	100
fixed	4	9	8	969382	2	3	3	1	0	1696	1	4	0	120	104	0	0	100
fixed	4	9	9	971830	3	2	2	1	0	1528	1	4	0	112	105	0	0	100
fixed	4	9	10	974345	1	4	4	1	0	1182	1	4	0	128	106	0	0	100
fixed	4	9	11	976195	5	2	2	1	0	1959	1	4	0	112	107	0	0	100
fixed	4	9	12	978552	4	3	3	1	0	756	1	4	0	120	108	0	0	100
fixed	4	10	1	980503	4	1	1	1	0	1481	1	4	0	104	109	0	0	100
fixed	4	10	2	982734	1	2	2	1	0	1579	1	4	0	112	110	0	0	100
fixed	4	10	3	984672	6	4	4	1	0	929	1	4	0	128	111	0	0	100
fixed	4	10	4	985899	2	1	1	1	0	900	1	4	0	104	112	0	0	100
fixed	4	10	5	987556	5	3	3	1	0	1030	1	4	0	120	113	0	0	100
fixed	4	10	6	989200	6	4	4	1	0	833	1	4	0	128	114	0	0	100
fixed	4	10	7	990837	3	1	1	1	0	1251	1	4	0	104	115	0	0	100
fixed	4	10	8	992605	2	3	3	1	0	1080	1	4	0	120	116	0	0	100
fixed	4	10	9	994312	3	2	2	1	0	728	1	4	0	112	117	0	0	100
fixed	4	10	10	995425	1	4	4	1	0	857	1	4	0	128	118	0	0	100
fixed	4	10	11	996683	5	2	2	1	0	1188	1	4	0	112	119	0	0	100
fixed	4	10	12	998222	4	3	3	1	0	667	1	4	0	120	120	0	0	100
fixed	5	1	1	999731	4	1	1	1	0	778	1	4	0	136	1	0	0	100
fixed	5	1	2	1001250	1	2	2	1	0	939	1	4	0	144	2	0	0	100
fixed	5	1	3	1003191	6	4	4	1	0	816	1	4	0	160	3	0	0	100
fixed	5	1	4	1004509	2	1	1	1	0	1545	1	4	0	136	4	0	0	100
fixed	5	1	5	1006363	5	3	3	1	0	834	1	4	0	152	5	0	0	100
fixed	5	1	6	1007769	6	4	4	1	0	918	1	4	0	160	6	0	0	100
fixed	5	1	7	1008994	3	1	1	1	0	1138	1	4	0	136	7	0	0	100
fixed	5	1	8	1011155	2	3	3	1	0	1095	1	4	0	152	8	0	0	100
fixed	5	1	9	1012917	3	2	2	2	0	1900	2	4	0	144	9	0	0	100
fixed	5	1	10	1015121	1	4	4	1	0	959	1	4	0	160	10	0	0	100
fixed	5	1	11	1016590	5	2	2	1	0	1528	1	4	0	144	11	0	0	100
fixed	5	1	12	1018817	4	3	3	1	0	1314	1	4	0	152	12	0	0	100
fixed	5	2	1	1021036	4	1	1	1	0	1468	1	4	0	136	13	0	0	100
fixed	5	2	2	1023475	1	2	2	1	0	1165	1	4	0	144	14	0	0	100
fixed	5	2	3	1025028	6	4	4	1	0	931	1	4	0	160	15	0	0	100
fixed	5	2	4	1026968	2	1	1	1	0	1097	1	4	0	136	16	0	0	100
fixed	5	2	5	1028948	5	3	3	1	0	1853	1	4	0	152	17	0	0	100
fixed	5	2	6	1031101	6	4	4	1	0	826	1	4	0	160	18	0	0	100
fixed	5	2	7	1032400	3	1	1	1	0	1411	1	4	0	136	19	0	0	100
fixed	5	2	8	1034827	2	3	3	1	0	1340	1	4	0	152	20	0	0	100
fixed	5	2	9	1036556	3	2	2	1	0	2491	1	4	0	144	21	0	0	100
fixed	5	2	10	1040009	1	4	4	1	0	897	1	4	0	160	22	0	0	100
fixed	5	2	11	1041597	5	2	2	1	0	1382	1	4	0	144	23	0	0	100
fixed	5	2	12	1043388	4	3	3	1	0	1057	1	4	0	152	24	0	0	100
fixed	5	3	1	1045145	4	1	1	1	0	799	1	4	0	136	25	0	0	100
fixed	5	3	2	1046514	1	2	2	1	0	1133	1	4	0	144	26	0	0	100
fixed	5	3	3	1048623	6	4	4	1	0	1692	1	4	0	160	27	0	0	100
fixed	5	3	4	1051350	2	1	1	1	0	1136	1	4	0	136	28	0	0	100
fixed	5	3	5	1053367	5	3	3	1	0	1307	1	4	0	152	29	0	0	100
fixed	5	3	6	1055142	6	4	4	1	0	840	1	4	0	160	30	0	0	100
fixed	5	3	7	1056740	3	1	1	1	0	1652	1	4	0	136	31	0	0	100
fixed	5	3	8	1058814	2	3	3	1	0	1500	1	4	0	152	32	0	0	100
fixed	5	3	9	1060747	3	2	2	1	0	595	1	4	0	144	33	0	0	100
fixed	5	3	10	1062069	1	4	4	1	0	946	1	4	0	160	34	0	0	100
fixed	5	3	11	1063433	5	2	2	1	0	1817	1	4	0	144	35	0	0	100
fixed	5	3	12	1066027	4	3	3	1	0	1890	1	4	0	152	36	0	0	100
fixed	5	4	1	1068803	4	1	1	1	0	1093	1	4	0	136	37	0	0	100
fixed	5	4	2	1070265	1	2	2	1	0	1319	1	4	0	144	38	0	0	100
fixed	5	4	3	1072332	6	4	4	1	0	720	1	4	0	160	39	0	0	100
fixed	5	4	4	1073616	2	1	1	1	0	1009	1	4	0	136	40	0	0	100
fixed	5	4	5	1074947	5	3	3	1	0	1849	1	4	0	152	41	0	0	100
fixed	5	4	6	1077263	6	4	4	1	0	855	1	4	0	160	42	0	0	100
fixed	5	4	7	1078767	3	1	1	1	0	1335	1	4	0	136	43	0	0	100
fixed	5	4	8	1080604	2	3	3	1	0	1689	1	4	0	152	44	0	0	100
fixed	5	4	9	1083128	3	2	2	1	0	1198	1	4	0	144	45	0	0	100
fixed	5	4	10	1085356	1	4	4	3	0	2168	2	4	0	160	46	0	0	100
fixed	5	4	11	1088093	5	2	2	1	0	1300	1	4	0	144	47	0	0	100
fixed	5	4	12	1089916	4	3	3	1	0	2135	1	4	0	152	48	0	0	100
fixed	5	5	1	1092896	4	1	1	1	0	960	1	4	0	136	49	0	0	100
fixed	5	5	2	1094245	1	2	2	1	0	976	1	4	0	144	50	0	0	100
fixed	5	5	3	1096067	6	4	4	1	0	1259	1	4	0	160	51	0	0	100
fixed	5	5	4	1098062	2	1	1	1	0	2118	1	4	0	136	52	0	0	100
fixed	5	5	5	1100702	5	3	3	1	0	942	1	4	0	152	53	0	0	100
fixed	5	5	6	1102038	6	4	4	1	0	1917	1	4	0	160	54	0	0	100
fixed	5	5	7	1104304	3	1	1	1	0	1365	1	4	0	136	55	0	0	100
fixed	5	5	8	1106636	2	3	3	1	0	2163	1	4	0	152	56	0	0	100
fixed	5	5	9	1109241	3	2	2	1	0	1780	1	4	0	144	57	0	0	100
fixed	5	5	10	1111991	1	4	4	1	0	872	1	4	0	160	58	0	0	100
fixed	5	5	11	1113568	5	2	2	1	0	1253	1	4	0	144	59	0	0	100
fixed	5	5	12	1115362	4	3	3	1	0	849	1	4	0	152	60	0	0	100
fixed	5	6	1	1117122	4	1	0	0	2	0	3	4	0	136	60	0	1	98
fixed	5	6	2	1120226	1	2	2	1	0	867	1	4	0	144	61	0	1	98
fixed	5	6	3	1122000	6	4	4	1	0	912	1	4	0	160	62	0	1	98
fixed	5	6	4	1123671	2	1	1	1	0	833	1	4	0	136	63	0	1	98
fixed	5	6	5	1125159	5	3	3	2	0	1826	2	4	0	152	64	0	1	98
fixed	5	6	6	1127489	6	4	4	1	0	784	1	4	0	160	65	0	1	98
fixed	5	6	7	1128647	3	1	1	1	0	983	1	4	0	136	66	0	1	99
fixed	5	6	8	1129965	2	3	3	1	0	1391	1	4	0	152	67	0	1	99
fixed	5	6	9	1132036	3	2	2	1	0	903	1	4	0	144	68	0	1	99
fixed	5	6	10	1133362	1	4	4	1	0	902	1	4	0	160	69	0	1	99
fixed	5	6	11	1135086	5	2	2	1	0	966	1	4	0	144	70	0	1	99
fixed	5	6	12	1136774	4	3	3	1	0	1286	1	4	0	152	71	0	1	99
fixed	5	7	1	1139042	4	1	1	1	0	894	1	4	0	136	72	0	1	99
fixed	5	7	2	1140717	1	2	2	1	0	863	1	4	0	144	73	0	1	99
fixed	5	7	3	1142573	6	4	4	1	0	897	1	4	0	160	74	0	1	99
fixed	5	7	4	1144114	2	1	1	1	0	864	1	4	0	136	75	0	1	99
fixed	5	7	5	1145868	5	3	3	1	0	1101	1	4	0	152	76	0	1	99
fixed	5	7	6	1147319	6	4	4	1	0	1016	1	4	0	160	77	0	1	99
fixed	5	7	7	1149329	3	1	1	1	0	1547	1	4	0	136	78	0	1	99
fixed	5	7	8	1151446	2	3	3	1	0	937	1	4	0	152	79	0	1	99
fixed	5	7	9	1152946	3	2	2	1	0	721	1	4	0	144	80	0	1	99
fixed	5	7	10	1154205	1	4	4	1	0	788	1	4	0	160	81	0	1	99
fixed	5	7	11	1155503	5	2	2	1	0	1533	1	4	0	144	82	0	1	99
fixed	5	7	12	1157558	4	3	3	1	0	638	1	4	0	152	83	0	1	99
fixed	5	8	1	1159142	4	1	1	1	0	1611	1	4	0	136	84	0	1	99
fixed	5	8	2	1161267	1	2	2	1	0	1121	1	4	0	144	85	0	1	99
fixed	5	8	3	1162874	6	4	4	1	0	1469	1	4	0	160	86	0	1	99
fixed	5	8	4	1164657	2	1	1	1	0	2009	1	4	0	136	87	0	1	99
fixed	5	8	5	1167709	5	3	3	1	0	1064	1	4	0	152	88	0	1	99
fixed	5	8	6	1169598	6	4	4	1	0	1992	1	4	0	160	89	0	1	99
fixed	5	8	7	1171992	3	1	1	1	0	962	1	4	0	136	90	0	1	99
fixed	5	8	8	1173456	2	3	3	1	0	1333	1	4	0	152	91	0	1	99
fixed	5	8	9	1175279	3	2	2	1	0	1535	1	4	0	144	92	0	1	99
fixed	5	8	10	1177167	1	4	4	1	0	2111	1	4	0	160	93	0	1	99
fixed	5	8	11	1180015	5	2	2	1	0	855	1	4	0	144	94	0	1	99
fixed	5	8	12	1181608	4	3	3	2	0	1971	2	4	0	152	95	0	1	99
fixed	5	9	1	1184387	4	1	1	1	0	885	1	4	0	136	96	0	1	99
fixed	5	9	2	1185792	1	2	2	1	0	786	1	4	0	144	97	0	1	99
fixed	5	9	3	1187031	6	4	4	1	0	1110	1	4	0	160	98	0	1	99
fixed	5	9	4	1189176	2	1	1	1	0	1243	1	4	0	136	99	0	1	99
fixed	5	9	5	1191278	5	3	3	1	0	978	1	4	0	152	100	0	1	99
fixed	5	9	6	1192905	6	4	4	1	0	2380	1	4	0	160	101	0	1	99
fixed	5	9	7	1195747	3	1	1	1	0	980	1	4	0	136	102	0	1	99
fixed	5	9	8	1197285	2	3	3	1	0	1051	1	4	0	152	103	0	1	99
fixed	5	9	9	1198867	3	2	2	1	0	1561	1	4	0	144	104	0	1	99
fixed	5	9	10	1200830	1	4	4	1	0	1485	1	4	0	160	105	0	1	99
fixed	5	9	11	1203126	5	2	0	0	2	0	3	4	0	144	105	0	2	98
fixed	5	9	12	1206518	4	3	3	1	0	876	1	4	0	152	106	0	2	98
fixed	5	10	1	1208496	4	1	1	1	0	1512	1	4	0	136	107	0	2	98
fixed	5	10	2	1210621	1	2	2	1	0	958	1	4	0	144	108	0	2	98
fixed	5	10	3	1212592	6	4	4	1	0	1555	1	4	0	160	109	0	2	98
fixed	5	10	4	1214677	2	1	1	1	0	1402	1	4	0	136	110	0	2	98
fixed	5	10	5	1216552	5	3	3	1	0	987	1	4	0	152	111	0	2	98
fixed	5	10	6	1218337	6	4	4	1	0	1183	1	4	0	160	112	0	2	98
fixed	5	10	7	1219870	3	1	1	1	0	767	1	4	0	136	113	0	2	98
fixed	5	10	8	1221510	2	3	3	1	0	1225	1	4	0	152	114	0	2	98
fixed	5	10	9	1223051	3	2	2	1	0	1080	1	4	0	144	115	0	2	98
fixed	5	10	10	1224986	1	4	0	0	2	0	3	4	0	160	115	0	3	97
fixed	5	10	11	1227915	5	2	2	1	0	1018	1	4	0	144	116	0	3	97
fixed	5	10	12	1229345	4	3	3	1	0	1293	1	4	0	152	117	0	3	98
random	6	1	1	1351528	6	1	1	1	0	766	1	4	0	168	1	0	0	100
random	6	1	2	1352765	4	4	4	1	0	698	1	4	0	192	2	0	0	100
random	6	1	3	1354479	2	2	2	1	0	793	1	4	0	176	3	0	0	100
random	6	1	4	1355902	3	3	3	1	0	453	1	4	0	184	4	0	0	100
random	6	1	5	1356699	5	2	2	1	0	1139	1	4	0	176	5	0	0	100
random	6	1	6	1358320	1	4	4	1	0	831	1	4	0	192	6	0	0	100
random	6	1	7	1359466	6	1	1	1	0	1158	1	4	0	168	7	0	0	100
random	6	1	8	1361444	2	3	3	1	0	1354	1	4	0	184	8	0	0	100
random	6	1	9	1363724	4	2	2	1	0	761	1	4	0	176	9	0	0	100
random	6	1	10	1365195	1	1	1	1	0	859	1	4	0	168	10	0	0	100
random	6	1	11	1366917	5	4	4	1	0	850	1	4	0	192	11	0	0	100
random	6	1	12	1368213	3	3	3	1	0	1100	1	4	0	184	12	0	0	100
random	6	1	13	1370460	5	2	2	1	0	1204	1	4	0	176	13	0	0	100
random	6	1	14	1372544	1	4	4	1	0	1052	1	4	0	192	14	0	0	100
random	6	1	15	1374122	3	1	1	1	0	849	1	4	0	168	15	0	0	100
random	6	1	16	1375723	4	3	3	1	0	1453	1	4	0	184	16	0	0	100
random	6	1	17	1377520	6	4	4	1	0	1122	1	4	0	192	17	0	0	100
random	6	1	18	1379449	2	1	1	1	0	935	1	4	0	168	18	0	0	100
random	6	1	19	1380808	5	3	3	1	0	1734	1	4	0	184	19	0	0	100
random	6	1	20	1383417	2	2	2	1	0	792	1	4	0	176	20	0	0	100
random	6	1	21	1385014	3	3	3	1	0	1652	1	4	0	184	21	0	0	100
random	6	1	22	1387401	6	1	1	1	0	1575	1	4	0	168	22	0	0	100
random	6	1	23	1389392	4	2	2	1	0	1394	1	4	0	176	23	0	0	100
random	6	1	24	1391556	1	4	4	1	0	839	1	4	0	192	24	0	0	100
random	6	1	25	1393266	4	3	3	1	0	2246	1	4	0	184	25	0	0	100
random	6	1	26	1396449	2	1	1	1	0	920	1	4	0	168	26	0	0	100
random	6	1	27	1398028	5	2	2	1	0	1101	1	4	0	176	27	0	0	100
random	6	1	28	1399939	6	4	4	1	0	828	1	4	0	192	28	0	0	100
random	6	1	29	1401447	1	3	3	1	0	1588	1	4	0	184	29	0	0	100
random	6	1	30	1403668	5	2	2	1	0	870	1	4	0	176	30	0	0	100
random	6	1	31	1405126	2	1	1	1	0	920	1	4	0	168	31	0	0	100
random	6	1	32	1406728	3	3	3	1	0	1037	1	4	0	184	32	0	0	100
random	6	1	33	1408414	6	4	4	1	0	989	1	4	0	192	33	0	0	100
random	6	1	34	1410347	4	2	2	1	0	1019	1	4	0	176	34	0	0	100
random	6	1	35	1412016	3	4	4	1	0	748	1	4	0	192	35	0	0	100
random	6	1	36	1413417	1	1	1	1	0	889	1	4	0	168	36	0	0	100
random	6	1	37	1414869	3	4	4	1	0	1363	1	4	0	192	37	0	0	100
random	6	1	38	1417170	5	3	3	1	0	1594	1	4	0	184	38	0	0	100
random	6	1	39	1419289	6	1	1	1	0	888	1	4	0	168	39	0	0	100
random	6	1	40	1420519	1	2	2	1	0	564	1	4	0	176	40	0	0	100
random	6	1	41	1421899	2	3	3	2	0	1426	2	4	0	184	41	0	0	100
random	6	1	42	1423717	4	4	4	1	0	909	1	4	0	192	42	0	0	100
random	6	1	43	1425386	1	2	2	1	0	966	1	4	0	176	43	0	0	100
random	6	1	44	1427127	6	3	3	1	0	1237	1	4	0	184	44	0	0	100
random	6	1	45	1429339	3	1	1	1	0	766	1	4	0	168	45	0	0	100
random	6	1	46	1430515	4	4	4	1	0	925	1	4	0	192	46	0	0	100
random	6	1	47	1432036	2	2	2	1	0	924	1	4	0	176	47	0	0	100
random	6	1	48	1433469	5	1	1	1	0	1584	1	4	0	168	48	0	0	100
random	6	1	49	1435854	2	3	3	1	0	1090	1	4	0	184	49	0	0	100
random	6	1	50	1437742	3	1	1	1	0	1522	1	4	0	168	50	0	0	100
random	6	1	51	1439767	1	4	4	1	0	869	1	4	0	192	51	0	0	100
random	6	1	52	1441068	5	3	3	1	0	854	1	4	0	184	52	0	0	100
random	6	1	53	1442452	3	2	2	1	0	1019	1	4	0	176	53	0	0	100
random	6	1	54	1444501	6	4	4	1	0	829	1	4	0	192	54	0	0	100
random	6	1	55	1446129	4	2	2	1	0	1375	1	4	0	176	55	0	0	100
random	6	1	56	1448436	1	1	1	1	0	726	1	4	0	168	56	0	0	100
random	6	1	57	1450090	5	4	4	1	0	815	1	4	0	192	57	0	0	100
random	6	1	58	1451383	2	1	1	1	0	1345	1	4	0	168	58	0	0	100
random	6	1	59	1453320	6	2	2	1	0	1095	1	4	0	176	59	0	0	100
random	6	1	60	1454844	4	3	3	1	0	1062	1	4	0	184	60	0	0	100
random	6	1	61	1456555	1	2	2	1	0	1222	1	4	0	176	61	0	0	100
random	6	1	62	1458438	6	4	4	1	0	990	1	4	0	192	62	0	0	100
random	6	1	63	1460071	4	1	1	1	0	2065	1	4	0	168	63	0	0	100
random	6	1	64	1462959	2	2	2	1	0	807	1	4	0	176	64	0	0	100
random	6	1	65	1464178	4	3	3	1	0	955	1	4	0	184	65	0	0	100
random	6	1	66	1466040	3	1	1	1	0	1156	1	4	0	168	66	0	0	100
random	6	1	67	1468165	1	3	3	1	0	1082	1	4	0	184	67	0	0	100
random	6	1	68	1469884	5	4	4	1	0	1074	1	4	0	192	68	0	0	100
random	6	1	69	1471366	2	2	2	1	0	1355	1	4	0	176	69	0	0	100
random	6	1	70	1473580	3	1	1	1	0	1124	1	4	0	168	70	0	0	100
random	6	1	71	1475076	5	4	4	1	0	1718	1	4	0	192	71	0	0	100
random	6	1	72	1477356	6	3	3	2	0	1493	2	4	0	184	72	0	0	100
random	6	1	73	1479878	2	1	1	1	0	1874	1	4	0	168	73	0	0	100
random	6	1	74	1482549	5	3	3	1	0	952	1	4	0	184	74	0	0	100
random	6	1	75	1484523	1	4	4	1	0	1253	1	4	0	192	75	0	0	100
random	6	1	76	1486185	6	2	2	1	0	855	1	4	0	176	76	0	0	100
random	6	1	77	1487393	2	1	1	1	0	1092	1	4	0	168	77	0	0	100
random	6	1	78	1488845	4	4	4	1	0	918	1	4	0	192	78	0	0	100
random	6	1	79	1490267	3	2	2	1	0	1018	1	4	0	176	79	0	0	100
random	6	1	80	1491630	4	3	3	1	0	872	1	4	0	184	80	0	0	100
random	6	1	81	1493108	1	4	4	1	0	1321	1	4	0	192	81	0	0	100
random	6	1	82	1495341	5	1	1	1	0	1603	1	4	0	168	82	0	0	100
random	6	1	83	1497717	3	2	2	1	0	887	1	4	0	176	83	0	0	100
random	6	1	84	1499554	6	3	3	1	0	769	1	4	0	184	84	0	0	100
random	6	1	85	1501214	3	2	2	1	0	1562	1	4	0	176	85	0	0	100
random	6	1	86	1503501	1	3	3	1	0	641	1	4	0	184	86	0	0	100
random	6	1	87	1504936	4	4	4	1	0	1101	1	4	0	192	87	0	0	100
random	6	1	88	1506399	2	1	1	1	0	1239	1	4	0	168	88	0	0	100
random	6	1	89	1508483	6	4	4	1	0	1142	1	4	0	192	89	0	0	100
random	6	1	90	1510232	3	3	3	1	0	989	1	4	0	184	90	0	0	100
random	6	1	91	1511975	5	4	4	1	0	1218	1	4	0	192	91	0	0	100
random	6	1	92	1513800	1	2	2	1	0	877	1	4	0	176	92	0	0	100
random	6	1	93	1515696	5	1	1	1	0	1149	1	4	0	168	93	0	0	100
random	6	1	94	1517726	4	3	3	1	0	1263	1	4	0	184	94	0	0	100
random	6	1	95	1519554	6	1	1	1	0	1362	1	4	0	168	95	0	0	100
random	6	1	96	1521204	2	2	2	1	0	940	1	4	0	176	96	0	0	100
random	6	1	97	1523368	4	3	3	1	0	1720	1	4	0	184	97	0	0	100
random	6	1	98	1525641	3	2	2	1	0	735	1	4	0	176	98	0	0	100
random	6	1	99	1526839	6	3	3	1	0	861	1	4	0	184	99	0	0	100
random	6	1	100	1528351	1	4	4	1	0	949	1	4	0	192	100	0	0	100
random	6	1	101	1529643	4	1	1	1	0	2182	1	4	0	168	101	0	0	100
random	6	1	102	1532826	5	2	2	1	0	1127	1	4	0	176	102	0	0	100
random	6	1	103	1534910	2	4	4	1	0	759	1	4	0	192	103	0	0	100
random	6	1	104	1536025	3	1	1	1	0	1624	1	4	0	168	104	0	0	100
random	6	1	105	1538387	1	3	3	1	0	859	1	4	0	184	105	0	0	100
random	6	1	106	1539730	2	2	2	1	0	739	1	4	0	176	106	0	0	100
random	6	1	107	1540829	5	4	4	1	0	812	1	4	0	192	107	0	0	100
random	6	1	108	1542050	6	1	1	2	0	2121	2	4	0	168	108	0	0	100
random	6	1	109	1545389	5	4	4	1	0	931	1	4	0	192	109	0	0	100
random	6	1	110	1547284	6	3	3	1	0	1419	1	4	0	184	110	0	0	100
random	6	1	111	1549156	2	2	2	1	0	772	1	4	0	176	111	0	0	100
random	6	1	112	1550313	3	1	1	1	0	1051	1	4	0	168	112	0	0	100
random	6	1	113	1551922	1	2	2	1	0	998	1	4	0	176	113	0	0	100
random	6	1	114	1553881	2	3	3	1	0	1075	1	4	0	184	114	0	0	100
random	6	1	115	1555697	3	1	1	1	0	1094	1	4	0	168	115	0	0	100
random	6	1	116	1557174	4	4	4	1	0	1096	1	4	0	192	116	0	0	100
random	6	1	117	1559168	6	1	1	1	0	1212	1	4	0	168	117	0	0	100
random	6	1	118	1561084	5	3	3	1	0	866	1	4	0	184	118	0	0	100
random	6	1	119	1562287	1	4	4	1	0	840	1	4	0	192	119	0	0	100
random	6	1	120	1563505	4	2	2	1	0	1332	1	4	0	176	120	0	0	100
fixed	7	1	1	1565937	4	1	1	1	0	1173	1	4	0	200	1	0	0	100
fixed	7	1	2	1567475	1	2	2	1	0	811	1	4	0	208	2	0	0	100
fixed	7	1	3	1569173	6	4	4	1	0	724	1	4	0	224	3	0	0	100
fixed	7	1	4	1570546	2	1	1	1	0	1602	1	4	0	200	4	0	0	100
fixed	7	1	5	1572561	5	3	3	1	0	1132	1	4	0	216	5	0	0	100
fixed	7	1	6	1574314	6	4	4	1	0	922	1	4	0	224	6	0	0	100
fixed	7	1	7	1575635	3	1	1	1	0	1978	1	4	0	200	7	0	0	100
fixed	7	1	8	1578368	2	3	3	1	0	1190	1	4	0	216	8	0	0	100
fixed	7	1	9	1580578	3	2	2	1	0	1441	1	4	0	208	9	0	0	100
fixed	7	1	10	1582752	1	4	4	1	0	893	1	4	0	224	10	0	0	100
fixed	7	1	11	1584114	5	2	2	1	0	1435	1	4	0	208	11	0	0	100
fixed	7	1	12	1586375	4	3	3	1	0	803	1	4	0	216	12	0	0	100
fixed	7	2	1	1588027	4	1	1	1	0	1229	1	4	0	200	1	0	0	8
fixed	7	2	2	1589929	1	2	2	1	0	1148	1	4	0	208	2	0	0	14
fixed	7	2	3	1592002	6	4	4	1	0	1373	1	4	0	224	3	0	0	20
fixed	7	2	4	1593835	2	1	1	1	0	1327	1	4	0	200	4	0	0	25
fixed	7	2	5	1595605	5	3	3	1	0	1084	1	4	0	216	5	0	0	29
fixed	7	2	6	1597286	6	4	4	1	0	869	1	4	0	224	6	0	0	33
fixed	7	2	7	1598539	3	1	1	1	0	1864	1	4	0	200	7	0	0	37
fixed	7	2	8	1601384	2	3	3	1	0	1344	1	4	0	216	8	0	0	40
fixed	7	2	9	1603712	3	2	2	1	0	1317	1	4	0	208	9	0	0	43
fixed	7	2	10	1605504	1	4	4	1	0	1081	1	4	0	224	10	0	0	45
fixed	7	2	11	1606951	5	2	2	1	0	1684	1	4	0	208	11	0	0	48
fixed	7	2	12	1609175	4	3	3	1	0	886	1	4	0	216	12	0	0	50
fixed	7	3	1	1611201	4	1	1	1	0	1296	1	4	0	200	1	0	0	4
fixed	7	3	2	1612842	1	2	2	1	0	1298	1	4	0	208	2	0	0	8
fixed	7	3	3	1615013	6	4	4	1	0	974	1	4	0	224	3	0	0	11
fixed	7	3	4	1616943	2	1	1	1	0	909	1	4	0	200	4	0	0	14
fixed	7	3	5	1618796	5	3	3	1	0	1262	1	4	0	216	5	0	0	17
fixed	7	3	6	1621035	6	4	4	1	0	1039	1	4	0	224	6	0	0	20
fixed	7	3	7	1622422	3	1	1	1	0	1221	1	4	0	200	7	0	0	23
fixed	7	3	8	1624034	2	3	3	1	0	1552	1	4	0	216	8	0	0	25
fixed	7	3	9	1625944	3	2	2	1	0	1791	1	4	0	208	9	0	0	27
fixed	7	3	10	1628641	1	4	4	1	0	1933	1	4	0	224	10	0	0	29
fixed	7	3	11	1631194	5	2	2	1	0	1009	1	4	0	208	11	0	0	31
fixed	7	3	12	1633066	4	3	3	1	0	2042	1	4	0	216	12	0	0	33
fixed	7	4	1	1636045	4	1	1	1	0	1107	1	4	0	200	1	0	0	3
fixed	7	4	2	1638108	1	2	2	1	0	940	1	4	0	208	2	0	0	5
fixed	7	4	3	1639468	6	4	4	1	0	1258	1	4	0	224	3	0	0	8
fixed	7	4	4	1641097	2	1	1	1	0	1062	1	4	0	200	4	0	0	10
fixed	7	4	5	1642723	5	3	3	1	0	897	1	4	0	216	5	0	0	12
fixed	7	4	6	1644196	6	4	4	1	0	1618	1	4	0	224	6	0	0	14
fixed	7	4	7	1646331	3	1	1	1	0	1256	1	4	0	200	7	0	0	16
fixed	7	4	8	1647988	2	3	3	1	0	1217	1	4	0	216	8	0	0	18
fixed	7	4	9	1649550	3	2	2	1	0	1471	1	4	0	208	9	0	0	20
fixed	7	4	10	1651933	1	4	0	1	2	0	3	4	0	224	9	0	1	20
fixed	7	4	11	1655437	5	2	2	1	0	958	1	4	0	208	10	0	1	21
fixed	7	4	12	1657057	4	3	3	2	0	1810	2	4	0	216	11	0	1	23
fixed	7	5	1	1660121	4	1	1	1	0	903	1	4	0	200	1	0	0	2
fixed	7	5	2	1661668	1	2	2	1	0	886	1	4	0	208	2	0	0	4
fixed	7	5	3	1663021	6	4	4	1	0	877	1	4	0	224	3	0	0	6
fixed	7	5	4	1664319	2	1	1	1	0	1510	1	4	0	200	4	0	0	8
fixed	7	5	5	1666693	5	3	3	1	0	1313	1	4	0	216	5	0	0	9
fixed	7	5	6	1668429	6	4	4	1	0	1272	1	4	0	224	6	0	0	11
fixed	7	5	7	1670318	3	1	1	1	0	1168	1	4	0	200	7	0	0	13
fixed	7	5	8	1672140	2	3	3	1	0	1187	1	4	0	216	8	0	0	14
fixed	7	5	9	1674114	3	2	2	1	0	943	1	4	0	208	9	0	0	16
fixed	7	5	10	1675608	1	4	4	1	0	911	1	4	0	224	10	0	0	17
fixed	7	5	11	1677450	5	2	2	1	0	906	1	4	0	208	11	0	0	19
fixed	7	5	12	1679287	4	3	3	1	0	1804	1	4	0	216	12	0	0	20
fixed	7	6	1	1682208	4	1	1	1	0	912	1	4	0	200	1	0	0	2
fixed	7	6	2	1683827	1	2	2	1	0	1195	1	4	0	208	2	0	0	3
fixed	7	6	3	1685709	6	4	4	1	0	964	1	4	0	224	3	0	0	5
fixed	7	6	4	1687571	2	1	1	1	0	837	1	4	0	200	4	0	0	6
fixed	7	6	5	1689094	5	3	3	1	0	1852	1	4	0	216	5	0	0	8
fixed	7	6	6	1691247	6	4	4	1	0	825	1	4	0	224	6	0	0	9
fixed	7	6	7	1692437	3	1	1	1	0	983	1	4	0	200	7	0	0	10
fixed	7	6	8	1694138	2	3	3	1	0	919	1	4	0	216	8	0	0	12
fixed	7	6	9	1695474	3	2	2	1	0	934	1	4	0	208	9	0	0	13
fixed	7	6	10	1697098	1	4	4	1	0	1321	1	4	0	224	10	0	0	14
fixed	7	6	11	1699182	5	2	2	1	0	1105	1	4	0	208	11	0	0	15
fixed	7	6	12	1701104	4	3	3	1	0	1008	1	4	0	216	12	0	0	17
fixed	7	7	1	1702775	4	1	1	1	0	1321	1	4	0	200	1	0	0	1
fixed	7	7	2	1705095	1	2	2	1	0	1198	1	4	0	208	2	0	0	3
fixed	7	7	3	1706992	6	4	4	1	0	1615	1	4	0	224	3	0	0	4
fixed	7	7	4	1709560	2	1	1	1	0	1194	1	4	0	200	4	0	0	5
fixed	7	7	5	1711329	5	3	3	1	0	1767	1	4	0	216	5	0	0	6
fixed	7	7	6	1714081	6	4	4	1	0	962	1	4	0	224	6	0	0	8
fixed	7	7	7	1715448	3	1	1	1	0	1328	1	4	0	200	7	0	0	9
fixed	7	7	8	1717218	2	3	0	1	2	0	3	4	0	216	7	0	1	9
fixed	7	7	9	1720020	3	2	2	1	0	1967	1	4	0	208	8	0	1	10
fixed	7	7	10	1722611	1	4	4	2	0	1969	2	4	0	224	9	0	1	11
fixed	7	7	11	1725196	5	2	2	1	0	1187	1	4	0	208	10	0	1	12
fixed	7	7	12	1727304	4	3	3	2	0	1946	2	4	0	216	11	0	1	13
fixed	7	8	1	1729892	4	1	1	1	0	1556	1	4	0	200	1	0	0	1
fixed	7	8	2	1732463	1	2	2	1	0	888	1	4	0	208	2	0	0	2
fixed	7	8	3	1733859	6	4	4	1	0	1061	1	4	0	224	3	0	0	3
fixed	7	8	4	1735363	2	1	1	1	0	1221	1	4	0	200	4	0	0	5
fixed	7	8	5	1737569	5	3	3	1	0	1575	1	4	0	216	5	0	0	6
fixed	7	8	6	1739534	6	4	0	0	2	0	3	4	0	224	5	0	1	6
fixed	7	8	7	1742603	3	1	1	1	0	954	1	4	0	200	6	0	1	7
fixed	7	8	8	1743899	2	3	3	1	0	1547	1	4	0	216	7	0	1	8
fixed	7	8	9	1746003	3	2	2	1	0	1186	1	4	0	208	8	0	1	9
fixed	7	8	10	1747785	1	4	4	1	0	1046	1	4	0	224	9	0	1	10
fixed	7	8	11	1749555	5	2	2	2	0	1963	2	4	0	208	10	0	1	11
fixed	7	8	12	1751857	4	3	3	1	0	914	1	4	0	216	11	0	1	11
fixed	7	9	1	1753901	4	1	1	1	0	1603	1	4	0	200	1	0	0	1
fixed	7	9	2	1756229	1	2	2	1	0	921	1	4	0	208	2	0	0	2
fixed	7	9	3	1757870	6	4	4	1	0	1252	1	4	0	224	3	0	0	3
fixed	7	9	4	1759695	2	1	1	1	0	2239	1	4	0	200	4	0	0	4
fixed	7	9	5	1762267	5	3	3	1	0	1010	1	4	0	216	5	0	0	5
fixed	7	9	6	1763630	6	4	0	0	2	0	3	4	0	224	5	0	1	5
fixed	7	9	7	1766888	3	1	1	1	0	1134	1	4	0	200	6	0	1	6
fixed	7	9	8	1769040	2	3	3	1	0	954	1	4	0	216	7	0	1	7
fixed	7	9	9	1770314	3	2	2	1	0	852	1	4	0	208	8	0	1	8
fixed	7	9	10	1772006	1	4	4	1	0	877	1	4	0	224	9	0	1	8
fixed	7	9	11	1773525	5	2	2	1	0	1021	1	4	0	208	10	0	1	9
fixed	7	9	12	1775010	4	3	3	1	0	1262	1	4	0	216	11	0	1	10
fixed	7	10	1	1777175	4	1	1	1	0	1402	1	4	0	200	1	0	0	1
fixed	7	10	2	1779233	1	2	2	1	0	1427	1	4	0	208	2	0	0	2
fixed	7	10	3	1781025	6	4	4	1	0	1511	1	4	0	224	3	0	0	3
fixed	7	10	4	1783009	2	1	1	1	0	1283	1	4	0	200	4	0	0	4
fixed	7	10	5	1785168	5	3	3	1	0	1327	1	4	0	216	5	0	0	4
fixed	7	10	6	1787004	6	4	4	1	0	970	1	4	0	224	6	0	0	5
fixed	7	10	7	1788979	3	1	0	1	2	0	3	4	0	200	6	0	1	5
fixed	7	10	8	1792370	2	3	3	1	0	1478	1	4	0	216	7	0	1	6
fixed	7	10	9	1794865	3	2	2	1	0	1309	1	4	0	208	8	0	1	7
fixed	7	10	10	1797076	1	4	4	1	0	983	1	4	0	224	9	0	1	8
fixed	7	10	11	1798345	5	2	2	1	0	1001	1	4	0	208	10	0	1	8
fixed	7	10	12	1800078	4	3	3	1	0	944	1	4	0	216	11	0	1	9
