type	block	sequ.	trial	time	Pos.	Color	Button	NumRsp	Resp_1	RT_1	R_Code	Resp_2	RT_2	Trigg.	n_hit	n_inc	n_miss	score_%

random	1	1	1	2295	6	1	0	0	2	0	3	4	0	8	0	0	1	0
random	1	1	2	5833	4	4	4	1	0	1881	1	4	0	32	1	0	1	50
random	1	1	3	8269	2	2	2	1	0	1018	1	4	0	16	2	0	1	67
random	1	1	4	10307	3	3	3	1	0	996	1	4	0	24	3	0	1	75
random	1	1	5	12002	5	2	0	1	2	0	3	4	0	16	3	0	2	60
random	1	1	6	15437	1	4	4	1	0	1003	1	4	0	32	4	0	2	67
random	1	1	7	17046	6	1	1	1	0	1255	1	4	0	8	5	0	2	71
random	1	1	8	19136	2	3	3	1	0	1421	1	4	0	24	6	0	2	75
random	1	1	9	21153	4	2	0	1	2	0	3	4	0	16	6	0	3	67
random	1	1	10	24322	1	1	1	1	0	930	1	4	0	8	7	0	3	70
random	1	1	11	25917	5	4	4	1	0	991	1	4	0	32	8	0	3	73
random	1	1	12	27558	3	3	3	1	0	1153	1	4	0	24	9	0	3	75
random	1	1	13	29346	5	2	0	1	2	0	3	4	0	16	9	0	4	69
random	1	1	14	32180	1	4	4	1	0	925	1	4	0	32	10	0	4	71
random	1	1	15	33413	3	1	1	1	0	953	1	4	0	8	11	0	4	73
random	1	1	16	35360	4	3	3	1	0	1006	1	4	0	24	12	0	4	75
random	1	1	17	37017	6	4	4	1	0	984	1	4	0	32	13	0	4	76
random	1	1	18	38690	2	1	1	1	0	897	1	4	0	8	14	0	4	78
random	1	1	19	40093	5	3	3	1	0	1174	1	4	0	24	15	0	4	79
random	1	1	20	41858	2	2	0	1	2	0	3	4	0	16	15	0	5	75
random	1	1	21	44693	3	3	0	1	2	0	3	4	0	24	15	0	6	71
random	1	1	22	47829	6	1	1	1	0	1206	1	4	0	8	16	0	6	73
random	1	1	23	50063	4	2	0	1	2	0	3	4	0	16	16	0	7	70
random	1	1	24	53315	1	4	4	1	0	870	1	4	0	32	17	0	7	71
random	1	1	25	54893	4	3	3	1	0	1675	1	4	0	24	18	0	7	72
random	1	1	26	57109	2	1	1	1	0	902	1	4	0	8	19	0	7	73
random	1	1	27	58449	5	2	0	1	2	0	3	4	0	16	19	0	8	70
random	1	1	28	61468	6	4	4	1	0	869	1	4	0	32	20	0	8	71
random	1	1	29	63153	1	3	3	1	0	1253	1	4	0	24	21	0	8	72
random	1	1	30	64948	5	2	0	1	2	0	3	4	0	16	21	0	9	70
random	1	1	31	67804	2	1	1	1	0	801	1	4	0	8	22	0	9	71
random	1	1	32	69298	3	3	3	1	0	1825	1	4	0	24	23	0	9	72
random	1	1	33	71611	6	4	4	1	0	839	1	4	0	32	24	0	9	73
random	1	1	34	73297	4	2	0	1	2	0	3	4	0	16	24	0	10	71
random	1	1	35	76683	3	4	4	1	0	864	1	4	0	32	25	0	10	71
random	1	1	36	77965	1	1	1	1	0	1066	1	4	0	8	26	0	10	72
random	1	1	37	79821	3	4	4	1	0	915	1	4	0	32	27	0	10	73
random	1	1	38	81397	5	3	3	1	0	1089	1	4	0	24	28	0	10	74
random	1	1	39	82963	6	1	1	1	0	1182	1	4	0	8	29	0	10	74
random	1	1	40	84825	1	2	2	1	0	1168	1	4	0	16	30	0	10	75
random	1	1	41	86947	2	3	3	1	0	1326	1	4	0	24	31	0	10	76
random	1	1	42	88769	4	4	4	1	0	793	1	4	0	32	32	0	10	76
random	1	1	43	90010	1	2	0	0	2	0	3	4	0	16	32	0	11	74
random	1	1	44	93045	6	3	3	1	0	1907	1	4	0	24	33	0	11	75
random	1	1	45	95309	3	1	1	1	0	1139	1	4	0	8	34	0	11	76
random	1	1	46	97388	4	4	4	1	0	763	1	4	0	32	35	0	11	76
random	1	1	47	98855	2	2	2	1	0	1765	1	4	0	16	36	0	11	77
random	1	1	48	101151	5	1	1	1	0	852	1	4	0	8	37	0	11	77
random	1	1	49	103245	2	3	3	1	0	1259	1	4	0	24	38	0	11	78
random	1	1	50	104843	3	1	1	1	0	840	1	4	0	8	39	0	11	78
random	1	1	51	106660	1	4	4	1	0	835	1	4	0	32	40	0	11	78
random	1	1	52	107820	5	3	3	1	0	1202	1	4	0	24	41	0	11	79
random	1	1	53	109722	3	2	2	1	0	865	1	4	0	16	42	0	11	79
random	1	1	54	111147	6	4	4	1	0	852	1	4	0	32	43	0	11	80
random	1	1	55	112918	4	2	0	1	2	0	3	4	0	16	43	0	12	78
random	1	1	56	115841	1	1	1	1	0	766	1	4	0	8	44	0	12	79
random	1	1	57	117384	5	4	4	1	0	772	1	4	0	32	45	0	12	79
random	1	1	58	118692	2	1	1	1	0	957	1	4	0	8	46	0	12	79
random	1	1	59	120294	6	2	0	1	2	0	3	4	0	16	46	0	13	78
random	1	1	60	123416	4	3	3	1	0	2101	1	4	0	24	47	0	13	78
random	1	1	61	126435	1	2	2	1	0	1157	1	4	0	16	48	0	13	79
random	1	1	62	128271	6	4	4	1	0	751	1	4	0	32	49	0	13	79
random	1	1	63	129975	4	1	1	1	0	855	1	4	0	8	50	0	13	79
random	1	1	64	131616	2	2	2	1	0	985	1	4	0	16	51	0	13	80
random	1	1	65	132917	4	3	0	1	2	0	3	4	0	24	51	0	14	78
random	1	1	66	136099	3	1	1	1	0	788	1	4	0	8	52	0	14	79
random	1	1	67	137237	1	3	3	1	0	1676	1	4	0	24	53	0	14	79
random	1	1	68	139902	5	4	4	1	0	851	1	4	0	32	54	0	14	79
random	1	1	69	141662	2	2	2	1	0	1352	1	4	0	16	55	0	14	80
random	1	1	70	143335	3	1	1	1	0	881	1	4	0	8	56	0	14	80
random	1	1	71	144935	5	4	4	1	0	773	1	4	0	32	57	0	14	80
random	1	1	72	146230	6	3	3	1	0	1687	1	4	0	24	58	0	14	81
random	1	1	73	148991	2	1	1	1	0	858	1	4	0	8	59	0	14	81
random	1	1	74	150572	5	3	3	1	0	1367	1	4	0	24	60	0	14	81
random	1	1	75	152352	1	4	4	1	0	843	1	4	0	32	61	0	14	81
random	1	1	76	154125	6	2	2	1	0	912	1	4	0	16	62	0	14	82
random	1	1	77	155433	2	1	1	1	0	865	1	4	0	8	63	0	14	82
random	1	1	78	156804	4	4	4	1	0	695	1	4	0	32	64	0	14	82
random	1	1	79	157836	3	2	2	1	0	1115	1	4	0	16	65	0	14	82
random	1	1	80	159442	4	3	3	1	0	1479	1	4	0	24	66	0	14	83
random	1	1	81	161706	1	4	4	1	0	711	1	4	0	32	67	0	14	83
random	1	1	82	162738	5	1	1	1	0	940	1	4	0	8	68	0	14	83
random	1	1	83	164195	3	2	2	1	0	1278	1	4	0	16	69	0	14	83
random	1	1	84	165769	6	3	0	1	2	0	3	4	0	24	69	0	15	82
random	1	1	85	169541	3	2	2	1	0	2411	1	4	0	16	70	0	15	82
random	1	1	86	172491	1	3	3	1	0	1327	1	4	0	24	71	0	15	83
random	1	1	87	174787	4	4	4	1	0	757	1	4	0	32	72	0	15	83
random	1	1	88	176246	2	1	1	1	0	887	1	4	0	8	73	0	15	83
random	1	1	89	177641	6	4	4	1	0	1397	1	4	0	32	74	0	15	83
random	1	1	90	179831	3	3	3	1	0	2191	1	4	0	24	75	0	15	83
random	1	1	91	182349	5	4	4	1	0	789	1	4	0	32	76	0	15	84
random	1	1	92	184102	1	2	2	1	0	899	1	4	0	16	77	0	15	84
random	1	1	93	185758	5	1	1	1	0	861	1	4	0	8	78	0	15	84
random	1	1	94	187554	4	3	3	1	0	1392	1	4	0	24	79	0	15	84
random	1	1	95	189850	6	1	1	1	0	839	1	4	0	8	80	0	15	84
random	1	1	96	191589	2	2	2	1	0	1086	1	4	0	16	81	0	15	84
random	1	1	97	193383	4	3	3	1	0	1185	1	4	0	24	82	0	15	85
random	1	1	98	195135	3	2	2	1	0	1079	1	4	0	16	83	0	15	85
random	1	1	99	196872	6	3	3	1	0	1365	1	4	0	24	84	0	15	85
random	1	1	100	198536	1	4	4	1	0	727	1	4	0	32	85	0	15	85
random	1	1	101	200170	4	1	1	1	0	1242	1	4	0	8	86	0	15	85
random	1	1	102	201729	5	2	0	0	2	0	3	4	0	16	86	0	16	84
random	1	1	103	204930	2	4	4	1	0	808	1	4	0	32	87	0	16	84
random	1	1	104	206217	3	1	1	1	0	810	1	4	0	8	88	0	16	85
random	1	1	105	207370	1	3	3	1	0	1929	1	4	0	24	89	0	16	85
random	1	1	106	210282	2	2	2	1	0	606	1	4	0	16	90	0	16	85
random	1	1	107	211286	5	4	4	1	0	683	1	4	0	32	91	0	16	85
random	1	1	108	212566	6	1	1	1	0	1413	1	4	0	8	92	0	16	85
random	1	1	109	215070	5	4	4	1	0	923	1	4	0	32	93	0	16	85
random	1	1	110	216952	6	3	3	1	0	1923	1	4	0	24	94	0	16	85
random	1	1	111	219867	2	2	2	1	0	808	1	4	0	16	95	0	16	86
random	1	1	112	221009	3	1	1	1	0	1000	1	4	0	8	96	0	16	86
random	1	1	113	222544	1	2	2	1	0	1494	1	4	0	16	97	0	16	86
random	1	1	114	225039	2	3	3	1	0	677	1	4	0	24	98	0	16	86
random	1	1	115	226594	3	1	1	1	0	867	1	4	0	8	99	0	16	86
random	1	1	116	227767	4	4	4	1	0	737	1	4	0	32	100	0	16	86
random	1	1	117	229526	6	1	1	1	0	831	1	4	0	8	101	0	16	86
random	1	1	118	230867	5	3	3	1	0	1214	1	4	0	24	102	0	16	86
random	1	1	119	232924	1	4	4	1	0	759	1	4	0	32	103	0	16	87
random	1	1	120	234666	4	2	2	1	0	605	1	4	0	16	104	0	16	87
fixed	2	1	1	236704	4	1	1	1	0	950	1	4	0	40	1	0	0	100
fixed	2	1	2	238223	1	2	2	1	0	1686	1	4	0	48	2	0	0	100
fixed	2	1	3	240605	6	4	4	1	0	745	1	4	0	64	3	0	0	100
fixed	2	1	4	242359	2	1	1	1	0	775	1	4	0	40	4	0	0	100
fixed	2	1	5	244153	5	3	3	1	0	1043	1	4	0	56	5	0	0	100
fixed	2	1	6	246029	6	4	4	1	0	739	1	4	0	64	6	0	0	100
fixed	2	1	7	247291	3	1	1	1	0	838	1	4	0	40	7	0	0	100
fixed	2	1	8	248749	2	3	3	1	0	1128	1	4	0	56	8	0	0	100
fixed	2	1	9	250860	3	2	2	1	0	1183	1	4	0	48	9	0	0	100
fixed	2	1	10	252454	1	4	4	1	0	780	1	4	0	64	10	0	0	100
fixed	2	1	11	254246	5	2	2	1	0	1048	1	4	0	48	11	0	0	100
fixed	2	1	12	255696	4	3	3	1	0	1850	1	4	0	56	12	0	0	100
fixed	2	2	1	258526	4	1	1	1	0	818	1	4	0	40	13	0	0	100
fixed	2	2	2	259694	1	2	2	1	0	1321	1	4	0	48	14	0	0	100
fixed	2	2	3	261591	6	4	4	1	0	761	1	4	0	64	15	0	0	100
fixed	2	2	4	262978	2	1	1	1	0	918	1	4	0	40	16	0	0	100
fixed	2	2	5	264680	5	3	0	1	2	0	3	4	0	56	16	0	1	94
fixed	2	2	6	268160	6	4	4	1	0	699	1	4	0	64	17	0	1	94
fixed	2	2	7	269560	3	1	1	1	0	815	1	4	0	40	18	0	1	95
fixed	2	2	8	270864	2	3	3	1	0	704	1	4	0	56	19	0	1	95
fixed	2	2	9	271903	3	2	2	1	0	1044	1	4	0	48	20	0	1	95
fixed	2	2	10	273680	1	4	4	1	0	712	1	4	0	64	21	0	1	95
fixed	2	2	11	274703	5	2	2	1	0	1181	1	4	0	48	22	0	1	96
fixed	2	2	12	276213	4	3	3	1	0	813	1	4	0	56	23	0	1	96
fixed	2	3	1	278158	4	1	1	1	0	827	1	4	0	40	24	0	1	96
fixed	2	3	2	279490	1	2	0	1	2	0	3	4	0	48	24	0	2	92
fixed	2	3	3	282841	6	4	4	1	0	717	1	4	0	64	25	0	2	93
fixed	2	3	4	284016	2	1	1	1	0	947	1	4	0	40	26	0	2	93
fixed	2	3	5	285618	5	3	3	1	0	2351	1	4	0	56	27	0	2	93
fixed	2	3	6	288633	6	4	4	1	0	831	1	4	0	64	28	0	2	93
fixed	2	3	7	289802	3	1	1	1	0	909	1	4	0	40	29	0	2	94
fixed	2	3	8	291259	2	3	3	1	0	1448	1	4	0	56	30	0	2	94
fixed	2	3	9	293264	3	2	2	1	0	931	1	4	0	48	31	0	2	94
fixed	2	3	10	295015	1	4	4	1	0	681	1	4	0	64	32	0	2	94
fixed	2	3	11	296550	5	2	2	1	0	856	1	4	0	48	33	0	2	94
fixed	2	3	12	298371	4	3	3	1	0	1643	1	4	0	56	34	0	2	94
fixed	2	4	1	301064	4	1	1	1	0	856	1	4	0	40	35	0	2	95
fixed	2	4	2	302781	1	2	2	1	0	1080	1	4	0	48	36	0	2	95
fixed	2	4	3	304639	6	4	4	1	0	801	1	4	0	64	37	0	2	95
fixed	2	4	4	305932	2	1	1	1	0	1475	1	4	0	40	38	0	2	95
fixed	2	4	5	308095	5	3	3	1	0	575	1	4	0	56	39	0	2	95
fixed	2	4	6	309169	6	4	4	1	0	889	1	4	0	64	40	0	2	95
fixed	2	4	7	311056	3	1	1	1	0	937	1	4	0	40	41	0	2	95
fixed	2	4	8	312986	2	3	3	1	0	1072	1	4	0	56	42	0	2	95
fixed	2	4	9	314536	3	2	2	1	0	1238	1	4	0	48	43	0	2	96
fixed	2	4	10	316252	1	4	4	1	0	757	1	4	0	64	44	0	2	96
fixed	2	4	11	317317	5	2	2	1	0	961	1	4	0	48	45	0	2	96
fixed	2	4	12	319177	4	3	3	1	0	2185	1	4	0	56	46	0	2	96
fixed	2	5	1	321982	4	1	1	1	0	2178	1	4	0	40	47	0	2	96
fixed	2	5	2	324941	1	2	2	1	0	701	1	4	0	48	48	0	2	96
fixed	2	5	3	326553	6	4	4	1	0	721	1	4	0	64	49	0	2	96
fixed	2	5	4	328216	2	1	1	1	0	770	1	4	0	40	50	0	2	96
fixed	2	5	5	329855	5	3	3	1	0	541	1	4	0	56	51	0	2	96
fixed	2	5	6	330713	6	4	4	1	0	785	1	4	0	64	52	0	2	96
fixed	2	5	7	331801	3	1	1	1	0	987	1	4	0	40	53	0	2	96
fixed	2	5	8	333300	2	3	3	1	0	1571	1	4	0	56	54	0	2	96
fixed	2	5	9	335260	3	2	2	1	0	617	1	4	0	48	55	0	2	96
fixed	2	5	10	336464	1	4	4	1	0	582	1	4	0	64	56	0	2	97
fixed	2	5	11	338070	5	2	2	1	0	1161	1	4	0	48	57	0	2	97
fixed	2	5	12	340122	4	3	3	1	0	515	1	4	0	56	58	0	2	97
fixed	2	6	1	341296	4	1	1	1	0	768	1	4	0	40	59	0	2	97
fixed	2	6	2	342447	1	2	2	1	0	1208	1	4	0	48	60	0	2	97
fixed	2	6	3	344084	6	4	4	1	0	730	1	4	0	64	61	0	2	97
fixed	2	6	4	345420	2	1	1	1	0	818	1	4	0	40	62	0	2	97
fixed	2	6	5	346704	5	3	3	1	0	1012	1	4	0	56	63	0	2	97
fixed	2	6	6	348649	6	4	4	1	0	729	1	4	0	64	64	0	2	97
fixed	2	6	7	350278	3	1	1	1	0	772	1	4	0	40	65	0	2	97
fixed	2	6	8	351434	2	3	3	1	0	1132	1	4	0	56	66	0	2	97
fixed	2	6	9	353485	3	2	2	1	0	853	1	4	0	48	67	0	2	97
fixed	2	6	10	355040	1	4	4	1	0	707	1	4	0	64	68	0	2	97
fixed	2	6	11	356400	5	2	2	1	0	1057	1	4	0	48	69	0	2	97
fixed	2	6	12	358277	4	3	3	1	0	1098	1	4	0	56	70	0	2	97
fixed	2	7	1	360643	4	1	1	1	0	909	1	4	0	40	71	0	2	97
fixed	2	7	2	362545	1	2	2	1	0	1108	1	4	0	48	72	0	2	97
fixed	2	7	3	364397	6	4	4	1	0	671	1	4	0	64	73	0	2	97
fixed	2	7	4	365430	2	1	1	1	0	835	1	4	0	40	74	0	2	97
fixed	2	7	5	367143	5	3	3	1	0	642	1	4	0	56	75	0	2	97
fixed	2	7	6	368650	6	4	4	1	0	706	1	4	0	64	76	0	2	97
fixed	2	7	7	370381	3	1	1	1	0	1041	1	4	0	40	77	0	2	97
fixed	2	7	8	372046	2	3	3	1	0	1442	1	4	0	56	78	0	2	98
fixed	2	7	9	374459	3	2	2	1	0	2492	1	4	0	48	79	0	2	98
fixed	2	7	10	377931	1	4	4	1	0	793	1	4	0	64	80	0	2	98
fixed	2	7	11	379222	5	2	0	1	2	0	3	4	0	48	80	0	3	96
fixed	2	7	12	382364	4	3	3	1	0	2389	1	4	0	56	81	0	3	96
fixed	2	8	1	385872	4	1	1	1	0	856	1	4	0	40	82	0	3	96
fixed	2	8	2	387414	1	2	2	1	0	839	1	4	0	48	83	0	3	97
fixed	2	8	3	388616	6	4	4	1	0	1012	1	4	0	64	84	0	3	97
fixed	2	8	4	390403	2	1	1	1	0	905	1	4	0	40	85	0	3	97
fixed	2	8	5	391655	5	3	3	1	0	1276	1	4	0	56	86	0	3	97
fixed	2	8	6	393659	6	4	4	1	0	1383	1	4	0	64	87	0	3	97
fixed	2	8	7	395671	3	1	1	1	0	914	1	4	0	40	88	0	3	97
fixed	2	8	8	397099	2	3	3	2	0	1997	2	4	0	56	89	0	3	97
fixed	2	8	9	399603	3	2	2	1	0	1243	1	4	0	48	90	0	3	97
fixed	2	8	10	401251	1	4	4	1	0	813	1	4	0	64	91	0	3	97
fixed	2	8	11	402533	5	2	2	1	0	1207	1	4	0	48	92	0	3	97
fixed	2	8	12	404375	4	3	3	1	0	1505	1	4	0	56	93	0	3	97
fixed	2	9	1	406439	4	1	1	1	0	969	1	4	0	40	94	0	3	97
fixed	2	9	2	408433	1	2	2	1	0	1301	1	4	0	48	95	0	3	97
fixed	2	9	3	410058	6	4	4	1	0	1384	1	4	0	64	96	0	3	97
fixed	2	9	4	411770	2	1	1	1	0	1687	1	4	0	40	97	0	3	97
fixed	2	9	5	413889	5	3	3	1	0	1142	1	4	0	56	98	0	3	97
fixed	2	9	6	415905	6	4	4	1	0	825	1	4	0	64	99	0	3	97
fixed	2	9	7	417466	3	1	1	1	0	854	1	4	0	40	100	0	3	97
fixed	2	9	8	418643	2	3	3	1	0	1685	1	4	0	56	101	0	3	97
fixed	2	9	9	420919	3	2	2	1	0	821	1	4	0	48	102	0	3	97
fixed	2	9	10	422440	1	4	4	1	0	740	1	4	0	64	103	0	3	97
fixed	2	9	11	424088	5	2	2	1	0	1318	1	4	0	48	104	0	3	97
fixed	2	9	12	425923	4	3	3	1	0	1256	1	4	0	56	105	0	3	97
fixed	2	10	1	427858	4	1	1	1	0	790	1	4	0	40	106	0	3	97
fixed	2	10	2	429183	1	2	2	1	0	1102	1	4	0	48	107	0	3	97
fixed	2	10	3	430664	6	4	4	1	0	815	1	4	0	64	108	0	3	97
fixed	2	10	4	432105	2	1	1	1	0	922	1	4	0	40	109	0	3	97
fixed	2	10	5	433989	5	3	3	1	0	522	1	4	0	56	110	0	3	97
fixed	2	10	6	435107	6	4	4	1	0	747	1	4	0	64	111	0	3	97
fixed	2	10	7	436253	3	1	1	1	0	843	1	4	0	40	112	0	3	97
fixed	2	10	8	437996	2	3	3	1	0	1481	1	4	0	56	113	0	3	97
fixed	2	10	9	440051	3	2	2	1	0	674	1	4	0	48	114	0	3	97
fixed	2	10	10	441175	1	4	4	1	0	682	1	4	0	64	115	0	3	97
fixed	2	10	11	442778	5	2	2	1	0	1014	1	4	0	48	116	0	3	97
fixed	2	10	12	444738	4	3	3	1	0	1243	1	4	0	56	117	0	3	98
fixed	3	1	1	447487	4	1	1	1	0	951	1	4	0	72	1	0	0	100
fixed	3	1	2	449353	1	2	2	1	0	1224	1	4	0	80	2	0	0	100
fixed	3	1	3	451287	6	4	4	1	0	670	1	4	0	96	3	0	0	100
fixed	3	1	4	452388	2	1	1	1	0	1023	1	4	0	72	4	0	0	100
fixed	3	1	5	454276	5	3	3	1	0	527	1	4	0	88	5	0	0	100
fixed	3	1	6	455727	6	4	4	1	0	802	1	4	0	96	6	0	0	100
fixed	3	1	7	457300	3	1	1	1	0	695	1	4	0	72	7	0	0	100
fixed	3	1	8	458293	2	3	3	1	0	1021	1	4	0	88	8	0	0	100
fixed	3	1	9	459827	3	2	2	1	0	620	1	4	0	80	9	0	0	100
fixed	3	1	10	461160	1	4	4	1	0	796	1	4	0	96	10	0	0	100
fixed	3	1	11	462577	5	2	2	1	0	1048	1	4	0	80	11	0	0	100
fixed	3	1	12	464336	4	3	3	1	0	757	1	4	0	88	12	0	0	100
fixed	3	2	1	465651	4	1	1	1	0	805	1	4	0	72	13	0	0	100
fixed	3	2	2	467138	1	2	2	1	0	830	1	4	0	80	14	0	0	100
fixed	3	2	3	468730	6	4	4	1	0	619	1	4	0	96	15	0	0	100
fixed	3	2	4	469644	2	1	1	1	0	748	1	4	0	72	16	0	0	100
fixed	3	2	5	471027	5	3	3	2	0	2490	2	4	0	88	17	0	0	100
fixed	3	2	6	474044	6	4	4	1	0	786	1	4	0	96	18	0	0	100
fixed	3	2	7	475677	3	1	1	1	0	693	1	4	0	72	19	0	0	100
fixed	3	2	8	477072	2	3	3	1	0	1226	1	4	0	88	20	0	0	100
fixed	3	2	9	479257	3	2	2	1	0	1485	1	4	0	80	21	0	0	100
fixed	3	2	10	481065	1	4	4	1	0	657	1	4	0	96	22	0	0	100
fixed	3	2	11	482144	5	2	2	1	0	1067	1	4	0	80	23	0	0	100
fixed	3	2	12	483496	4	3	3	1	0	818	1	4	0	88	24	0	0	100
fixed	3	3	1	484915	4	1	1	1	0	773	1	4	0	72	25	0	0	100
fixed	3	3	2	486359	1	2	2	1	0	1553	1	4	0	80	26	0	0	100
fixed	3	3	3	488846	6	4	4	1	0	687	1	4	0	96	27	0	0	100
fixed	3	3	4	490512	2	1	1	1	0	736	1	4	0	72	28	0	0	100
fixed	3	3	5	491876	5	3	3	1	0	1591	1	4	0	88	29	0	0	100
fixed	3	3	6	494279	6	4	4	1	0	937	1	4	0	96	30	0	0	100
fixed	3	3	7	496069	3	1	1	1	0	789	1	4	0	72	31	0	0	100
fixed	3	3	8	497619	2	3	3	1	0	1220	1	4	0	88	32	0	0	100
fixed	3	3	9	499422	3	2	2	1	0	1223	1	4	0	80	33	0	0	100
fixed	3	3	10	501040	1	4	4	1	0	891	1	4	0	96	34	0	0	100
fixed	3	3	11	502792	5	2	2	1	0	1240	1	4	0	80	35	0	0	100
fixed	3	3	12	504785	4	3	3	1	0	644	1	4	0	88	36	0	0	100
fixed	3	4	1	506050	4	1	1	1	0	926	1	4	0	72	37	0	0	100
fixed	3	4	2	507659	1	2	2	1	0	1394	1	4	0	80	38	0	0	100
fixed	3	4	3	509556	6	4	4	1	0	770	1	4	0	96	39	0	0	100
fixed	3	4	4	511108	2	1	1	1	0	793	1	4	0	72	40	0	0	100
fixed	3	4	5	512912	5	3	3	1	0	1388	1	4	0	88	41	0	0	100
fixed	3	4	6	515085	6	4	4	1	0	856	1	4	0	96	42	0	0	100
fixed	3	4	7	516957	3	1	1	1	0	761	1	4	0	72	43	0	0	100
fixed	3	4	8	518005	2	3	3	1	0	1084	1	4	0	88	44	0	0	100
fixed	3	4	9	519996	3	2	2	1	0	656	1	4	0	80	45	0	0	100
fixed	3	4	10	521630	1	4	4	1	0	923	1	4	0	96	46	0	0	100
fixed	3	4	11	523051	5	2	2	1	0	1287	1	4	0	80	47	0	0	100
fixed	3	4	12	525213	4	3	3	1	0	563	1	4	0	88	48	0	0	100
fixed	3	5	1	526634	4	1	1	1	0	870	1	4	0	72	49	0	0	100
fixed	3	5	2	528147	1	2	2	1	0	1231	1	4	0	80	50	0	0	100
fixed	3	5	3	530287	6	4	0	0	2	0	3	4	0	96	50	0	1	98
fixed	3	5	4	533793	2	1	1	1	0	736	1	4	0	72	51	0	1	98
fixed	3	5	5	535128	5	3	0	0	2	0	3	4	0	88	51	0	2	96
fixed	3	5	6	538302	6	4	4	1	0	777	1	4	0	96	52	0	2	96
fixed	3	5	7	539565	3	1	1	1	0	763	1	4	0	72	53	0	2	96
fixed	3	5	8	540786	2	3	3	1	0	1071	1	4	0	88	54	0	2	96
fixed	3	5	9	542901	3	2	2	1	0	662	1	4	0	80	55	0	2	96
fixed	3	5	10	544127	1	4	4	1	0	682	1	4	0	96	56	0	2	97
fixed	3	5	11	545741	5	2	2	1	0	926	1	4	0	80	57	0	2	97
fixed	3	5	12	547110	4	3	3	1	0	684	1	4	0	88	58	0	2	97
fixed	3	6	1	548788	4	1	1	1	0	772	1	4	0	72	59	0	2	97
fixed	3	6	2	550540	1	2	2	1	0	1018	1	4	0	80	60	0	2	97
fixed	3	6	3	552122	6	4	4	1	0	1175	1	4	0	96	61	0	2	97
fixed	3	6	4	553664	2	1	1	1	0	949	1	4	0	72	62	0	2	97
fixed	3	6	5	555402	5	3	3	1	0	1180	1	4	0	88	63	0	2	97
fixed	3	6	6	557081	6	4	4	1	0	797	1	4	0	96	64	0	2	97
fixed	3	6	7	558449	3	1	1	1	0	859	1	4	0	72	65	0	2	97
fixed	3	6	8	560246	2	3	3	1	0	1303	1	4	0	88	66	0	2	97
fixed	3	6	9	562367	3	2	2	1	0	1149	1	4	0	80	67	0	2	97
fixed	3	6	10	564532	1	4	4	1	0	881	1	4	0	96	68	0	2	97
fixed	3	6	11	566034	5	2	2	1	0	922	1	4	0	80	69	0	2	97
fixed	3	6	12	567368	4	3	3	1	0	1681	1	4	0	88	70	0	2	97
fixed	3	7	1	569706	4	1	1	1	0	886	1	4	0	72	71	0	2	97
fixed	3	7	2	571291	1	2	2	1	0	1299	1	4	0	80	72	0	2	97
fixed	3	7	3	573108	6	4	4	1	0	1574	1	4	0	96	73	0	2	97
fixed	3	7	4	575411	2	1	1	1	0	909	1	4	0	72	74	0	2	97
fixed	3	7	5	577053	5	3	3	1	0	991	1	4	0	88	75	0	2	97
fixed	3	7	6	578917	6	4	4	1	0	816	1	4	0	96	76	0	2	97
fixed	3	7	7	580069	3	1	1	1	0	1711	1	4	0	72	77	0	2	97
fixed	3	7	8	582244	2	3	3	1	0	1179	1	4	0	88	78	0	2	98
fixed	3	7	9	583887	3	2	2	1	0	870	1	4	0	80	79	0	2	98
fixed	3	7	10	585714	1	4	4	1	0	1024	1	4	0	96	80	0	2	98
fixed	3	7	11	587058	5	2	2	1	0	1232	1	4	0	80	81	0	2	98
fixed	3	7	12	588985	4	3	3	1	0	1229	1	4	0	88	82	0	2	98
fixed	3	8	1	590908	4	1	1	1	0	1668	1	4	0	72	83	0	2	98
fixed	3	8	2	593391	1	2	2	1	0	1427	1	4	0	80	84	0	2	98
fixed	3	8	3	595328	6	4	4	1	0	689	1	4	0	96	85	0	2	98
fixed	3	8	4	596491	2	1	1	1	0	1240	1	4	0	72	86	0	2	98
fixed	3	8	5	598553	5	3	3	1	0	993	1	4	0	88	87	0	2	98
fixed	3	8	6	599846	6	4	4	1	0	1033	1	4	0	96	88	0	2	98
fixed	3	8	7	601392	3	1	1	1	0	728	1	4	0	72	89	0	2	98
fixed	3	8	8	602815	2	3	3	1	0	1068	1	4	0	88	90	0	2	98
fixed	3	8	9	604426	3	2	2	1	0	768	1	4	0	80	91	0	2	98
fixed	3	8	10	605641	1	4	4	1	0	773	1	4	0	96	92	0	2	98
fixed	3	8	11	606830	5	2	2	1	0	914	1	4	0	80	93	0	2	98
fixed	3	8	12	608653	4	3	3	2	0	1693	2	4	0	88	94	0	2	98
fixed	3	9	1	611175	4	1	1	1	0	826	1	4	0	72	95	0	2	98
fixed	3	9	2	612562	1	2	2	1	0	1319	1	4	0	80	96	0	2	98
fixed	3	9	3	614670	6	4	4	1	0	742	1	4	0	96	97	0	2	98
fixed	3	9	4	615912	2	1	1	1	0	785	1	4	0	72	98	0	2	98
fixed	3	9	5	617038	5	3	0	0	2	0	3	4	0	88	98	0	3	97
fixed	3	9	6	620362	6	4	4	1	0	772	1	4	0	96	99	0	3	97
fixed	3	9	7	622116	3	1	1	1	0	818	1	4	0	72	100	0	3	97
fixed	3	9	8	623506	2	3	3	1	0	887	1	4	0	88	101	0	3	97
fixed	3	9	9	624923	3	2	2	1	0	635	1	4	0	80	102	0	3	97
fixed	3	9	10	626215	1	4	4	1	0	933	1	4	0	96	103	0	3	97
fixed	3	9	11	627543	5	2	2	1	0	909	1	4	0	80	104	0	3	97
fixed	3	9	12	629008	4	3	3	1	0	1703	1	4	0	88	105	0	3	97
fixed	3	10	1	631892	4	1	1	1	0	1772	1	4	0	72	106	0	3	97
fixed	3	10	2	634112	1	2	2	1	0	1254	1	4	0	80	107	0	3	97
fixed	3	10	3	636357	6	4	4	1	0	751	1	4	0	96	108	0	3	97
fixed	3	10	4	637615	2	1	1	1	0	922	1	4	0	72	109	0	3	97
fixed	3	10	5	638984	5	3	3	1	0	2016	1	4	0	88	110	0	3	97
fixed	3	10	6	641994	6	4	4	1	0	729	1	4	0	96	111	0	3	97
fixed	3	10	7	643519	3	1	1	1	0	880	1	4	0	72	112	0	3	97
fixed	3	10	8	645353	2	3	3	1	0	1131	1	4	0	88	113	0	3	97
fixed	3	10	9	646920	3	2	2	1	0	656	1	4	0	80	114	0	3	97
fixed	3	10	10	648205	1	4	4	1	0	674	1	4	0	96	115	0	3	97
fixed	3	10	11	649404	5	2	2	1	0	959	1	4	0	80	116	0	3	97
fixed	3	10	12	650942	4	3	3	1	0	1669	1	4	0	88	117	0	3	98
fixed	4	1	1	751266	4	1	1	1	0	1020	1	4	0	104	1	0	0	100
fixed	4	1	2	752818	1	2	2	1	0	683	1	4	0	112	2	0	0	100
fixed	4	1	3	754433	6	4	4	1	0	894	1	4	0	128	3	0	0	100
fixed	4	1	4	755709	2	1	1	1	0	800	1	4	0	104	4	0	0	100
fixed	4	1	5	756865	5	3	3	1	0	1279	1	4	0	120	5	0	0	100
fixed	4	1	6	758493	6	4	4	1	0	818	1	4	0	128	6	0	0	100
fixed	4	1	7	759746	3	1	1	1	0	829	1	4	0	104	7	0	0	100
fixed	4	1	8	761012	2	3	3	1	0	1111	1	4	0	120	8	0	0	100
fixed	4	1	9	762991	3	2	2	1	0	844	1	4	0	112	9	0	0	100
fixed	4	1	10	764760	1	4	4	1	0	777	1	4	0	128	10	0	0	100
fixed	4	1	11	766451	5	2	2	1	0	1017	1	4	0	112	11	0	0	100
fixed	4	1	12	767929	4	3	3	1	0	1386	1	4	0	120	12	0	0	100
fixed	4	2	1	770265	4	1	1	1	0	751	1	4	0	104	13	0	0	100
fixed	4	2	2	771434	1	2	2	1	0	1078	1	4	0	112	14	0	0	100
fixed	4	2	3	773047	6	4	4	1	0	794	1	4	0	128	15	0	0	100
fixed	4	2	4	774870	2	1	1	1	0	773	1	4	0	104	16	0	0	100
fixed	4	2	5	776646	5	3	3	1	0	521	1	4	0	120	17	0	0	100
fixed	4	2	6	777559	6	4	4	1	0	715	1	4	0	128	18	0	0	100
fixed	4	2	7	778737	3	1	1	1	0	689	1	4	0	104	19	0	0	100
fixed	4	2	8	780078	2	3	3	1	0	776	1	4	0	120	20	0	0	100
fixed	4	2	9	781647	3	2	2	1	0	621	1	4	0	112	21	0	0	100
fixed	4	2	10	782817	1	4	4	1	0	660	1	4	0	128	22	0	0	100
fixed	4	2	11	784218	5	2	2	1	0	920	1	4	0	112	23	0	0	100
fixed	4	2	12	785945	4	3	3	1	0	976	1	4	0	120	24	0	0	100
fixed	4	3	1	788025	4	1	1	1	0	943	1	4	0	104	25	0	0	100
fixed	4	3	2	789498	1	2	2	1	0	1473	1	4	0	112	26	0	0	100
fixed	4	3	3	791444	6	4	4	1	0	671	1	4	0	128	27	0	0	100
fixed	4	3	4	792444	2	1	1	1	0	1100	1	4	0	104	28	0	0	100
fixed	4	3	5	794448	5	3	3	1	0	911	1	4	0	120	29	0	0	100
fixed	4	3	6	795954	6	4	4	1	0	736	1	4	0	128	30	0	0	100
fixed	4	3	7	797422	3	1	1	1	0	825	1	4	0	104	31	0	0	100
fixed	4	3	8	798737	2	3	3	1	0	810	1	4	0	120	32	0	0	100
fixed	4	3	9	800475	3	2	2	1	0	936	1	4	0	112	33	0	0	100
fixed	4	3	10	801897	1	4	4	1	0	676	1	4	0	128	34	0	0	100
fixed	4	3	11	803520	5	2	2	1	0	2263	1	4	0	112	35	0	0	100
fixed	4	3	12	806150	4	3	3	1	0	936	1	4	0	120	36	0	0	100
fixed	4	4	1	808158	4	1	1	1	0	818	1	4	0	104	37	0	0	100
fixed	4	4	2	809698	1	2	2	1	0	913	1	4	0	112	38	0	0	100
fixed	4	4	3	811004	6	4	4	1	0	738	1	4	0	128	39	0	0	100
fixed	4	4	4	812130	2	1	1	1	0	755	1	4	0	104	40	0	0	100
fixed	4	4	5	813723	5	3	3	1	0	1423	1	4	0	120	41	0	0	100
fixed	4	4	6	816030	6	4	4	1	0	557	1	4	0	128	42	0	0	100
fixed	4	4	7	817095	3	1	1	1	0	896	1	4	0	104	43	0	0	100
fixed	4	4	8	818422	2	3	3	1	0	1056	1	4	0	120	44	0	0	100
fixed	4	4	9	820396	3	2	2	1	0	612	1	4	0	112	45	0	0	100
fixed	4	4	10	822024	1	4	4	1	0	807	1	4	0	128	46	0	0	100
fixed	4	4	11	823852	5	2	2	1	0	1226	1	4	0	112	47	0	0	100
fixed	4	4	12	825883	4	3	3	1	0	732	1	4	0	120	48	0	0	100
fixed	4	5	1	827790	4	1	1	1	0	811	1	4	0	104	49	0	0	100
fixed	4	5	2	829035	1	2	2	1	0	887	1	4	0	112	50	0	0	100
fixed	4	5	3	830251	6	4	4	1	0	731	1	4	0	128	51	0	0	100
fixed	4	5	4	831562	2	1	1	1	0	924	1	4	0	104	52	0	0	100
fixed	4	5	5	833416	5	3	3	1	0	925	1	4	0	120	53	0	0	100
fixed	4	5	6	835178	6	4	4	1	0	658	1	4	0	128	54	0	0	100
fixed	4	5	7	836373	3	1	1	1	0	672	1	4	0	104	55	0	0	100
fixed	4	5	8	837823	2	3	0	1	2	0	3	4	0	120	55	0	1	98
fixed	4	5	9	840704	3	2	2	1	0	1144	1	4	0	112	56	0	1	98
fixed	4	5	10	842747	1	4	4	1	0	682	1	4	0	128	57	0	1	98
fixed	4	5	11	844196	5	2	2	1	0	900	1	4	0	112	58	0	1	98
fixed	4	5	12	845979	4	3	3	1	0	649	1	4	0	120	59	0	1	98
fixed	4	6	1	847588	4	1	1	1	0	812	1	4	0	104	60	0	1	98
fixed	4	6	2	848972	1	2	2	1	0	1186	1	4	0	112	61	0	1	98
fixed	4	6	3	851146	6	4	4	1	0	630	1	4	0	128	62	0	1	98
fixed	4	6	4	852783	2	1	1	1	0	616	1	4	0	104	63	0	1	98
fixed	4	6	5	854148	5	3	3	1	0	751	1	4	0	120	64	0	1	98
fixed	4	6	6	855520	6	4	4	1	0	541	1	4	0	128	65	0	1	98
fixed	4	6	7	856868	3	1	1	1	0	668	1	4	0	104	66	0	1	99
fixed	4	6	8	858109	2	3	3	1	0	831	1	4	0	120	67	0	1	99
fixed	4	6	9	859516	3	2	2	1	0	1043	1	4	0	112	68	0	1	99
fixed	4	6	10	861260	1	4	4	1	0	658	1	4	0	128	69	0	1	99
fixed	4	6	11	862837	5	2	2	1	0	799	1	4	0	112	70	0	1	99
fixed	4	6	12	864206	4	3	3	1	0	997	1	4	0	120	71	0	1	99
fixed	4	7	1	866017	4	1	1	1	0	1064	1	4	0	104	72	0	1	99
fixed	4	7	2	867475	1	2	0	1	2	0	3	4	0	112	72	0	2	97
fixed	4	7	3	870409	6	4	4	1	0	726	1	4	0	128	73	0	2	97
fixed	4	7	4	872004	2	1	1	1	0	866	1	4	0	104	74	0	2	97
fixed	4	7	5	873798	5	3	3	1	0	2031	1	4	0	120	75	0	2	97
fixed	4	7	6	876686	6	4	4	1	0	652	1	4	0	128	76	0	2	97
fixed	4	7	7	877708	3	1	1	1	0	777	1	4	0	104	77	0	2	97
fixed	4	7	8	879246	2	3	3	1	0	1328	1	4	0	120	78	0	2	98
fixed	4	7	9	881381	3	2	0	1	2	0	3	4	0	112	78	0	3	96
fixed	4	7	10	884395	1	4	4	1	0	685	1	4	0	128	79	0	3	96
fixed	4	7	11	885991	5	2	2	1	0	738	1	4	0	112	80	0	3	96
fixed	4	7	12	887333	4	3	3	1	0	1065	1	4	0	120	81	0	3	96
fixed	4	8	1	889324	4	1	1	1	0	1061	1	4	0	104	82	0	3	96
fixed	4	8	2	890957	1	2	2	1	0	2120	1	4	0	112	83	0	3	97
fixed	4	8	3	893805	6	4	4	1	0	607	1	4	0	128	84	0	3	97
fixed	4	8	4	894841	2	1	1	1	0	763	1	4	0	104	85	0	3	97
fixed	4	8	5	896121	5	3	3	1	0	845	1	4	0	120	86	0	3	97
fixed	4	8	6	897647	6	4	4	1	0	684	1	4	0	128	87	0	3	97
fixed	4	8	7	899170	3	1	1	1	0	940	1	4	0	104	88	0	3	97
fixed	4	8	8	900821	2	3	3	1	0	862	1	4	0	120	89	0	3	97
fixed	4	8	9	902045	3	2	2	1	0	618	1	4	0	112	90	0	3	97
fixed	4	8	10	903329	1	4	4	1	0	620	1	4	0	128	91	0	3	97
fixed	4	8	11	904343	5	2	2	1	0	888	1	4	0	112	92	0	3	97
fixed	4	8	12	905819	4	3	3	1	0	1010	1	4	0	120	93	0	3	97
fixed	4	9	1	907519	4	1	1	1	0	962	1	4	0	104	94	0	3	97
fixed	4	9	2	909447	1	2	2	1	0	929	1	4	0	112	95	0	3	97
fixed	4	9	3	911309	6	4	4	1	0	889	1	4	0	128	96	0	3	97
fixed	4	9	4	912574	2	1	1	1	0	1004	1	4	0	104	97	0	3	97
fixed	4	9	5	914471	5	3	3	1	0	820	1	4	0	120	98	0	3	97
fixed	4	9	6	916279	6	4	4	1	0	623	1	4	0	128	99	0	3	97
fixed	4	9	7	917425	3	1	1	1	0	798	1	4	0	104	100	0	3	97
fixed	4	9	8	918535	2	3	3	1	0	936	1	4	0	120	101	0	3	97
fixed	4	9	9	920201	3	2	2	1	0	969	1	4	0	112	102	0	3	97
fixed	4	9	10	921914	1	4	4	1	0	657	1	4	0	128	103	0	3	97
fixed	4	9	11	923297	5	2	2	1	0	750	1	4	0	112	104	0	3	97
fixed	4	9	12	924785	4	3	3	1	0	631	1	4	0	120	105	0	3	97
fixed	4	10	1	926031	4	1	1	1	0	802	1	4	0	104	106	0	3	97
fixed	4	10	2	927560	1	2	2	1	0	1297	1	4	0	112	107	0	3	97
fixed	4	10	3	929322	6	4	4	1	0	678	1	4	0	128	108	0	3	97
fixed	4	10	4	930687	2	1	1	1	0	709	1	4	0	104	109	0	3	97
fixed	4	10	5	931836	5	3	3	1	0	676	1	4	0	120	110	0	3	97
fixed	4	10	6	933114	6	4	4	1	0	654	1	4	0	128	111	0	3	97
fixed	4	10	7	934360	3	1	1	1	0	729	1	4	0	104	112	0	3	97
fixed	4	10	8	935377	2	3	3	1	0	1054	1	4	0	120	113	0	3	97
fixed	4	10	9	936733	3	2	2	1	0	1133	1	4	0	112	114	0	3	97
fixed	4	10	10	938341	1	4	4	1	0	633	1	4	0	128	115	0	3	97
fixed	4	10	11	939564	5	2	2	1	0	869	1	4	0	112	116	0	3	97
fixed	4	10	12	940825	4	3	3	1	0	1040	1	4	0	120	117	0	3	98
fixed	5	1	1	942886	4	1	1	1	0	1248	1	4	0	136	1	0	0	100
fixed	5	1	2	944985	1	2	2	1	0	1215	1	4	0	144	2	0	0	100
fixed	5	1	3	946731	6	4	4	1	0	741	1	4	0	160	3	0	0	100
fixed	5	1	4	948048	2	1	1	1	0	766	1	4	0	136	4	0	0	100
fixed	5	1	5	949294	5	3	3	1	0	1177	1	4	0	152	5	0	0	100
fixed	5	1	6	951434	6	4	4	1	0	686	1	4	0	160	6	0	0	100
fixed	5	1	7	952806	3	1	1	1	0	756	1	4	0	136	7	0	0	100
fixed	5	1	8	954511	2	3	3	1	0	1108	1	4	0	152	8	0	0	100
fixed	5	1	9	956207	3	2	2	1	0	580	1	4	0	144	9	0	0	100
fixed	5	1	10	957358	1	4	4	1	0	619	1	4	0	160	10	0	0	100
fixed	5	1	11	958812	5	2	2	1	0	877	1	4	0	144	11	0	0	100
fixed	5	1	12	960109	4	3	3	1	0	639	1	4	0	152	12	0	0	100
fixed	5	2	1	961751	4	1	1	1	0	801	1	4	0	136	13	0	0	100
fixed	5	2	2	963005	1	2	2	1	0	1644	1	4	0	144	14	0	0	100
fixed	5	2	3	965401	6	4	4	1	0	615	1	4	0	160	15	0	0	100
fixed	5	2	4	966562	2	1	1	1	0	797	1	4	0	136	16	0	0	100
fixed	5	2	5	968275	5	3	3	1	0	1061	1	4	0	152	17	0	0	100
fixed	5	2	6	970275	6	4	4	1	0	656	1	4	0	160	18	0	0	100
fixed	5	2	7	971473	3	1	1	1	0	757	1	4	0	136	19	0	0	100
fixed	5	2	8	972999	2	3	3	1	0	1133	1	4	0	152	20	0	0	100
fixed	5	2	9	975026	3	2	2	1	0	999	1	4	0	144	21	0	0	100
fixed	5	2	10	976856	1	4	4	1	0	761	1	4	0	160	22	0	0	100
fixed	5	2	11	978278	5	2	2	1	0	1085	1	4	0	144	23	0	0	100
fixed	5	2	12	980218	4	3	3	1	0	731	1	4	0	152	24	0	0	100
fixed	5	3	1	981851	4	1	1	1	0	814	1	4	0	136	25	0	0	100
fixed	5	3	2	983473	1	2	2	1	0	993	1	4	0	144	26	0	0	100
fixed	5	3	3	984802	6	4	4	1	0	833	1	4	0	160	27	0	0	100
fixed	5	3	4	986432	2	1	1	1	0	732	1	4	0	136	28	0	0	100
fixed	5	3	5	987944	5	3	3	1	0	660	1	4	0	152	29	0	0	100
fixed	5	3	6	989031	6	4	4	1	0	782	1	4	0	160	30	0	0	100
fixed	5	3	7	990517	3	1	1	1	0	927	1	4	0	136	31	0	0	100
fixed	5	3	8	991901	2	3	3	1	0	956	1	4	0	152	32	0	0	100
fixed	5	3	9	993861	3	2	2	1	0	1017	1	4	0	144	33	0	0	100
fixed	5	3	10	995789	1	4	4	1	0	655	1	4	0	160	34	0	0	100
fixed	5	3	11	996876	5	2	2	1	0	1209	1	4	0	144	35	0	0	100
fixed	5	3	12	999117	4	3	3	1	0	595	1	4	0	152	36	0	0	100
fixed	5	4	1	1000497	4	1	1	1	0	768	1	4	0	136	37	0	0	100
fixed	5	4	2	1001987	1	2	2	1	0	1281	1	4	0	144	38	0	0	100
fixed	5	4	3	1003742	6	4	4	1	0	743	1	4	0	160	39	0	0	100
fixed	5	4	4	1005180	2	1	1	1	0	698	1	4	0	136	40	0	0	100
fixed	5	4	5	1006344	5	3	3	1	0	1240	1	4	0	152	41	0	0	100
fixed	5	4	6	1008086	6	4	4	1	0	695	1	4	0	160	42	0	0	100
fixed	5	4	7	1009166	3	1	1	1	0	833	1	4	0	136	43	0	0	100
fixed	5	4	8	1010713	2	3	3	1	0	1175	1	4	0	152	44	0	0	100
fixed	5	4	9	1012533	3	2	2	1	0	778	1	4	0	144	45	0	0	100
fixed	5	4	10	1013675	1	4	4	1	0	730	1	4	0	160	46	0	0	100
fixed	5	4	11	1015424	5	2	2	1	0	904	1	4	0	144	47	0	0	100
fixed	5	4	12	1017118	4	3	3	1	0	1088	1	4	0	152	48	0	0	100
fixed	5	5	1	1019293	4	1	1	1	0	884	1	4	0	136	49	0	0	100
fixed	5	5	2	1021082	1	2	2	1	0	1264	1	4	0	144	50	0	0	100
fixed	5	5	3	1022639	6	4	4	1	0	710	1	4	0	160	51	0	0	100
fixed	5	5	4	1023700	2	1	1	1	0	818	1	4	0	136	52	0	0	100
fixed	5	5	5	1025305	5	3	3	1	0	1597	1	4	0	152	53	0	0	100
fixed	5	5	6	1027717	6	4	4	1	0	671	1	4	0	160	54	0	0	100
fixed	5	5	7	1028842	3	1	1	1	0	784	1	4	0	136	55	0	0	100
fixed	5	5	8	1030176	2	3	3	1	0	983	1	4	0	152	56	0	0	100
fixed	5	5	9	1031902	3	2	2	1	0	1022	1	4	0	144	57	0	0	100
fixed	5	5	10	1033228	1	4	4	1	0	670	1	4	0	160	58	0	0	100
fixed	5	5	11	1034797	5	2	2	1	0	723	1	4	0	144	59	0	0	100
fixed	5	5	12	1036118	4	3	0	1	2	0	3	4	0	152	59	0	1	98
fixed	5	6	1	1039609	4	1	1	1	0	991	1	4	0	136	60	0	1	98
fixed	5	6	2	1040940	1	2	2	1	0	919	1	4	0	144	61	0	1	98
fixed	5	6	3	1042672	6	4	4	1	0	590	1	4	0	160	62	0	1	98
fixed	5	6	4	1043746	2	1	1	1	0	968	1	4	0	136	63	0	1	98
fixed	5	6	5	1045756	5	3	3	1	0	1107	1	4	0	152	64	0	1	98
fixed	5	6	6	1047235	6	4	4	1	0	797	1	4	0	160	65	0	1	98
fixed	5	6	7	1048344	3	1	1	1	0	814	1	4	0	136	66	0	1	99
fixed	5	6	8	1050166	2	3	3	1	0	984	1	4	0	152	67	0	1	99
fixed	5	6	9	1052107	3	2	2	1	0	1054	1	4	0	144	68	0	1	99
fixed	5	6	10	1053982	1	4	4	1	0	655	1	4	0	160	69	0	1	99
fixed	5	6	11	1055665	5	2	2	1	0	1143	1	4	0	144	70	0	1	99
fixed	5	6	12	1057443	4	3	3	1	0	1260	1	4	0	152	71	0	1	99
fixed	5	7	1	1059959	4	1	1	1	0	857	1	4	0	136	72	0	1	99
fixed	5	7	2	1061218	1	2	2	1	0	1132	1	4	0	144	73	0	1	99
fixed	5	7	3	1062943	6	4	4	1	0	699	1	4	0	160	74	0	1	99
fixed	5	7	4	1064039	2	1	1	1	0	821	1	4	0	136	75	0	1	99
fixed	5	7	5	1065896	5	3	3	2	0	2110	2	4	0	152	76	0	1	99
fixed	5	7	6	1068762	6	4	4	1	0	676	1	4	0	160	77	0	1	99
fixed	5	7	7	1070465	3	1	1	1	0	909	1	4	0	136	78	0	1	99
fixed	5	7	8	1072089	2	3	3	1	0	888	1	4	0	152	79	0	1	99
fixed	5	7	9	1073852	3	2	2	1	0	701	1	4	0	144	80	0	1	99
fixed	5	7	10	1075285	1	4	4	1	0	752	1	4	0	160	81	0	1	99
fixed	5	7	11	1076763	5	2	2	1	0	1130	1	4	0	144	82	0	1	99
fixed	5	7	12	1078869	4	3	3	1	0	2273	1	4	0	152	83	0	1	99
fixed	5	8	1	1082164	4	1	1	1	0	957	1	4	0	136	84	0	1	99
fixed	5	8	2	1083641	1	2	2	1	0	927	1	4	0	144	85	0	1	99
fixed	5	8	3	1085534	6	4	4	1	0	671	1	4	0	160	86	0	1	99
fixed	5	8	4	1086899	2	1	1	1	0	773	1	4	0	136	87	0	1	99
fixed	5	8	5	1088607	5	3	3	1	0	1284	1	4	0	152	88	0	1	99
fixed	5	8	6	1090390	6	4	4	1	0	737	1	4	0	160	89	0	1	99
fixed	5	8	7	1091861	3	1	1	1	0	786	1	4	0	136	90	0	1	99
fixed	5	8	8	1093496	2	3	3	1	0	1181	1	4	0	152	91	0	1	99
fixed	5	8	9	1095320	3	2	2	1	0	584	1	4	0	144	92	0	1	99
fixed	5	8	10	1096859	1	4	4	1	0	791	1	4	0	160	93	0	1	99
fixed	5	8	11	1097975	5	2	2	1	0	855	1	4	0	144	94	0	1	99
fixed	5	8	12	1099830	4	3	3	1	0	953	1	4	0	152	95	0	1	99
fixed	5	9	1	1101828	4	1	1	1	0	772	1	4	0	136	96	0	1	99
fixed	5	9	2	1103607	1	2	2	1	0	1209	1	4	0	144	97	0	1	99
fixed	5	9	3	1105442	6	4	4	1	0	715	1	4	0	160	98	0	1	99
fixed	5	9	4	1106917	2	1	1	1	0	901	1	4	0	136	99	0	1	99
fixed	5	9	5	1108304	5	3	3	1	0	970	1	4	0	152	100	0	1	99
fixed	5	9	6	1110212	6	4	4	1	0	697	1	4	0	160	101	0	1	99
fixed	5	9	7	1111467	3	1	1	1	0	804	1	4	0	136	102	0	1	99
fixed	5	9	8	1112659	2	3	3	1	0	977	1	4	0	152	103	0	1	99
fixed	5	9	9	1114262	3	2	2	1	0	933	1	4	0	144	104	0	1	99
fixed	5	9	10	1115615	1	4	4	1	0	636	1	4	0	160	105	0	1	99
fixed	5	9	11	1116683	5	2	2	1	0	759	1	4	0	144	106	0	1	99
fixed	5	9	12	1118484	4	3	3	1	0	554	1	4	0	152	107	0	1	99
fixed	5	10	1	1120307	4	1	1	1	0	813	1	4	0	136	108	0	1	99
fixed	5	10	2	1121825	1	2	2	1	0	1677	1	4	0	144	109	0	1	99
fixed	5	10	3	1124297	6	4	4	1	0	741	1	4	0	160	110	0	1	99
fixed	5	10	4	1125386	2	1	1	1	0	1142	1	4	0	136	111	0	1	99
fixed	5	10	5	1126932	5	3	3	1	0	997	1	4	0	152	112	0	1	99
fixed	5	10	6	1128368	6	4	4	1	0	728	1	4	0	160	113	0	1	99
fixed	5	10	7	1129849	3	1	1	1	0	673	1	4	0	136	114	0	1	99
fixed	5	10	8	1131056	2	3	3	1	0	1062	1	4	0	152	115	0	1	99
fixed	5	10	9	1132478	3	2	2	1	0	642	1	4	0	144	116	0	1	99
fixed	5	10	10	1134123	1	4	4	1	0	1108	1	4	0	160	117	0	1	99
fixed	5	10	11	1135742	5	2	0	1	2	0	3	4	0	144	117	0	2	98
fixed	5	10	12	1138744	4	3	3	1	0	1521	1	4	0	152	118	0	2	98
random	6	1	1	1232280	6	1	1	1	0	1319	1	4	0	168	1	0	0	100
random	6	1	2	1234304	4	4	4	1	0	785	1	4	0	192	2	0	0	100
random	6	1	3	1236109	2	2	2	1	0	701	1	4	0	176	3	0	0	100
random	6	1	4	1237334	3	3	3	1	0	609	1	4	0	184	4	0	0	100
random	6	1	5	1238279	5	2	2	1	0	1057	1	4	0	176	5	0	0	100
random	6	1	6	1240279	1	4	4	1	0	628	1	4	0	192	6	0	0	100
random	6	1	7	1241854	6	1	1	1	0	849	1	4	0	168	7	0	0	100
random	6	1	8	1243185	2	3	3	1	0	993	1	4	0	184	8	0	0	100
random	6	1	9	1244924	4	2	2	1	0	576	1	4	0	176	9	0	0	100
random	6	1	10	1246003	1	1	1	1	0	801	1	4	0	168	10	0	0	100
random	6	1	11	1247313	5	4	4	1	0	674	1	4	0	192	11	0	0	100
random	6	1	12	1248616	3	3	3	1	0	771	1	4	0	184	12	0	0	100
random	6	1	13	1250326	5	2	2	1	0	970	1	4	0	176	13	0	0	100
random	6	1	14	1251790	1	4	4	1	0	701	1	4	0	192	14	0	0	100
random	6	1	15	1253394	3	1	1	1	0	721	1	4	0	168	15	0	0	100
random	6	1	16	1254505	4	3	3	1	0	937	1	4	0	184	16	0	0	100
random	6	1	17	1256101	6	4	4	1	0	686	1	4	0	192	17	0	0	100
random	6	1	18	1257324	2	1	1	1	0	722	1	4	0	168	18	0	0	100
random	6	1	19	1258769	5	3	3	1	0	1117	1	4	0	184	19	0	0	100
random	6	1	20	1260677	2	2	2	1	0	1364	1	4	0	176	20	0	0	100
random	6	1	21	1262786	3	3	3	1	0	835	1	4	0	184	21	0	0	100
random	6	1	22	1263968	6	1	1	1	0	977	1	4	0	168	22	0	0	100
random	6	1	23	1265512	4	2	0	1	2	0	3	4	0	176	22	0	1	96
random	6	1	24	1268355	1	4	4	1	0	911	1	4	0	192	23	0	1	96
random	6	1	25	1270041	4	3	3	1	0	1031	1	4	0	184	24	0	1	96
random	6	1	26	1271869	2	1	1	1	0	1514	1	4	0	168	25	0	1	96
random	6	1	27	1273961	5	2	2	1	0	1178	1	4	0	176	26	0	1	96
random	6	1	28	1276122	6	4	4	1	0	750	1	4	0	192	27	0	1	96
random	6	1	29	1277324	1	3	3	1	0	1027	1	4	0	184	28	0	1	97
random	6	1	30	1278894	5	2	2	1	0	960	1	4	0	176	29	0	1	97
random	6	1	31	1280880	2	1	1	1	0	797	1	4	0	168	30	0	1	97
random	6	1	32	1282559	3	3	3	1	0	837	1	4	0	184	31	0	1	97
random	6	1	33	1284190	6	4	4	1	0	664	1	4	0	192	32	0	1	97
random	6	1	34	1285427	4	2	2	1	0	900	1	4	0	176	33	0	1	97
random	6	1	35	1286891	3	4	4	1	0	782	1	4	0	192	34	0	1	97
random	6	1	36	1288645	1	1	1	1	0	644	1	4	0	168	35	0	1	97
random	6	1	37	1290291	3	4	4	1	0	1046	1	4	0	192	36	0	1	97
random	6	1	38	1291832	5	3	3	1	0	788	1	4	0	184	37	0	1	97
random	6	1	39	1293561	6	1	1	1	0	884	1	4	0	168	38	0	1	97
random	6	1	40	1294954	1	2	2	3	0	2440	2	4	0	176	39	0	1	98
random	6	1	41	1298174	2	3	3	1	0	1024	1	4	0	184	40	0	1	98
random	6	1	42	1299651	4	4	4	1	0	977	1	4	0	192	41	0	1	98
random	6	1	43	1301434	1	2	2	1	0	774	1	4	0	176	42	0	1	98
random	6	1	44	1302834	6	3	3	1	0	1915	1	4	0	184	43	0	1	98
random	6	1	45	1305754	3	1	1	1	0	783	1	4	0	168	44	0	1	98
random	6	1	46	1306938	4	4	4	1	0	725	1	4	0	192	45	0	1	98
random	6	1	47	1308063	2	2	2	1	0	1261	1	4	0	176	46	0	1	98
random	6	1	48	1310138	5	1	1	1	0	901	1	4	0	168	47	0	1	98
random	6	1	49	1311643	2	3	3	1	0	949	1	4	0	184	48	0	1	98
random	6	1	50	1312936	3	1	1	1	0	775	1	4	0	168	49	0	1	98
random	6	1	51	1314037	1	4	4	1	0	648	1	4	0	192	50	0	1	98
random	6	1	52	1315533	5	3	3	1	0	1472	1	4	0	184	51	0	1	98
random	6	1	53	1317841	3	2	2	1	0	655	1	4	0	176	52	0	1	98
random	6	1	54	1319324	6	4	4	1	0	664	1	4	0	192	53	0	1	98
random	6	1	55	1320533	4	2	2	1	0	877	1	4	0	176	54	0	1	98
random	6	1	56	1322318	1	1	1	1	0	993	1	4	0	168	55	0	1	98
random	6	1	57	1323950	5	4	4	1	0	1044	1	4	0	192	56	0	1	98
random	6	1	58	1325653	2	1	1	1	0	724	1	4	0	168	57	0	1	98
random	6	1	59	1326709	6	2	2	1	0	1128	1	4	0	176	58	0	1	98
random	6	1	60	1328471	4	3	3	1	0	765	1	4	0	184	59	0	1	98
random	6	1	61	1330506	1	2	2	1	0	974	1	4	0	176	60	0	1	98
random	6	1	62	1332485	6	4	4	1	0	683	1	4	0	192	61	0	1	98
random	6	1	63	1333631	4	1	1	1	0	650	1	4	0	168	62	0	1	98
random	6	1	64	1335162	2	2	2	1	0	810	1	4	0	176	63	0	1	98
random	6	1	65	1336458	4	3	3	1	0	842	1	4	0	184	64	0	1	98
random	6	1	66	1337890	3	1	1	1	0	917	1	4	0	168	65	0	1	98
random	6	1	67	1339560	1	3	3	1	0	1007	1	4	0	184	66	0	1	99
random	6	1	68	1341104	5	4	4	1	0	1206	1	4	0	192	67	0	1	99
random	6	1	69	1343298	2	2	2	1	0	753	1	4	0	176	68	0	1	99
random	6	1	70	1345054	3	1	1	1	0	719	1	4	0	168	69	0	1	99
random	6	1	71	1346075	5	4	4	1	0	747	1	4	0	192	70	0	1	99
random	6	1	72	1347510	6	3	3	1	0	831	1	4	0	184	71	0	1	99
random	6	1	73	1349001	2	1	1	1	0	1015	1	4	0	168	72	0	1	99
random	6	1	74	1350384	5	3	3	1	0	997	1	4	0	184	73	0	1	99
random	6	1	75	1352374	1	4	4	1	0	680	1	4	0	192	74	0	1	99
random	6	1	76	1353483	6	2	2	1	0	713	1	4	0	176	75	0	1	99
random	6	1	77	1355131	2	1	1	1	0	827	1	4	0	168	76	0	1	99
random	6	1	78	1356814	4	4	4	1	0	732	1	4	0	192	77	0	1	99
random	6	1	79	1358069	3	2	2	1	0	943	1	4	0	176	78	0	1	99
random	6	1	80	1359809	4	3	3	1	0	1093	1	4	0	184	79	0	1	99
random	6	1	81	1361725	1	4	4	1	0	700	1	4	0	192	80	0	1	99
random	6	1	82	1362804	5	1	1	1	0	838	1	4	0	168	81	0	1	99
random	6	1	83	1364178	3	2	2	1	0	1276	1	4	0	176	82	0	1	99
random	6	1	84	1365931	6	3	3	1	0	1042	1	4	0	184	83	0	1	99
random	6	1	85	1367697	3	2	2	1	0	1911	1	4	0	176	84	0	1	99
random	6	1	86	1370555	1	3	3	1	0	894	1	4	0	184	85	0	1	99
random	6	1	87	1372144	4	4	4	1	0	715	1	4	0	192	86	0	1	99
random	6	1	88	1373825	2	1	1	1	0	700	1	4	0	168	87	0	1	99
random	6	1	89	1375170	6	4	4	1	0	643	1	4	0	192	88	0	1	99
random	6	1	90	1376216	3	3	3	1	0	1694	1	4	0	184	89	0	1	99
random	6	1	91	1378936	5	4	4	1	0	643	1	4	0	192	90	0	1	99
random	6	1	92	1380245	1	2	2	1	0	564	1	4	0	176	91	0	1	99
random	6	1	93	1381384	5	1	1	1	0	771	1	4	0	168	92	0	1	99
random	6	1	94	1382719	4	3	3	1	0	947	1	4	0	184	93	0	1	99
random	6	1	95	1383959	6	1	1	1	0	1014	1	4	0	168	94	0	1	99
random	6	1	96	1385465	2	2	2	1	0	1487	1	4	0	176	95	0	1	99
random	6	1	97	1387529	4	3	3	1	0	1351	1	4	0	184	96	0	1	99
random	6	1	98	1389752	3	2	2	1	0	713	1	4	0	176	97	0	1	99
random	6	1	99	1391447	6	3	3	1	0	913	1	4	0	184	98	0	1	99
random	6	1	100	1392829	1	4	4	1	0	807	1	4	0	192	99	0	1	99
random	6	1	101	1393972	4	1	1	1	0	751	1	4	0	168	100	0	1	99
random	6	1	102	1395736	5	2	2	1	0	668	1	4	0	176	101	0	1	99
random	6	1	103	1397006	2	4	4	1	0	742	1	4	0	192	102	0	1	99
random	6	1	104	1398313	3	1	1	1	0	711	1	4	0	168	103	0	1	99
random	6	1	105	1399380	1	3	3	1	0	1081	1	4	0	184	104	0	1	99
random	6	1	106	1401195	2	2	2	1	0	620	1	4	0	176	105	0	1	99
random	6	1	107	1402146	5	4	4	1	0	660	1	4	0	192	106	0	1	99
random	6	1	108	1403287	6	1	1	1	0	940	1	4	0	168	107	0	1	99
random	6	1	109	1405006	5	4	4	1	0	755	1	4	0	192	108	0	1	99
random	6	1	110	1406312	6	3	3	1	0	898	1	4	0	184	109	0	1	99
random	6	1	111	1407543	2	2	2	1	0	711	1	4	0	176	110	0	1	99
random	6	1	112	1408597	3	1	1	1	0	715	1	4	0	168	111	0	1	99
random	6	1	113	1409600	1	2	2	2	0	2152	2	4	0	176	112	0	1	99
random	6	1	114	1412099	2	3	3	1	0	863	1	4	0	184	113	0	1	99
random	6	1	115	1413775	3	1	1	1	0	871	1	4	0	168	114	0	1	99
random	6	1	116	1415118	4	4	4	1	0	719	1	4	0	192	115	0	1	99
random	6	1	117	1416526	6	1	1	1	0	875	1	4	0	168	116	0	1	99
random	6	1	118	1418111	5	3	3	1	0	864	1	4	0	184	117	0	1	99
random	6	1	119	1419433	1	4	4	1	0	704	1	4	0	192	118	0	1	99
random	6	1	120	1420975	4	2	2	1	0	799	1	4	0	176	119	0	1	99
fixed	7	1	1	1423298	4	1	1	1	0	876	1	4	0	200	1	0	0	100
fixed	7	1	2	1424856	1	2	0	1	2	0	3	4	0	208	1	0	1	50
fixed	7	1	3	1427979	6	4	4	1	0	694	1	4	0	224	2	0	1	67
fixed	7	1	4	1429513	2	1	1	1	0	749	1	4	0	200	3	0	1	75
fixed	7	1	5	1430947	5	3	3	1	0	937	1	4	0	216	4	0	1	80
fixed	7	1	6	1432467	6	4	4	1	0	680	1	4	0	224	5	0	1	83
fixed	7	1	7	1433842	3	1	1	1	0	669	1	4	0	200	6	0	1	86
fixed	7	1	8	1435409	2	3	3	1	0	1124	1	4	0	216	7	0	1	88
fixed	7	1	9	1436965	3	2	2	1	0	585	1	4	0	208	8	0	1	89
fixed	7	1	10	1437920	1	4	4	1	0	649	1	4	0	224	9	0	1	90
fixed	7	1	11	1438993	5	2	2	1	0	883	1	4	0	208	10	0	1	91
fixed	7	1	12	1440510	4	3	3	1	0	1083	1	4	0	216	11	0	1	92
fixed	7	2	1	1442414	4	1	1	1	0	730	1	4	0	200	1	0	0	8
fixed	7	2	2	1443881	1	2	2	1	0	1397	1	4	0	208	2	0	0	14
fixed	7	2	3	1446182	6	4	4	1	0	675	1	4	0	224	3	0	0	20
fixed	7	2	4	1447517	2	1	1	1	0	675	1	4	0	200	4	0	0	25
fixed	7	2	5	1448763	5	3	3	1	0	701	1	4	0	216	5	0	0	29
fixed	7	2	6	1449766	6	4	4	1	0	899	1	4	0	224	6	0	0	33
fixed	7	2	7	1451336	3	1	1	1	0	1024	1	4	0	200	7	0	0	37
fixed	7	2	8	1452860	2	3	3	1	0	936	1	4	0	216	8	0	0	40
fixed	7	2	9	1454282	3	2	2	1	0	580	1	4	0	208	9	0	0	43
fixed	7	2	10	1455841	1	4	4	1	0	794	1	4	0	224	10	0	0	45
fixed	7	2	11	1457019	5	2	2	1	0	1688	1	4	0	208	11	0	0	48
fixed	7	2	12	1459403	4	3	3	1	0	827	1	4	0	216	12	0	0	50
fixed	7	3	1	1461377	4	1	1	1	0	799	1	4	0	200	1	0	0	4
fixed	7	3	2	1463014	1	2	2	1	0	1082	1	4	0	208	2	0	0	8
fixed	7	3	3	1464681	6	4	4	1	0	644	1	4	0	224	3	0	0	11
fixed	7	3	4	1465765	2	1	1	1	0	766	1	4	0	200	4	0	0	14
fixed	7	3	5	1467273	5	3	3	1	0	869	1	4	0	216	5	0	0	17
fixed	7	3	6	1468571	6	4	4	1	0	751	1	4	0	224	6	0	0	20
fixed	7	3	7	1470284	3	1	1	1	0	846	1	4	0	200	7	0	0	23
fixed	7	3	8	1471869	2	3	3	1	0	803	1	4	0	216	8	0	0	25
fixed	7	3	9	1473212	3	2	2	1	0	834	1	4	0	208	9	0	0	27
fixed	7	3	10	1474847	1	4	4	1	0	677	1	4	0	224	10	0	0	29
fixed	7	3	11	1476291	5	2	2	1	0	872	1	4	0	208	11	0	0	31
fixed	7	3	12	1477513	4	3	3	1	0	796	1	4	0	216	12	0	0	33
fixed	7	4	1	1479405	4	1	1	1	0	2020	1	4	0	200	1	0	0	3
fixed	7	4	2	1481902	1	2	2	1	0	1138	1	4	0	208	2	0	0	5
fixed	7	4	3	1483589	6	4	4	1	0	747	1	4	0	224	3	0	0	8
fixed	7	4	4	1484632	2	1	1	1	0	926	1	4	0	200	4	0	0	10
fixed	7	4	5	1486026	5	3	3	1	0	819	1	4	0	216	5	0	0	12
fixed	7	4	6	1487703	6	4	4	1	0	733	1	4	0	224	6	0	0	14
fixed	7	4	7	1489279	3	1	1	1	0	833	1	4	0	200	7	0	0	16
fixed	7	4	8	1490946	2	3	3	2	0	1875	2	4	0	216	8	0	0	18
fixed	7	4	9	1493289	3	2	2	1	0	888	1	4	0	208	9	0	0	20
fixed	7	4	10	1494762	1	4	4	1	0	665	1	4	0	224	10	0	0	22
fixed	7	4	11	1496030	5	2	2	1	0	867	1	4	0	208	11	0	0	23
fixed	7	4	12	1497524	4	3	3	1	0	932	1	4	0	216	12	0	0	25
fixed	7	5	1	1499621	4	1	1	1	0	859	1	4	0	200	1	0	0	2
fixed	7	5	2	1501503	1	2	2	1	0	1228	1	4	0	208	2	0	0	4
fixed	7	5	3	1503045	6	4	4	1	0	730	1	4	0	224	3	0	0	6
fixed	7	5	4	1504539	2	1	1	1	0	963	1	4	0	200	4	0	0	8
fixed	7	5	5	1506068	5	3	3	1	0	866	1	4	0	216	5	0	0	9
fixed	7	5	6	1507886	6	4	4	1	0	662	1	4	0	224	6	0	0	11
fixed	7	5	7	1508961	3	1	1	1	0	680	1	4	0	200	7	0	0	13
fixed	7	5	8	1510213	2	3	3	1	0	1163	1	4	0	216	8	0	0	14
fixed	7	5	9	1512123	3	2	2	1	0	922	1	4	0	208	9	0	0	16
fixed	7	5	10	1513837	1	4	4	1	0	769	1	4	0	224	10	0	0	17
fixed	7	5	11	1515636	5	2	2	1	0	925	1	4	0	208	11	0	0	19
fixed	7	5	12	1517370	4	3	3	1	0	940	1	4	0	216	12	0	0	20
fixed	7	6	1	1519437	4	1	1	1	0	972	1	4	0	200	1	0	0	2
fixed	7	6	2	1520943	1	2	0	1	2	0	3	4	0	208	1	0	1	2
fixed	7	6	3	1524286	6	4	4	1	0	807	1	4	0	224	2	0	1	3
fixed	7	6	4	1525608	2	1	1	1	0	767	1	4	0	200	3	0	1	5
fixed	7	6	5	1527113	5	3	3	1	0	1103	1	4	0	216	4	0	1	6
fixed	7	6	6	1529118	6	4	4	1	0	674	1	4	0	224	5	0	1	8
fixed	7	6	7	1530245	3	1	1	1	0	834	1	4	0	200	6	0	1	9
fixed	7	6	8	1531578	2	3	3	1	0	1058	1	4	0	216	7	0	1	10
fixed	7	6	9	1533104	3	2	2	1	0	673	1	4	0	208	8	0	1	12
fixed	7	6	10	1534590	1	4	4	1	0	746	1	4	0	224	9	0	1	13
fixed	7	6	11	1536315	5	2	2	1	0	1313	1	4	0	208	10	0	1	14
fixed	7	6	12	1538231	4	3	3	1	0	728	1	4	0	216	11	0	1	15
fixed	7	7	1	1540254	4	1	1	1	0	930	1	4	0	200	1	0	0	1
fixed	7	7	2	1541844	1	2	2	1	0	1631	1	4	0	208	2	0	0	3
fixed	7	7	3	1544058	6	4	4	1	0	738	1	4	0	224	3	0	0	4
fixed	7	7	4	1545689	2	1	1	1	0	836	1	4	0	200	4	0	0	5
fixed	7	7	5	1547538	5	3	3	1	0	590	1	4	0	216	5	0	0	6
fixed	7	7	6	1549139	6	4	4	1	0	707	1	4	0	224	6	0	0	8
fixed	7	7	7	1550384	3	1	1	1	0	757	1	4	0	200	7	0	0	9
fixed	7	7	8	1551854	2	3	3	1	0	975	1	4	0	216	8	0	0	10
fixed	7	7	9	1553573	3	2	2	1	0	974	1	4	0	208	9	0	0	11
fixed	7	7	10	1555143	1	4	4	1	0	812	1	4	0	224	10	0	0	12
fixed	7	7	11	1556909	5	2	2	1	0	1033	1	4	0	208	11	0	0	13
fixed	7	7	12	1558405	4	3	3	1	0	618	1	4	0	216	12	0	0	14
fixed	7	8	1	1559819	4	1	1	1	0	830	1	4	0	200	1	0	0	1
fixed	7	8	2	1560977	1	2	2	1	0	1125	1	4	0	208	2	0	0	2
fixed	7	8	3	1562449	6	4	4	1	0	807	1	4	0	224	3	0	0	3
fixed	7	8	4	1564022	2	1	1	1	0	756	1	4	0	200	4	0	0	5
fixed	7	8	5	1565086	5	3	3	1	0	1159	1	4	0	216	5	0	0	6
fixed	7	8	6	1567222	6	4	4	1	0	668	1	4	0	224	6	0	0	7
fixed	7	8	7	1568727	3	1	1	1	0	716	1	4	0	200	7	0	0	8
fixed	7	8	8	1569814	2	3	3	1	0	966	1	4	0	216	8	0	0	9
fixed	7	8	9	1571084	3	2	2	1	0	649	1	4	0	208	9	0	0	10
fixed	7	8	10	1572669	1	4	4	1	0	725	1	4	0	224	10	0	0	11
fixed	7	8	11	1573813	5	2	0	0	2	0	3	4	0	208	10	0	1	11
fixed	7	8	12	1576916	4	3	3	2	0	1354	2	4	0	216	11	0	1	11
fixed	7	9	1	1579016	4	1	1	1	0	785	1	4	0	200	1	0	0	1
fixed	7	9	2	1580115	1	2	2	1	0	899	1	4	0	208	2	0	0	2
fixed	7	9	3	1581862	6	4	4	1	0	648	1	4	0	224	3	0	0	3
fixed	7	9	4	1583227	2	1	1	1	0	695	1	4	0	200	4	0	0	4
fixed	7	9	5	1584404	5	3	3	1	0	1237	1	4	0	216	5	0	0	5
fixed	7	9	6	1586579	6	4	4	1	0	641	1	4	0	224	6	0	0	6
fixed	7	9	7	1588214	3	1	1	1	0	763	1	4	0	200	7	0	0	7
fixed	7	9	8	1589543	2	3	3	1	0	899	1	4	0	216	8	0	0	8
fixed	7	9	9	1591051	3	2	2	1	0	763	1	4	0	208	9	0	0	9
fixed	7	9	10	1592113	1	4	4	1	0	774	1	4	0	224	10	0	0	9
fixed	7	9	11	1593457	5	2	2	1	0	813	1	4	0	208	11	0	0	10
fixed	7	9	12	1594907	4	3	3	1	0	568	1	4	0	216	12	0	0	11
fixed	7	10	1	1596108	4	1	1	1	0	701	1	4	0	200	1	0	0	1
fixed	7	10	2	1597187	1	2	2	1	0	887	1	4	0	208	2	0	0	2
fixed	7	10	3	1598924	6	4	4	1	0	630	1	4	0	224	3	0	0	3
fixed	7	10	4	1600576	2	1	1	1	0	992	1	4	0	200	4	0	0	4
fixed	7	10	5	1602375	5	3	3	1	0	923	1	4	0	216	5	0	0	4
fixed	7	10	6	1604336	6	4	4	1	0	608	1	4	0	224	6	0	0	5
fixed	7	10	7	1605740	3	1	1	1	0	725	1	4	0	200	7	0	0	6
fixed	7	10	8	1607262	2	3	3	1	0	941	1	4	0	216	8	0	0	7
fixed	7	10	9	1609030	3	2	2	1	0	1154	1	4	0	208	9	0	0	8
fixed	7	10	10	1610617	1	4	4	1	0	646	1	4	0	224	10	0	0	8
fixed	7	10	11	1611899	5	2	2	1	0	864	1	4	0	208	11	0	0	9
fixed	7	10	12	1613392	4	3	3	1	0	569	1	4	0	216	12	0	0	10
