type	block	sequ.	trial	time	Pos.	Color	Button	NumRsp	Resp_1	RT_1	R_Code	Resp_2	RT_2	Trigg.	n_hit	n_inc	n_miss	score_%

random	1	1	1	1513	6	1	1	1	0	445	1	4	0	8	1	0	0	100
random	1	1	2	2339	4	4	4	1	0	858	1	4	0	32	2	0	0	100
random	1	1	3	4184	2	2	0	1	2	0	3	4	0	16	2	0	1	67
random	1	1	4	7599	3	3	3	1	0	1019	1	4	0	24	3	0	1	75
random	1	1	5	9652	5	2	2	1	0	628	1	4	0	16	4	0	1	80
random	1	1	6	10650	1	4	4	1	0	1211	1	4	0	32	5	0	1	83
random	1	1	7	12308	6	1	1	1	0	836	1	4	0	8	6	0	1	86
random	1	1	8	13629	2	3	3	1	0	1060	1	4	0	24	7	0	1	88
random	1	1	9	15090	4	2	2	1	0	606	1	4	0	16	8	0	1	89
random	1	1	10	16365	1	1	1	1	0	905	1	4	0	8	9	0	1	90
random	1	1	11	18174	5	4	4	1	0	732	1	4	0	32	10	0	1	91
random	1	1	12	19526	3	3	3	1	0	898	1	4	0	24	11	0	1	92
random	1	1	13	21129	5	2	2	1	0	1558	1	4	0	16	12	0	1	92
random	1	1	14	23033	1	4	4	1	0	686	1	4	0	32	13	0	1	93
random	1	1	15	24218	3	1	1	1	0	708	1	4	0	8	14	0	1	93
random	1	1	16	25933	4	3	3	1	0	1107	1	4	0	24	15	0	1	94
random	1	1	17	27838	6	4	4	1	0	666	1	4	0	32	16	0	1	94
random	1	1	18	28900	2	1	1	1	0	1037	1	4	0	8	17	0	1	94
random	1	1	19	30394	5	3	3	1	0	894	1	4	0	24	18	0	1	95
random	1	1	20	32202	2	2	2	1	0	554	1	4	0	16	19	0	1	95
random	1	1	21	33097	3	3	3	1	0	836	1	4	0	24	20	0	1	95
random	1	1	22	34958	6	1	1	1	0	765	1	4	0	8	21	0	1	95
random	1	1	23	36698	4	2	2	1	0	1299	1	4	0	16	22	0	1	96
random	1	1	24	38393	1	4	4	1	0	715	1	4	0	32	23	0	1	96
random	1	1	25	40210	4	3	3	1	0	1206	1	4	0	24	24	0	1	96
random	1	1	26	42097	2	1	1	1	0	798	1	4	0	8	25	0	1	96
random	1	1	27	43541	5	2	2	1	0	641	1	4	0	16	26	0	1	96
random	1	1	28	45152	6	4	4	1	0	645	1	4	0	32	27	0	1	96
random	1	1	29	46152	1	3	3	1	0	691	1	4	0	24	28	0	1	97
random	1	1	30	47210	5	2	2	1	0	998	1	4	0	16	29	0	1	97
random	1	1	31	49098	2	1	1	1	0	694	1	4	0	8	30	0	1	97
random	1	1	32	50357	3	3	3	1	0	913	1	4	0	24	31	0	1	97
random	1	1	33	52201	6	4	4	1	0	595	1	4	0	32	32	0	1	97
random	1	1	34	53625	4	2	2	1	0	678	1	4	0	16	33	0	1	97
random	1	1	35	54700	3	4	4	1	0	737	1	4	0	32	34	0	1	97
random	1	1	36	55869	1	1	1	1	0	911	1	4	0	8	35	0	1	97
random	1	1	37	57670	3	4	4	1	0	931	1	4	0	32	36	0	1	97
random	1	1	38	59514	5	3	3	2	0	2341	2	4	0	24	37	0	1	97
random	1	1	39	62406	6	1	1	1	0	698	1	4	0	8	38	0	1	97
random	1	1	40	63625	1	2	2	1	0	1151	1	4	0	16	39	0	1	98
random	1	1	41	65708	2	3	3	1	0	742	1	4	0	24	40	0	1	98
random	1	1	42	66948	4	4	4	1	0	778	1	4	0	32	41	0	1	98
random	1	1	43	68647	1	2	2	1	0	914	1	4	0	16	42	0	1	98
random	1	1	44	70071	6	3	3	1	0	1966	1	4	0	24	43	0	1	98
random	1	1	45	72898	3	1	1	1	0	614	1	4	0	8	44	0	1	98
random	1	1	46	73968	4	4	4	1	0	721	1	4	0	32	45	0	1	98
random	1	1	47	75254	2	2	2	1	0	802	1	4	0	16	46	0	1	98
random	1	1	48	76354	5	1	1	1	0	819	1	4	0	8	47	0	1	98
random	1	1	49	78254	2	3	3	1	0	1027	1	4	0	24	48	0	1	98
random	1	1	50	80286	3	1	1	1	0	749	1	4	0	8	49	0	1	98
random	1	1	51	81609	1	4	4	1	0	685	1	4	0	32	50	0	1	98
random	1	1	52	83297	5	3	3	1	0	917	1	4	0	24	51	0	1	98
random	1	1	53	84966	3	2	2	1	0	927	1	4	0	16	52	0	1	98
random	1	1	54	86472	6	4	4	1	0	655	1	4	0	32	53	0	1	98
random	1	1	55	87968	4	2	2	1	0	792	1	4	0	16	54	0	1	98
random	1	1	56	89419	1	1	1	1	0	746	1	4	0	8	55	0	1	98
random	1	1	57	90623	5	4	4	1	0	807	1	4	0	32	56	0	1	98
random	1	1	58	92066	2	1	1	1	0	626	1	4	0	8	57	0	1	98
random	1	1	59	93283	6	2	2	1	0	1103	1	4	0	16	58	0	1	98
random	1	1	60	94796	4	3	3	1	0	910	1	4	0	24	59	0	1	98
random	1	1	61	96432	1	2	2	1	0	921	1	4	0	16	60	0	1	98
random	1	1	62	98067	6	4	4	1	0	731	1	4	0	32	61	0	1	98
random	1	1	63	99511	4	1	1	1	0	651	1	4	0	8	62	0	1	98
random	1	1	64	101081	2	2	2	1	0	1010	1	4	0	16	63	0	1	98
random	1	1	65	102882	4	3	3	1	0	1208	1	4	0	24	64	0	1	98
random	1	1	66	104891	3	1	1	1	0	635	1	4	0	8	65	0	1	98
random	1	1	67	106149	1	3	3	1	0	1078	1	4	0	24	66	0	1	99
random	1	1	68	107559	5	4	4	1	0	762	1	4	0	32	67	0	1	99
random	1	1	69	109313	2	2	2	1	0	759	1	4	0	16	68	0	1	99
random	1	1	70	110548	3	1	1	1	0	715	1	4	0	8	69	0	1	99
random	1	1	71	111748	5	4	4	1	0	769	1	4	0	32	70	0	1	99
random	1	1	72	113400	6	3	3	1	0	1115	1	4	0	24	71	0	1	99
random	1	1	73	115612	2	1	1	1	0	668	1	4	0	8	72	0	1	99
random	1	1	74	116690	5	3	3	1	0	1247	1	4	0	24	73	0	1	99
random	1	1	75	118872	1	4	4	1	0	762	1	4	0	32	74	0	1	99
random	1	1	76	120491	6	2	2	1	0	750	1	4	0	16	75	0	1	99
random	1	1	77	121956	2	1	1	1	0	624	1	4	0	8	76	0	1	99
random	1	1	78	123144	4	4	4	1	0	749	1	4	0	32	77	0	1	99
random	1	1	79	124822	3	2	2	1	0	855	1	4	0	16	78	0	1	99
random	1	1	80	126460	4	3	3	1	0	705	1	4	0	24	79	0	1	99
random	1	1	81	127501	1	4	4	1	0	813	1	4	0	32	80	0	1	99
random	1	1	82	129267	5	1	1	1	0	650	1	4	0	8	81	0	1	99
random	1	1	83	130707	3	2	2	1	0	1045	1	4	0	16	82	0	1	99
random	1	1	84	132783	6	3	3	1	0	630	1	4	0	24	83	0	1	99
random	1	1	85	134659	3	2	2	1	0	854	1	4	0	16	84	0	1	99
random	1	1	86	136359	1	3	3	1	0	1014	1	4	0	24	85	0	1	99
random	1	1	87	138049	4	4	4	1	0	766	1	4	0	32	86	0	1	99
random	1	1	88	139850	2	1	1	1	0	682	1	4	0	8	87	0	1	99
random	1	1	89	141412	6	4	4	1	0	680	1	4	0	32	88	0	1	99
random	1	1	90	142695	3	3	3	1	0	1153	1	4	0	24	89	0	1	99
random	1	1	91	144756	5	4	4	1	0	666	1	4	0	32	90	0	1	99
random	1	1	92	145780	1	2	2	1	0	703	1	4	0	16	91	0	1	99
random	1	1	93	147451	5	1	1	1	0	736	1	4	0	8	92	0	1	99
random	1	1	94	148707	4	3	3	1	0	827	1	4	0	24	93	0	1	99
random	1	1	95	150153	6	1	1	1	0	790	1	4	0	8	94	0	1	99
random	1	1	96	151746	2	2	2	1	0	978	1	4	0	16	95	0	1	99
random	1	1	97	153605	4	3	3	1	0	1083	1	4	0	24	96	0	1	99
random	1	1	98	154982	3	2	2	1	0	897	1	4	0	16	97	0	1	99
random	1	1	99	156471	6	3	3	1	0	1538	1	4	0	24	98	0	1	99
random	1	1	100	158682	1	4	4	1	0	900	1	4	0	32	99	0	1	99
random	1	1	101	160338	4	1	1	1	0	726	1	4	0	8	100	0	1	99
random	1	1	102	161947	5	2	2	1	0	802	1	4	0	16	101	0	1	99
random	1	1	103	163465	2	4	4	1	0	626	1	4	0	32	102	0	1	99
random	1	1	104	164677	3	1	1	1	0	695	1	4	0	8	103	0	1	99
random	1	1	105	166336	1	3	3	1	0	936	1	4	0	24	104	0	1	99
random	1	1	106	167921	2	2	2	1	0	957	1	4	0	16	105	0	1	99
random	1	1	107	169253	5	4	4	1	0	645	1	4	0	32	106	0	1	99
random	1	1	108	170840	6	1	1	1	0	762	1	4	0	8	107	0	1	99
random	1	1	109	172501	5	4	4	1	0	755	1	4	0	32	108	0	1	99
random	1	1	110	173898	6	3	3	1	0	1520	1	4	0	24	109	0	1	99
random	1	1	111	176072	2	2	2	1	0	652	1	4	0	16	110	0	1	99
random	1	1	112	177316	3	1	1	1	0	831	1	4	0	8	111	0	1	99
random	1	1	113	178605	1	2	2	1	0	977	1	4	0	16	112	0	1	99
random	1	1	114	180408	2	3	3	1	0	788	1	4	0	24	113	0	1	99
random	1	1	115	182235	3	1	1	1	0	727	1	4	0	8	114	0	1	99
random	1	1	116	183731	4	4	4	1	0	687	1	4	0	32	115	0	1	99
random	1	1	117	185358	6	1	1	1	0	635	1	4	0	8	116	0	1	99
random	1	1	118	186782	5	3	3	1	0	935	1	4	0	24	117	0	1	99
random	1	1	119	188215	1	4	4	1	0	698	1	4	0	32	118	0	1	99
random	1	1	120	189280	4	2	2	1	0	612	1	4	0	16	119	0	1	99
fixed	2	1	1	191379	4	1	1	1	0	715	1	4	0	40	1	0	0	100
fixed	2	1	2	192899	1	2	2	1	0	771	1	4	0	48	2	0	0	100
fixed	2	1	3	194619	6	4	4	1	0	643	1	4	0	64	3	0	0	100
fixed	2	1	4	195985	2	1	1	1	0	761	1	4	0	40	4	0	0	100
fixed	2	1	5	197149	5	3	3	1	0	911	1	4	0	56	5	0	0	100
fixed	2	1	6	198552	6	4	4	1	0	668	1	4	0	64	6	0	0	100
fixed	2	1	7	200052	3	1	1	1	0	868	1	4	0	40	7	0	0	100
fixed	2	1	8	201261	2	3	3	1	0	985	1	4	0	56	8	0	0	100
fixed	2	1	9	203005	3	2	2	1	0	951	1	4	0	48	9	0	0	100
fixed	2	1	10	204587	1	4	4	1	0	580	1	4	0	64	10	0	0	100
fixed	2	1	11	205626	5	2	2	1	0	944	1	4	0	48	11	0	0	100
fixed	2	1	12	207473	4	3	3	1	0	898	1	4	0	56	12	0	0	100
fixed	2	2	1	209041	4	1	1	1	0	671	1	4	0	40	13	0	0	100
fixed	2	2	2	210429	1	2	2	1	0	788	1	4	0	48	14	0	0	100
fixed	2	2	3	211971	6	4	4	1	0	579	1	4	0	64	15	0	0	100
fixed	2	2	4	213320	2	1	1	1	0	618	1	4	0	40	16	0	0	100
fixed	2	2	5	214606	5	3	3	1	0	892	1	4	0	56	17	0	0	100
fixed	2	2	6	216008	6	4	4	1	0	664	1	4	0	64	18	0	0	100
fixed	2	2	7	217496	3	1	1	1	0	673	1	4	0	40	19	0	0	100
fixed	2	2	8	218673	2	3	3	1	0	768	1	4	0	56	20	0	0	100
fixed	2	2	9	219903	3	2	2	1	0	923	1	4	0	48	21	0	0	100
fixed	2	2	10	221675	1	4	4	1	0	600	1	4	0	64	22	0	0	100
fixed	2	2	11	222849	5	2	2	1	0	967	1	4	0	48	23	0	0	100
fixed	2	2	12	224319	4	3	3	1	0	745	1	4	0	56	24	0	0	100
fixed	2	3	1	226334	4	1	1	1	0	715	1	4	0	40	25	0	0	100
fixed	2	3	2	228067	1	2	2	1	0	930	1	4	0	48	26	0	0	100
fixed	2	3	3	229339	6	4	4	1	0	979	1	4	0	64	27	0	0	100
fixed	2	3	4	231150	2	1	1	1	0	631	1	4	0	40	28	0	0	100
fixed	2	3	5	232241	5	3	3	1	0	1161	1	4	0	56	29	0	0	100
fixed	2	3	6	234215	6	4	4	1	0	622	1	4	0	64	30	0	0	100
fixed	2	3	7	235866	3	1	1	1	0	615	1	4	0	40	31	0	0	100
fixed	2	3	8	236925	2	3	3	1	0	1010	1	4	0	56	32	0	0	100
fixed	2	3	9	238728	3	2	2	1	0	598	1	4	0	48	33	0	0	100
fixed	2	3	10	239655	1	4	4	1	0	687	1	4	0	64	34	0	0	100
fixed	2	3	11	240648	5	2	2	1	0	757	1	4	0	48	35	0	0	100
fixed	2	3	12	242189	4	3	3	1	0	923	1	4	0	56	36	0	0	100
fixed	2	4	1	243927	4	1	1	1	0	650	1	4	0	40	37	0	0	100
fixed	2	4	2	245357	1	2	2	1	0	781	1	4	0	48	38	0	0	100
fixed	2	4	3	247153	6	4	4	1	0	625	1	4	0	64	39	0	0	100
fixed	2	4	4	248529	2	1	1	1	0	631	1	4	0	40	40	0	0	100
fixed	2	4	5	250134	5	3	3	1	0	1035	1	4	0	56	41	0	0	100
fixed	2	4	6	252129	6	4	4	1	0	694	1	4	0	64	42	0	0	100
fixed	2	4	7	253600	3	1	1	1	0	680	1	4	0	40	43	0	0	100
fixed	2	4	8	254873	2	3	3	1	0	1026	1	4	0	56	44	0	0	100
fixed	2	4	9	256902	3	2	2	1	0	797	1	4	0	48	45	0	0	100
fixed	2	4	10	258091	1	4	4	1	0	634	1	4	0	64	46	0	0	100
fixed	2	4	11	259124	5	2	2	1	0	862	1	4	0	48	47	0	0	100
fixed	2	4	12	260423	4	3	3	1	0	1159	1	4	0	56	48	0	0	100
fixed	2	5	1	262623	4	1	1	1	0	706	1	4	0	40	49	0	0	100
fixed	2	5	2	263799	1	2	2	1	0	992	1	4	0	48	50	0	0	100
fixed	2	5	3	265552	6	4	4	1	0	630	1	4	0	64	51	0	0	100
fixed	2	5	4	266708	2	1	1	1	0	773	1	4	0	40	52	0	0	100
fixed	2	5	5	267938	5	3	3	1	0	881	1	4	0	56	53	0	0	100
fixed	2	5	6	269778	6	4	4	1	0	699	1	4	0	64	54	0	0	100
fixed	2	5	7	271208	3	1	1	1	0	654	1	4	0	40	55	0	0	100
fixed	2	5	8	272265	2	3	3	1	0	929	1	4	0	56	56	0	0	100
fixed	2	5	9	273978	3	2	2	1	0	1073	1	4	0	48	57	0	0	100
fixed	2	5	10	275927	1	4	4	1	0	630	1	4	0	64	58	0	0	100
fixed	2	5	11	277172	5	2	0	1	2	0	3	4	0	48	58	0	1	98
fixed	2	5	12	280149	4	3	3	1	0	1652	1	4	0	56	59	0	1	98
fixed	2	6	1	282371	4	1	1	1	0	1085	1	4	0	40	60	0	1	98
fixed	2	6	2	284416	1	2	2	1	0	807	1	4	0	48	61	0	1	98
fixed	2	6	3	286173	6	4	4	1	0	645	1	4	0	64	62	0	1	98
fixed	2	6	4	287588	2	1	1	1	0	673	1	4	0	40	63	0	1	98
fixed	2	6	5	288777	5	3	3	1	0	878	1	4	0	56	64	0	1	98
fixed	2	6	6	290430	6	4	4	1	0	632	1	4	0	64	65	0	1	98
fixed	2	6	7	292087	3	1	1	1	0	722	1	4	0	40	66	0	1	99
fixed	2	6	8	293580	2	3	3	1	0	978	1	4	0	56	67	0	1	99
fixed	2	6	9	294903	3	2	2	1	0	931	1	4	0	48	68	0	1	99
fixed	2	6	10	296643	1	4	4	1	0	617	1	4	0	64	69	0	1	99
fixed	2	6	11	298190	5	2	2	1	0	944	1	4	0	48	70	0	1	99
fixed	2	6	12	299876	4	3	3	1	0	632	1	4	0	56	71	0	1	99
fixed	2	7	1	301635	4	1	1	1	0	773	1	4	0	40	72	0	1	99
fixed	2	7	2	303282	1	2	2	1	0	1040	1	4	0	48	73	0	1	99
fixed	2	7	3	304631	6	4	4	1	0	695	1	4	0	64	74	0	1	99
fixed	2	7	4	305813	2	1	1	1	0	740	1	4	0	40	75	0	1	99
fixed	2	7	5	307152	5	3	3	1	0	1164	1	4	0	56	76	0	1	99
fixed	2	7	6	308948	6	4	4	1	0	672	1	4	0	64	77	0	1	99
fixed	2	7	7	310023	3	1	1	1	0	738	1	4	0	40	78	0	1	99
fixed	2	7	8	311140	2	3	3	1	0	1027	1	4	0	56	79	0	1	99
fixed	2	7	9	313199	3	2	2	1	0	932	1	4	0	48	80	0	1	99
fixed	2	7	10	314728	1	4	4	1	0	691	1	4	0	64	81	0	1	99
fixed	2	7	11	316329	5	2	2	1	0	1175	1	4	0	48	82	0	1	99
fixed	2	7	12	318327	4	3	3	1	0	578	1	4	0	56	83	0	1	99
fixed	2	8	1	319813	4	1	1	1	0	691	1	4	0	40	84	0	1	99
fixed	2	8	2	321425	1	2	2	1	0	984	1	4	0	48	85	0	1	99
fixed	2	8	3	323084	6	4	4	1	0	721	1	4	0	64	86	0	1	99
fixed	2	8	4	324486	2	1	1	1	0	662	1	4	0	40	87	0	1	99
fixed	2	8	5	325941	5	3	3	1	0	808	1	4	0	56	88	0	1	99
fixed	2	8	6	327493	6	4	4	1	0	775	1	4	0	64	89	0	1	99
fixed	2	8	7	328890	3	1	1	1	0	723	1	4	0	40	90	0	1	99
fixed	2	8	8	329981	2	3	3	1	0	1061	1	4	0	56	91	0	1	99
fixed	2	8	9	331807	3	2	2	1	0	631	1	4	0	48	92	0	1	99
fixed	2	8	10	333149	1	4	4	1	0	671	1	4	0	64	93	0	1	99
fixed	2	8	11	334667	5	2	2	1	0	726	1	4	0	48	94	0	1	99
fixed	2	8	12	335823	4	3	3	1	0	926	1	4	0	56	95	0	1	99
fixed	2	9	1	337406	4	1	1	1	0	698	1	4	0	40	96	0	1	99
fixed	2	9	2	338732	1	2	2	1	0	762	1	4	0	48	97	0	1	99
fixed	2	9	3	339836	6	4	4	1	0	756	1	4	0	64	98	0	1	99
fixed	2	9	4	341398	2	1	1	1	0	681	1	4	0	40	99	0	1	99
fixed	2	9	5	342915	5	3	3	1	0	777	1	4	0	56	100	0	1	99
fixed	2	9	6	344631	6	4	4	1	0	657	1	4	0	64	101	0	1	99
fixed	2	9	7	346260	3	1	1	1	0	667	1	4	0	40	102	0	1	99
fixed	2	9	8	347336	2	3	3	1	0	990	1	4	0	56	103	0	1	99
fixed	2	9	9	348624	3	2	2	1	0	727	1	4	0	48	104	0	1	99
fixed	2	9	10	350012	1	4	4	1	0	637	1	4	0	64	105	0	1	99
fixed	2	9	11	351547	5	2	2	1	0	892	1	4	0	48	106	0	1	99
fixed	2	9	12	353444	4	3	3	1	0	995	1	4	0	56	107	0	1	99
fixed	2	10	1	354999	4	1	1	1	0	657	1	4	0	40	108	0	1	99
fixed	2	10	2	356009	1	2	2	1	0	927	1	4	0	48	109	0	1	99
fixed	2	10	3	357838	6	4	4	1	0	617	1	4	0	64	110	0	1	99
fixed	2	10	4	358790	2	1	1	1	0	656	1	4	0	40	111	0	1	99
fixed	2	10	5	359941	5	3	3	1	0	1864	1	4	0	56	112	0	1	99
fixed	2	10	6	362449	6	4	4	1	0	622	1	4	0	64	113	0	1	99
fixed	2	10	7	363579	3	1	1	1	0	702	1	4	0	40	114	0	1	99
fixed	2	10	8	364806	2	3	3	1	0	786	1	4	0	56	115	0	1	99
fixed	2	10	9	366328	3	2	2	1	0	969	1	4	0	48	116	0	1	99
fixed	2	10	10	367687	1	4	4	1	0	632	1	4	0	64	117	0	1	99
fixed	2	10	11	369225	5	2	2	1	0	959	1	4	0	48	118	0	1	99
fixed	2	10	12	371044	4	3	3	1	0	746	1	4	0	56	119	0	1	99
fixed	3	1	1	372824	4	1	1	1	0	630	1	4	0	72	1	0	0	100
fixed	3	1	2	373824	1	2	2	1	0	1116	1	4	0	80	2	0	0	100
fixed	3	1	3	375234	6	4	4	1	0	800	1	4	0	96	3	0	0	100
fixed	3	1	4	376863	2	1	1	1	0	740	1	4	0	72	4	0	0	100
fixed	3	1	5	377946	5	3	3	1	0	830	1	4	0	88	5	0	0	100
fixed	3	1	6	379108	6	4	4	1	0	1516	1	4	0	96	6	0	0	100
fixed	3	1	7	381103	3	1	1	1	0	640	1	4	0	72	7	0	0	100
fixed	3	1	8	382164	2	3	3	1	0	818	1	4	0	88	8	0	0	100
fixed	3	1	9	383987	3	2	2	1	0	909	1	4	0	80	9	0	0	100
fixed	3	1	10	385231	1	4	4	1	0	617	1	4	0	96	10	0	0	100
fixed	3	1	11	386463	5	2	2	1	0	813	1	4	0	80	11	0	0	100
fixed	3	1	12	387753	4	3	3	1	0	894	1	4	0	88	12	0	0	100
fixed	3	2	1	389217	4	1	1	1	0	704	1	4	0	72	13	0	0	100
fixed	3	2	2	390443	1	2	2	1	0	804	1	4	0	80	14	0	0	100
fixed	3	2	3	391867	6	4	4	1	0	656	1	4	0	96	15	0	0	100
fixed	3	2	4	393204	2	1	1	1	0	895	1	4	0	72	16	0	0	100
fixed	3	2	5	394654	5	3	3	1	0	874	1	4	0	88	17	0	0	100
fixed	3	2	6	396095	6	4	4	1	0	685	1	4	0	96	18	0	0	100
fixed	3	2	7	397519	3	1	1	1	0	576	1	4	0	72	19	0	0	100
fixed	3	2	8	399092	2	3	3	1	0	750	1	4	0	88	20	0	0	100
fixed	3	2	9	400416	3	2	2	1	0	998	1	4	0	80	21	0	0	100
fixed	3	2	10	402205	1	4	4	1	0	634	1	4	0	96	22	0	0	100
fixed	3	2	11	403607	5	2	2	1	0	919	1	4	0	80	23	0	0	100
fixed	3	2	12	405329	4	3	3	1	0	702	1	4	0	88	24	0	0	100
fixed	3	3	1	406693	4	1	1	1	0	644	1	4	0	72	25	0	0	100
fixed	3	3	2	407956	1	2	2	1	0	1239	1	4	0	80	26	0	0	100
fixed	3	3	3	409634	6	4	4	1	0	631	1	4	0	96	27	0	0	100
fixed	3	3	4	410902	2	1	1	1	0	689	1	4	0	72	28	0	0	100
fixed	3	3	5	412153	5	3	3	1	0	885	1	4	0	88	29	0	0	100
fixed	3	3	6	413483	6	4	4	1	0	700	1	4	0	96	30	0	0	100
fixed	3	3	7	415154	3	1	1	1	0	702	1	4	0	72	31	0	0	100
fixed	3	3	8	416579	2	3	3	1	0	1025	1	4	0	88	32	0	0	100
fixed	3	3	9	417986	3	2	2	1	0	789	1	4	0	80	33	0	0	100
fixed	3	3	10	419462	1	4	4	1	0	719	1	4	0	96	34	0	0	100
fixed	3	3	11	421194	5	2	2	1	0	797	1	4	0	80	35	0	0	100
fixed	3	3	12	422398	4	3	3	1	0	666	1	4	0	88	36	0	0	100
fixed	3	4	1	424152	4	1	1	1	0	680	1	4	0	72	37	0	0	100
fixed	3	4	2	425342	1	2	2	1	0	1086	1	4	0	80	38	0	0	100
fixed	3	4	3	427241	6	4	4	1	0	661	1	4	0	96	39	0	0	100
fixed	3	4	4	428658	2	1	1	1	0	1250	1	4	0	72	40	0	0	100
fixed	3	4	5	430769	5	3	3	1	0	912	1	4	0	88	41	0	0	100
fixed	3	4	6	432328	6	4	4	1	0	614	1	4	0	96	42	0	0	100
fixed	3	4	7	433406	3	1	1	1	0	648	1	4	0	72	43	0	0	100
fixed	3	4	8	434524	2	3	3	1	0	1073	1	4	0	88	44	0	0	100
fixed	3	4	9	436378	3	2	2	1	0	651	1	4	0	80	45	0	0	100
fixed	3	4	10	437452	1	4	4	1	0	597	1	4	0	96	46	0	0	100
fixed	3	4	11	438967	5	2	2	1	0	949	1	4	0	80	47	0	0	100
fixed	3	4	12	440427	4	3	3	1	0	1095	1	4	0	88	48	0	0	100
fixed	3	5	1	442264	4	1	1	1	0	737	1	4	0	72	49	0	0	100
fixed	3	5	2	443385	1	2	2	1	0	842	1	4	0	80	50	0	0	100
fixed	3	5	3	444647	6	4	4	1	0	637	1	4	0	96	51	0	0	100
fixed	3	5	4	445948	2	1	1	1	0	773	1	4	0	72	52	0	0	100
fixed	3	5	5	447130	5	3	3	1	0	1195	1	4	0	88	53	0	0	100
fixed	3	5	6	449017	6	4	4	1	0	699	1	4	0	96	54	0	0	100
fixed	3	5	7	450053	3	1	1	1	0	743	1	4	0	72	55	0	0	100
fixed	3	5	8	451131	2	3	3	1	0	1346	1	4	0	88	56	0	0	100
fixed	3	5	9	453465	3	2	2	1	0	679	1	4	0	80	57	0	0	100
fixed	3	5	10	454446	1	4	4	1	0	733	1	4	0	96	58	0	0	100
fixed	3	5	11	455812	5	2	2	1	0	1099	1	4	0	80	59	0	0	100
fixed	3	5	12	457683	4	3	3	1	0	596	1	4	0	88	60	0	0	100
fixed	3	6	1	459222	4	1	1	1	0	715	1	4	0	72	61	0	0	100
fixed	3	6	2	460354	1	2	2	1	0	1011	1	4	0	80	62	0	0	100
fixed	3	6	3	462319	6	4	4	1	0	576	1	4	0	96	63	0	0	100
fixed	3	6	4	463262	2	1	1	1	0	712	1	4	0	72	64	0	0	100
fixed	3	6	5	464687	5	3	3	1	0	1235	1	4	0	88	65	0	0	100
fixed	3	6	6	466628	6	4	4	1	0	697	1	4	0	96	66	0	0	100
fixed	3	6	7	467739	3	1	1	1	0	795	1	4	0	72	67	0	0	100
fixed	3	6	8	469030	2	3	3	1	0	1179	1	4	0	88	68	0	0	100
fixed	3	6	9	471139	3	2	2	1	0	666	1	4	0	80	69	0	0	100
fixed	3	6	10	472364	1	4	4	1	0	999	1	4	0	96	70	0	0	100
fixed	3	6	11	473723	5	2	2	1	0	1189	1	4	0	80	71	0	0	100
fixed	3	6	12	475847	4	3	3	1	0	1211	1	4	0	88	72	0	0	100
fixed	3	7	1	478352	4	1	1	1	0	857	1	4	0	72	73	0	0	100
fixed	3	7	2	480169	1	2	0	1	2	0	3	4	0	80	73	0	1	99
fixed	3	7	3	483068	6	4	4	1	0	841	1	4	0	96	74	0	1	99
fixed	3	7	4	484502	2	1	1	1	0	868	1	4	0	72	75	0	1	99
fixed	3	7	5	486124	5	3	3	1	0	1431	1	4	0	88	76	0	1	99
fixed	3	7	6	488343	6	4	4	1	0	657	1	4	0	96	77	0	1	99
fixed	3	7	7	489709	3	1	1	1	0	872	1	4	0	72	78	0	1	99
fixed	3	7	8	491014	2	3	3	1	0	1424	1	4	0	88	79	0	1	99
fixed	3	7	9	493227	3	2	2	1	0	635	1	4	0	80	80	0	1	99
fixed	3	7	10	494404	1	4	4	1	0	945	1	4	0	96	81	0	1	99
fixed	3	7	11	496108	5	2	2	1	0	817	1	4	0	80	82	0	1	99
fixed	3	7	12	497728	4	3	3	1	0	572	1	4	0	88	83	0	1	99
fixed	3	8	1	499103	4	1	1	1	0	706	1	4	0	72	84	0	1	99
fixed	3	8	2	500384	1	2	2	1	0	1228	1	4	0	80	85	0	1	99
fixed	3	8	3	502332	6	4	4	1	0	665	1	4	0	96	86	0	1	99
fixed	3	8	4	503597	2	1	1	1	0	747	1	4	0	72	87	0	1	99
fixed	3	8	5	505252	5	3	3	1	0	861	1	4	0	88	88	0	1	99
fixed	3	8	6	506460	6	4	4	1	0	834	1	4	0	96	89	0	1	99
fixed	3	8	7	507970	3	1	1	1	0	531	1	4	0	72	90	0	1	99
fixed	3	8	8	509522	2	3	3	1	0	825	1	4	0	88	91	0	1	99
fixed	3	8	9	511212	3	2	2	1	0	881	1	4	0	80	92	0	1	99
fixed	3	8	10	513059	1	4	4	1	0	739	1	4	0	96	93	0	1	99
fixed	3	8	11	514270	5	2	2	1	0	904	1	4	0	80	94	0	1	99
fixed	3	8	12	515473	4	3	3	1	0	741	1	4	0	88	95	0	1	99
fixed	3	9	1	517431	4	1	1	1	0	745	1	4	0	72	96	0	1	99
fixed	3	9	2	518593	1	2	2	1	0	1153	1	4	0	80	97	0	1	99
fixed	3	9	3	520344	6	4	4	1	0	654	1	4	0	96	98	0	1	99
fixed	3	9	4	521880	2	1	1	1	0	733	1	4	0	72	99	0	1	99
fixed	3	9	5	523525	5	3	3	1	0	688	1	4	0	88	100	0	1	99
fixed	3	9	6	524793	6	4	4	1	0	698	1	4	0	96	101	0	1	99
fixed	3	9	7	526318	3	1	1	1	0	585	1	4	0	72	102	0	1	99
fixed	3	9	8	527689	2	3	3	1	0	911	1	4	0	88	103	0	1	99
fixed	3	9	9	529437	3	2	2	1	0	861	1	4	0	80	104	0	1	99
fixed	3	9	10	530715	1	4	4	1	0	679	1	4	0	96	105	0	1	99
fixed	3	9	11	531765	5	2	2	1	0	874	1	4	0	80	106	0	1	99
fixed	3	9	12	533543	4	3	3	1	0	823	1	4	0	88	107	0	1	99
fixed	3	10	1	535041	4	1	1	1	0	687	1	4	0	72	108	0	1	99
fixed	3	10	2	536154	1	2	2	1	0	1313	1	4	0	80	109	0	1	99
fixed	3	10	3	537848	6	4	4	1	0	689	1	4	0	96	110	0	1	99
fixed	3	10	4	538981	2	1	1	1	0	1033	1	4	0	72	111	0	1	99
fixed	3	10	5	540434	5	3	3	1	0	1740	1	4	0	88	112	0	1	99
fixed	3	10	6	542677	6	4	4	1	0	756	1	4	0	96	113	0	1	99
fixed	3	10	7	543874	3	1	1	1	0	730	1	4	0	72	114	0	1	99
fixed	3	10	8	545502	2	3	3	1	0	1108	1	4	0	88	115	0	1	99
fixed	3	10	9	547029	3	2	2	1	0	740	1	4	0	80	116	0	1	99
fixed	3	10	10	548147	1	4	4	1	0	701	1	4	0	96	117	0	1	99
fixed	3	10	11	549815	5	2	2	1	0	990	1	4	0	80	118	0	1	99
fixed	3	10	12	551156	4	3	3	1	0	653	1	4	0	88	119	0	1	99
fixed	4	1	1	667931	4	1	1	1	0	1659	1	4	0	104	1	0	0	100
fixed	4	1	2	670063	1	2	2	1	0	993	1	4	0	112	2	0	0	100
fixed	4	1	3	671768	6	4	4	1	0	649	1	4	0	128	3	0	0	100
fixed	4	1	4	673215	2	1	1	1	0	803	1	4	0	104	4	0	0	100
fixed	4	1	5	674866	5	3	3	1	0	637	1	4	0	120	5	0	0	100
fixed	4	1	6	676127	6	4	4	1	0	672	1	4	0	128	6	0	0	100
fixed	4	1	7	677173	3	1	1	1	0	748	1	4	0	104	7	0	0	100
fixed	4	1	8	678845	2	3	3	1	0	813	1	4	0	120	8	0	0	100
fixed	4	1	9	679982	3	2	2	1	0	1125	1	4	0	112	9	0	0	100
fixed	4	1	10	681680	1	4	4	1	0	597	1	4	0	128	10	0	0	100
fixed	4	1	11	683257	5	2	2	1	0	986	1	4	0	112	11	0	0	100
fixed	4	1	12	685186	4	3	3	1	0	529	1	4	0	120	12	0	0	100
fixed	4	2	1	686813	4	1	1	1	0	771	1	4	0	104	13	0	0	100
fixed	4	2	2	688369	1	2	2	1	0	793	1	4	0	112	14	0	0	100
fixed	4	2	3	689887	6	4	4	1	0	641	1	4	0	128	15	0	0	100
fixed	4	2	4	691209	2	1	1	1	0	737	1	4	0	104	16	0	0	100
fixed	4	2	5	692812	5	3	3	1	0	869	1	4	0	120	17	0	0	100
fixed	4	2	6	694358	6	4	4	1	0	644	1	4	0	128	18	0	0	100
fixed	4	2	7	695386	3	1	1	1	0	768	1	4	0	104	19	0	0	100
fixed	4	2	8	696797	2	3	3	1	0	997	1	4	0	120	20	0	0	100
fixed	4	2	9	698176	3	2	2	1	0	802	1	4	0	112	21	0	0	100
fixed	4	2	10	699606	1	4	4	1	0	686	1	4	0	128	22	0	0	100
fixed	4	2	11	700643	5	2	2	1	0	970	1	4	0	112	23	0	0	100
fixed	4	2	12	702090	4	3	3	1	0	1020	1	4	0	120	24	0	0	100
fixed	4	3	1	703688	4	1	1	1	0	752	1	4	0	104	25	0	0	100
fixed	4	3	2	705396	1	2	2	1	0	928	1	4	0	112	26	0	0	100
fixed	4	3	3	707065	6	4	4	1	0	993	1	4	0	128	27	0	0	100
fixed	4	3	4	708773	2	1	1	1	0	593	1	4	0	104	28	0	0	100
fixed	4	3	5	709728	5	3	3	1	0	1033	1	4	0	120	29	0	0	100
fixed	4	3	6	711765	6	4	4	1	0	643	1	4	0	128	30	0	0	100
fixed	4	3	7	713082	3	1	1	1	0	779	1	4	0	104	31	0	0	100
fixed	4	3	8	714875	2	3	3	1	0	975	1	4	0	120	32	0	0	100
fixed	4	3	9	716466	3	2	2	1	0	620	1	4	0	112	33	0	0	100
fixed	4	3	10	718074	1	4	4	1	0	687	1	4	0	128	34	0	0	100
fixed	4	3	11	719568	5	2	2	1	0	832	1	4	0	112	35	0	0	100
fixed	4	3	12	720782	4	3	3	1	0	845	1	4	0	120	36	0	0	100
fixed	4	4	1	722200	4	1	1	1	0	792	1	4	0	104	37	0	0	100
fixed	4	4	2	723515	1	2	2	1	0	1505	1	4	0	112	38	0	0	100
fixed	4	4	3	725326	6	4	4	1	0	812	1	4	0	128	39	0	0	100
fixed	4	4	4	727013	2	1	1	1	0	693	1	4	0	104	40	0	0	100
fixed	4	4	5	728467	5	3	3	1	0	631	1	4	0	120	41	0	0	100
fixed	4	4	6	729680	6	4	4	1	0	708	1	4	0	128	42	0	0	100
fixed	4	4	7	731290	3	1	1	1	0	719	1	4	0	104	43	0	0	100
fixed	4	4	8	733056	2	3	3	1	0	1077	1	4	0	120	44	0	0	100
fixed	4	4	9	734960	3	2	2	1	0	1164	1	4	0	112	45	0	0	100
fixed	4	4	10	736869	1	4	4	1	0	683	1	4	0	128	46	0	0	100
fixed	4	4	11	737988	5	2	2	1	0	852	1	4	0	112	47	0	0	100
fixed	4	4	12	739447	4	3	3	1	0	782	1	4	0	120	48	0	0	100
fixed	4	5	1	741498	4	1	1	1	0	823	1	4	0	104	49	0	0	100
fixed	4	5	2	743335	1	2	2	1	0	1105	1	4	0	112	50	0	0	100
fixed	4	5	3	745255	6	4	4	1	0	712	1	4	0	128	51	0	0	100
fixed	4	5	4	746655	2	1	1	1	0	901	1	4	0	104	52	0	0	100
fixed	4	5	5	747954	5	3	3	1	0	1046	1	4	0	120	53	0	0	100
fixed	4	5	6	749944	6	4	4	1	0	706	1	4	0	128	54	0	0	100
fixed	4	5	7	751677	3	1	1	1	0	792	1	4	0	104	55	0	0	100
fixed	4	5	8	753036	2	3	3	1	0	887	1	4	0	120	56	0	0	100
fixed	4	5	9	754278	3	2	2	1	0	882	1	4	0	112	57	0	0	100
fixed	4	5	10	755757	1	4	4	1	0	659	1	4	0	128	58	0	0	100
fixed	4	5	11	757451	5	2	2	1	0	1067	1	4	0	112	59	0	0	100
fixed	4	5	12	758923	4	3	3	1	0	557	1	4	0	120	60	0	0	100
fixed	4	6	1	760444	4	1	1	1	0	757	1	4	0	104	61	0	0	100
fixed	4	6	2	761830	1	2	2	1	0	994	1	4	0	112	62	0	0	100
fixed	4	6	3	763167	6	4	4	1	0	737	1	4	0	128	63	0	0	100
fixed	4	6	4	764948	2	1	1	1	0	678	1	4	0	104	64	0	0	100
fixed	4	6	5	766284	5	3	3	1	0	1718	1	4	0	120	65	0	0	100
fixed	4	6	6	768586	6	4	4	1	0	668	1	4	0	128	66	0	0	100
fixed	4	6	7	770154	3	1	1	1	0	681	1	4	0	104	67	0	0	100
fixed	4	6	8	771711	2	3	3	1	0	784	1	4	0	120	68	0	0	100
fixed	4	6	9	773426	3	2	2	1	0	727	1	4	0	112	69	0	0	100
fixed	4	6	10	774608	1	4	4	1	0	621	1	4	0	128	70	0	0	100
fixed	4	6	11	776169	5	2	2	1	0	723	1	4	0	112	71	0	0	100
fixed	4	6	12	777326	4	3	3	1	0	658	1	4	0	120	72	0	0	100
fixed	4	7	1	779190	4	1	1	1	0	803	1	4	0	104	73	0	0	100
fixed	4	7	2	780920	1	2	2	1	0	794	1	4	0	112	74	0	0	100
fixed	4	7	3	782743	6	4	4	1	0	669	1	4	0	128	75	0	0	100
fixed	4	7	4	783869	2	1	1	1	0	740	1	4	0	104	76	0	0	100
fixed	4	7	5	785550	5	3	3	1	0	798	1	4	0	120	77	0	0	100
fixed	4	7	6	787087	6	4	4	1	0	749	1	4	0	128	78	0	0	100
fixed	4	7	7	788742	3	1	1	1	0	694	1	4	0	104	79	0	0	100
fixed	4	7	8	789768	2	3	3	1	0	835	1	4	0	120	80	0	0	100
fixed	4	7	9	791261	3	2	2	2	0	2412	2	4	0	112	81	0	0	100
fixed	4	7	10	794303	1	4	4	1	0	691	1	4	0	128	82	0	0	100
fixed	4	7	11	795781	5	2	2	1	0	1212	1	4	0	112	83	0	0	100
fixed	4	7	12	797942	4	3	3	1	0	1321	1	4	0	120	84	0	0	100
fixed	4	8	1	800208	4	1	1	1	0	816	1	4	0	104	85	0	0	100
fixed	4	8	2	801555	1	2	2	1	0	904	1	4	0	112	86	0	0	100
fixed	4	8	3	803245	6	4	4	1	0	672	1	4	0	128	87	0	0	100
fixed	4	8	4	804458	2	1	1	1	0	901	1	4	0	104	88	0	0	100
fixed	4	8	5	806310	5	3	3	1	0	886	1	4	0	120	89	0	0	100
fixed	4	8	6	807596	6	4	4	1	0	752	1	4	0	128	90	0	0	100
fixed	4	8	7	809140	3	1	1	1	0	550	1	4	0	104	91	0	0	100
fixed	4	8	8	810173	2	3	3	1	0	795	1	4	0	120	92	0	0	100
fixed	4	8	9	811906	3	2	2	1	0	961	1	4	0	112	93	0	0	100
fixed	4	8	10	813799	1	4	4	1	0	649	1	4	0	128	94	0	0	100
fixed	4	8	11	814821	5	2	2	1	0	950	1	4	0	112	95	0	0	100
fixed	4	8	12	816138	4	3	3	1	0	878	1	4	0	120	96	0	0	100
fixed	4	9	1	818019	4	1	1	1	0	726	1	4	0	104	97	0	0	100
fixed	4	9	2	819489	1	2	2	1	0	1112	1	4	0	112	98	0	0	100
fixed	4	9	3	821359	6	4	4	1	0	656	1	4	0	128	99	0	0	100
fixed	4	9	4	822321	2	1	1	1	0	768	1	4	0	104	100	0	0	100
fixed	4	9	5	824096	5	3	3	1	0	1189	1	4	0	120	101	0	0	100
fixed	4	9	6	826047	6	4	4	1	0	794	1	4	0	128	102	0	0	100
fixed	4	9	7	827126	3	1	1	1	0	868	1	4	0	104	103	0	0	100
fixed	4	9	8	828565	2	3	3	1	0	1063	1	4	0	120	104	0	0	100
fixed	4	9	9	830603	3	2	2	1	0	537	1	4	0	112	105	0	0	100
fixed	4	9	10	831757	1	4	4	1	0	704	1	4	0	128	106	0	0	100
fixed	4	9	11	832844	5	2	2	1	0	858	1	4	0	112	107	0	0	100
fixed	4	9	12	834274	4	3	3	1	0	773	1	4	0	120	108	0	0	100
fixed	4	10	1	836180	4	1	1	1	0	885	1	4	0	104	109	0	0	100
fixed	4	10	2	837983	1	2	0	1	2	0	3	4	0	112	109	0	1	99
fixed	4	10	3	840998	6	4	4	2	0	1073	2	4	0	128	110	0	1	99
fixed	4	10	4	842696	2	1	1	1	0	793	1	4	0	104	111	0	1	99
fixed	4	10	5	844342	5	3	3	1	0	1411	1	4	0	120	112	0	1	99
fixed	4	10	6	846073	6	4	4	1	0	754	1	4	0	128	113	0	1	99
fixed	4	10	7	847460	3	1	1	1	0	783	1	4	0	104	114	0	1	99
fixed	4	10	8	848656	2	3	3	1	0	1085	1	4	0	120	115	0	1	99
fixed	4	10	9	850460	3	2	2	1	0	704	1	4	0	112	116	0	1	99
fixed	4	10	10	851752	1	4	4	1	0	689	1	4	0	128	117	0	1	99
fixed	4	10	11	852828	5	2	2	1	0	908	1	4	0	112	118	0	1	99
fixed	4	10	12	854273	4	3	3	1	0	766	1	4	0	120	119	0	1	99
fixed	5	1	1	855959	4	1	1	1	0	551	1	4	0	136	1	0	0	100
fixed	5	1	2	857385	1	2	2	1	0	1003	1	4	0	144	2	0	0	100
fixed	5	1	3	858766	6	4	4	1	0	728	1	4	0	160	3	0	0	100
fixed	5	1	4	860474	2	1	1	1	0	824	1	4	0	136	4	0	0	100
fixed	5	1	5	861930	5	3	3	1	0	754	1	4	0	152	5	0	0	100
fixed	5	1	6	863618	6	4	4	1	0	755	1	4	0	160	6	0	0	100
fixed	5	1	7	865280	3	1	1	1	0	725	1	4	0	136	7	0	0	100
fixed	5	1	8	866725	2	3	3	1	0	1423	1	4	0	152	8	0	0	100
fixed	5	1	9	869099	3	2	2	1	0	611	1	4	0	144	9	0	0	100
fixed	5	1	10	870131	1	4	4	1	0	623	1	4	0	160	10	0	0	100
fixed	5	1	11	871085	5	2	2	1	0	950	1	4	0	144	11	0	0	100
fixed	5	1	12	872467	4	3	3	1	0	1180	1	4	0	152	12	0	0	100
fixed	5	2	1	874507	4	1	1	1	0	717	1	4	0	136	13	0	0	100
fixed	5	2	2	875978	1	2	2	1	0	823	1	4	0	144	14	0	0	100
fixed	5	2	3	877550	6	4	4	1	0	613	1	4	0	160	15	0	0	100
fixed	5	2	4	878568	2	1	1	1	0	745	1	4	0	136	16	0	0	100
fixed	5	2	5	879606	5	3	3	1	0	830	1	4	0	152	17	0	0	100
fixed	5	2	6	880756	6	4	4	1	0	685	1	4	0	160	18	0	0	100
fixed	5	2	7	881927	3	1	1	1	0	683	1	4	0	136	19	0	0	100
fixed	5	2	8	883568	2	3	3	1	0	830	1	4	0	152	20	0	0	100
fixed	5	2	9	885390	3	2	2	1	0	697	1	4	0	144	21	0	0	100
fixed	5	2	10	886671	1	4	4	1	0	658	1	4	0	160	22	0	0	100
fixed	5	2	11	888162	5	2	2	1	0	835	1	4	0	144	23	0	0	100
fixed	5	2	12	889797	4	3	3	1	0	654	1	4	0	152	24	0	0	100
fixed	5	3	1	891699	4	1	1	1	0	869	1	4	0	136	25	0	0	100
fixed	5	3	2	893183	1	2	2	1	0	847	1	4	0	144	26	0	0	100
fixed	5	3	3	894432	6	4	4	1	0	706	1	4	0	160	27	0	0	100
fixed	5	3	4	895569	2	1	1	1	0	738	1	4	0	136	28	0	0	100
fixed	5	3	5	896811	5	3	3	1	0	829	1	4	0	152	29	0	0	100
fixed	5	3	6	898534	6	4	4	1	0	748	1	4	0	160	30	0	0	100
fixed	5	3	7	900220	3	1	1	1	0	772	1	4	0	136	31	0	0	100
fixed	5	3	8	901434	2	3	3	1	0	793	1	4	0	152	32	0	0	100
fixed	5	3	9	902745	3	2	2	1	0	1017	1	4	0	144	33	0	0	100
fixed	5	3	10	904167	1	4	4	1	0	709	1	4	0	160	34	0	0	100
fixed	5	3	11	905198	5	2	2	1	0	985	1	4	0	144	35	0	0	100
fixed	5	3	12	906913	4	3	3	1	0	561	1	4	0	152	36	0	0	100
fixed	5	4	1	908491	4	1	1	1	0	766	1	4	0	136	37	0	0	100
fixed	5	4	2	909925	1	2	2	1	0	1153	1	4	0	144	38	0	0	100
fixed	5	4	3	911769	6	4	4	1	0	659	1	4	0	160	39	0	0	100
fixed	5	4	4	913230	2	1	1	1	0	918	1	4	0	136	40	0	0	100
fixed	5	4	5	914758	5	3	3	1	0	909	1	4	0	152	41	0	0	100
fixed	5	4	6	916037	6	4	4	1	0	983	1	4	0	160	42	0	0	100
fixed	5	4	7	917821	3	1	1	1	0	659	1	4	0	136	43	0	0	100
fixed	5	4	8	918957	2	3	3	1	0	875	1	4	0	152	44	0	0	100
fixed	5	4	9	920269	3	2	2	1	0	811	1	4	0	144	45	0	0	100
fixed	5	4	10	921706	1	4	4	1	0	654	1	4	0	160	46	0	0	100
fixed	5	4	11	923011	5	2	2	1	0	799	1	4	0	144	47	0	0	100
fixed	5	4	12	924329	4	3	3	1	0	1103	1	4	0	152	48	0	0	100
fixed	5	5	1	926468	4	1	1	1	0	797	1	4	0	136	49	0	0	100
fixed	5	5	2	927865	1	2	2	1	0	754	1	4	0	144	50	0	0	100
fixed	5	5	3	929226	6	4	4	1	0	712	1	4	0	160	51	0	0	100
fixed	5	5	4	930844	2	1	1	1	0	715	1	4	0	136	52	0	0	100
fixed	5	5	5	932404	5	3	3	1	0	713	1	4	0	152	53	0	0	100
fixed	5	5	6	933478	6	4	4	1	0	1068	1	4	0	160	54	0	0	100
fixed	5	5	7	935178	3	1	1	1	0	532	1	4	0	136	55	0	0	100
fixed	5	5	8	936616	2	3	3	1	0	919	1	4	0	152	56	0	0	100
fixed	5	5	9	937986	3	2	2	1	0	653	1	4	0	144	57	0	0	100
fixed	5	5	10	939134	1	4	4	1	0	636	1	4	0	160	58	0	0	100
fixed	5	5	11	940422	5	2	2	1	0	854	1	4	0	144	59	0	0	100
fixed	5	5	12	942174	4	3	3	1	0	979	1	4	0	152	60	0	0	100
fixed	5	6	1	943760	4	1	1	1	0	824	1	4	0	136	61	0	0	100
fixed	5	6	2	945395	1	2	2	1	0	827	1	4	0	144	62	0	0	100
fixed	5	6	3	946520	6	4	4	1	0	667	1	4	0	160	63	0	0	100
fixed	5	6	4	947644	2	1	1	1	0	676	1	4	0	136	64	0	0	100
fixed	5	6	5	948969	5	3	3	1	0	684	1	4	0	152	65	0	0	100
fixed	5	6	6	950250	6	4	4	1	0	718	1	4	0	160	66	0	0	100
fixed	5	6	7	951991	3	1	1	1	0	852	1	4	0	136	67	0	0	100
fixed	5	6	8	953301	2	3	3	1	0	772	1	4	0	152	68	0	0	100
fixed	5	6	9	954742	3	2	2	1	0	1823	1	4	0	144	69	0	0	100
fixed	5	6	10	957346	1	4	4	1	0	769	1	4	0	160	70	0	0	100
fixed	5	6	11	958940	5	2	2	1	0	798	1	4	0	144	71	0	0	100
fixed	5	6	12	960125	4	3	3	1	0	715	1	4	0	152	72	0	0	100
fixed	5	7	1	962122	4	1	1	1	0	726	1	4	0	136	73	0	0	100
fixed	5	7	2	963857	1	2	2	1	0	821	1	4	0	144	74	0	0	100
fixed	5	7	3	965716	6	4	4	1	0	638	1	4	0	160	75	0	0	100
fixed	5	7	4	966889	2	1	1	1	0	685	1	4	0	136	76	0	0	100
fixed	5	7	5	967932	5	3	3	1	0	1377	1	4	0	152	77	0	0	100
fixed	5	7	6	970301	6	4	4	1	0	636	1	4	0	160	78	0	0	100
fixed	5	7	7	971344	3	1	1	1	0	664	1	4	0	136	79	0	0	100
fixed	5	7	8	972675	2	3	3	1	0	952	1	4	0	152	80	0	0	100
fixed	5	7	9	974440	3	2	2	1	0	741	1	4	0	144	81	0	0	100
fixed	5	7	10	976159	1	4	4	1	0	652	1	4	0	160	82	0	0	100
fixed	5	7	11	977689	5	2	2	1	0	956	1	4	0	144	83	0	0	100
fixed	5	7	12	979351	4	3	3	1	0	805	1	4	0	152	84	0	0	100
fixed	5	8	1	980969	4	1	1	1	0	680	1	4	0	136	85	0	0	100
fixed	5	8	2	982364	1	2	2	1	0	797	1	4	0	144	86	0	0	100
fixed	5	8	3	983520	6	4	4	1	0	693	1	4	0	160	87	0	0	100
fixed	5	8	4	985211	2	1	1	1	0	748	1	4	0	136	88	0	0	100
fixed	5	8	5	986531	5	3	3	1	0	893	1	4	0	152	89	0	0	100
fixed	5	8	6	988203	6	4	4	1	0	678	1	4	0	160	90	0	0	100
fixed	5	8	7	989301	3	1	1	1	0	912	1	4	0	136	91	0	0	100
fixed	5	8	8	991075	2	3	3	1	0	1044	1	4	0	152	92	0	0	100
fixed	5	8	9	992950	3	2	2	1	0	573	1	4	0	144	93	0	0	100
fixed	5	8	10	993826	1	4	4	1	0	640	1	4	0	160	94	0	0	100
fixed	5	8	11	994969	5	2	2	1	0	799	1	4	0	144	95	0	0	100
fixed	5	8	12	996353	4	3	3	1	0	757	1	4	0	152	96	0	0	100
fixed	5	9	1	997827	4	1	1	1	0	686	1	4	0	136	97	0	0	100
fixed	5	9	2	999071	1	2	2	1	0	906	1	4	0	144	98	0	0	100
fixed	5	9	3	1000661	6	4	4	1	0	631	1	4	0	160	99	0	0	100
fixed	5	9	4	1002232	2	1	1	1	0	948	1	4	0	136	100	0	0	100
fixed	5	9	5	1003917	5	3	3	1	0	861	1	4	0	152	101	0	0	100
fixed	5	9	6	1005655	6	4	4	1	0	723	1	4	0	160	102	0	0	100
fixed	5	9	7	1006769	3	1	1	1	0	820	1	4	0	136	103	0	0	100
fixed	5	9	8	1008034	2	3	3	1	0	1006	1	4	0	152	104	0	0	100
fixed	5	9	9	1009728	3	2	2	1	0	718	1	4	0	144	105	0	0	100
fixed	5	9	10	1011337	1	4	4	1	0	770	1	4	0	160	106	0	0	100
fixed	5	9	11	1012842	5	2	2	2	0	2331	2	4	0	144	107	0	0	100
fixed	5	9	12	1015876	4	3	3	1	0	1026	1	4	0	152	108	0	0	100
fixed	5	10	1	1017792	4	1	1	1	0	753	1	4	0	136	109	0	0	100
fixed	5	10	2	1019100	1	2	2	1	0	953	1	4	0	144	110	0	0	100
fixed	5	10	3	1020506	6	4	4	1	0	742	1	4	0	160	111	0	0	100
fixed	5	10	4	1022064	2	1	1	1	0	740	1	4	0	136	112	0	0	100
fixed	5	10	5	1023090	5	3	3	1	0	904	1	4	0	152	113	0	0	100
fixed	5	10	6	1024482	6	4	4	1	0	837	1	4	0	160	114	0	0	100
fixed	5	10	7	1026243	3	1	1	1	0	1610	1	4	0	136	115	0	0	100
fixed	5	10	8	1028822	2	3	3	1	0	949	1	4	0	152	116	0	0	100
fixed	5	10	9	1030773	3	2	2	1	0	843	1	4	0	144	117	0	0	100
fixed	5	10	10	1032492	1	4	4	1	0	674	1	4	0	160	118	0	0	100
fixed	5	10	11	1034144	5	2	2	1	0	828	1	4	0	144	119	0	0	100
fixed	5	10	12	1035314	4	3	3	1	0	723	1	4	0	152	120	0	0	100
random	6	1	1	1186738	6	1	1	1	0	1157	1	4	0	168	1	0	0	100
random	6	1	2	1188934	4	4	4	1	0	944	1	4	0	192	2	0	0	100
random	6	1	3	1190871	2	2	2	1	0	926	1	4	0	176	3	0	0	100
random	6	1	4	1192655	3	3	3	1	0	594	1	4	0	184	4	0	0	100
random	6	1	5	1194046	5	2	0	1	2	0	3	4	0	176	4	0	1	80
random	6	1	6	1197250	1	4	4	1	0	776	1	4	0	192	5	0	1	83
random	6	1	7	1198890	6	1	1	1	0	890	1	4	0	168	6	0	1	86
random	6	1	8	1200718	2	3	3	1	0	1045	1	4	0	184	7	0	1	88
random	6	1	9	1202215	4	2	2	1	0	653	1	4	0	176	8	0	1	89
random	6	1	10	1203504	1	1	1	1	0	775	1	4	0	168	9	0	1	90
random	6	1	11	1205077	5	4	4	1	0	900	1	4	0	192	10	0	1	91
random	6	1	12	1206894	3	3	3	1	0	807	1	4	0	184	11	0	1	92
random	6	1	13	1208410	5	2	2	1	0	863	1	4	0	176	12	0	1	92
random	6	1	14	1209844	1	4	4	1	0	731	1	4	0	192	13	0	1	93
random	6	1	15	1211033	3	1	1	1	0	840	1	4	0	168	14	0	1	93
random	6	1	16	1212453	4	3	3	1	0	1044	1	4	0	184	15	0	1	94
random	6	1	17	1214000	6	4	4	1	0	738	1	4	0	192	16	0	1	94
random	6	1	18	1215350	2	1	1	1	0	825	1	4	0	168	17	0	1	94
random	6	1	19	1217102	5	3	3	1	0	983	1	4	0	184	18	0	1	95
random	6	1	20	1219065	2	2	2	1	0	620	1	4	0	176	19	0	1	95
random	6	1	21	1220092	3	3	3	1	0	808	1	4	0	184	20	0	1	95
random	6	1	22	1221919	6	1	1	1	0	843	1	4	0	168	21	0	1	95
random	6	1	23	1223791	4	2	2	1	0	1140	1	4	0	176	22	0	1	96
random	6	1	24	1225569	1	4	4	1	0	720	1	4	0	192	23	0	1	96
random	6	1	25	1227005	4	3	3	1	0	1011	1	4	0	184	24	0	1	96
random	6	1	26	1228459	2	1	1	1	0	694	1	4	0	168	25	0	1	96
random	6	1	27	1229473	5	2	2	1	0	875	1	4	0	176	26	0	1	96
random	6	1	28	1231042	6	4	4	1	0	865	1	4	0	192	27	0	1	96
random	6	1	29	1232281	1	3	3	1	0	1140	1	4	0	184	28	0	1	97
random	6	1	30	1233811	5	2	2	1	0	571	1	4	0	176	29	0	1	97
random	6	1	31	1234949	2	1	1	1	0	907	1	4	0	168	30	0	1	97
random	6	1	32	1236375	3	3	3	1	0	774	1	4	0	184	31	0	1	97
random	6	1	33	1237553	6	4	4	1	0	749	1	4	0	192	32	0	1	97
random	6	1	34	1239269	4	2	2	1	0	1060	1	4	0	176	33	0	1	97
random	6	1	35	1240653	3	4	4	1	0	777	1	4	0	192	34	0	1	97
random	6	1	36	1242399	1	1	1	1	0	703	1	4	0	168	35	0	1	97
random	6	1	37	1243897	3	4	4	1	0	1080	1	4	0	192	36	0	1	97
random	6	1	38	1245926	5	3	3	1	0	770	1	4	0	184	37	0	1	97
random	6	1	39	1247633	6	1	1	1	0	714	1	4	0	168	38	0	1	97
random	6	1	40	1248809	1	2	2	1	0	744	1	4	0	176	39	0	1	98
random	6	1	41	1250428	2	3	3	1	0	691	1	4	0	184	40	0	1	98
random	6	1	42	1251700	4	4	4	1	0	669	1	4	0	192	41	0	1	98
random	6	1	43	1253288	1	2	2	1	0	858	1	4	0	176	42	0	1	98
random	6	1	44	1255154	6	3	3	1	0	988	1	4	0	184	43	0	1	98
random	6	1	45	1256629	3	1	1	1	0	1053	1	4	0	168	44	0	1	98
random	6	1	46	1258113	4	4	4	1	0	606	1	4	0	192	45	0	1	98
random	6	1	47	1259131	2	2	2	1	0	762	1	4	0	176	46	0	1	98
random	6	1	48	1260346	5	1	1	1	0	879	1	4	0	168	47	0	1	98
random	6	1	49	1262409	2	3	3	1	0	872	1	4	0	184	48	0	1	98
random	6	1	50	1264138	3	1	1	1	0	711	1	4	0	168	49	0	1	98
random	6	1	51	1265250	1	4	4	1	0	839	1	4	0	192	50	0	1	98
random	6	1	52	1266521	5	3	3	1	0	922	1	4	0	184	51	0	1	98
random	6	1	53	1268474	3	2	2	1	0	975	1	4	0	176	52	0	1	98
random	6	1	54	1269940	6	4	4	1	0	633	1	4	0	192	53	0	1	98
random	6	1	55	1271113	4	2	2	1	0	1087	1	4	0	176	54	0	1	98
random	6	1	56	1272528	1	1	1	1	0	964	1	4	0	168	55	0	1	98
random	6	1	57	1274519	5	4	4	1	0	623	1	4	0	192	56	0	1	98
random	6	1	58	1275458	2	1	1	1	0	711	1	4	0	168	57	0	1	98
random	6	1	59	1277006	6	2	2	1	0	1158	1	4	0	176	58	0	1	98
random	6	1	60	1278672	4	3	3	1	0	591	1	4	0	184	59	0	1	98
random	6	1	61	1280537	1	2	2	1	0	792	1	4	0	176	60	0	1	98
random	6	1	62	1281755	6	4	4	1	0	636	1	4	0	192	61	0	1	98
random	6	1	63	1282693	4	1	1	1	0	725	1	4	0	168	62	0	1	98
random	6	1	64	1283777	2	2	2	1	0	1047	1	4	0	176	63	0	1	98
random	6	1	65	1285444	4	3	3	1	0	737	1	4	0	184	64	0	1	98
random	6	1	66	1286873	3	1	1	1	0	740	1	4	0	168	65	0	1	98
random	6	1	67	1288355	1	3	3	1	0	653	1	4	0	184	66	0	1	99
random	6	1	68	1289999	5	4	4	1	0	1039	1	4	0	192	67	0	1	99
random	6	1	69	1291587	2	2	2	1	0	836	1	4	0	176	68	0	1	99
random	6	1	70	1293057	3	1	1	1	0	902	1	4	0	168	69	0	1	99
random	6	1	71	1294792	5	4	4	1	0	740	1	4	0	192	70	0	1	99
random	6	1	72	1295834	6	3	3	1	0	656	1	4	0	184	71	0	1	99
random	6	1	73	1297244	2	1	1	1	0	692	1	4	0	168	72	0	1	99
random	6	1	74	1298888	5	3	3	1	0	703	1	4	0	184	73	0	1	99
random	6	1	75	1300347	1	4	4	1	0	697	1	4	0	192	74	0	1	99
random	6	1	76	1301741	6	2	2	1	0	694	1	4	0	176	75	0	1	99
random	6	1	77	1303173	2	1	1	1	0	786	1	4	0	168	76	0	1	99
random	6	1	78	1304487	4	4	4	1	0	690	1	4	0	192	77	0	1	99
random	6	1	79	1305898	3	2	2	1	0	838	1	4	0	176	78	0	1	99
random	6	1	80	1307782	4	3	3	1	0	1086	1	4	0	184	79	0	1	99
random	6	1	81	1309373	1	4	4	1	0	675	1	4	0	192	80	0	1	99
random	6	1	82	1310880	5	1	1	1	0	939	1	4	0	168	81	0	1	99
random	6	1	83	1312127	3	2	2	1	0	655	1	4	0	176	82	0	1	99
random	6	1	84	1313394	6	3	3	2	0	1489	2	4	0	184	83	0	1	99
random	6	1	85	1316057	3	2	2	1	0	1024	1	4	0	176	84	0	1	99
random	6	1	86	1317560	1	3	3	1	0	584	1	4	0	184	85	0	1	99
random	6	1	87	1318482	4	4	4	1	0	905	1	4	0	192	86	0	1	99
random	6	1	88	1320109	2	1	1	1	0	732	1	4	0	168	87	0	1	99
random	6	1	89	1321760	6	4	4	1	0	710	1	4	0	192	88	0	1	99
random	6	1	90	1322966	3	3	3	1	0	1771	1	4	0	184	89	0	1	99
random	6	1	91	1325644	5	4	4	1	0	642	1	4	0	192	90	0	1	99
random	6	1	92	1326655	1	2	2	1	0	775	1	4	0	176	91	0	1	99
random	6	1	93	1328259	5	1	1	1	0	931	1	4	0	168	92	0	1	99
random	6	1	94	1329889	4	3	3	1	0	782	1	4	0	184	93	0	1	99
random	6	1	95	1331179	6	1	1	1	0	775	1	4	0	168	94	0	1	99
random	6	1	96	1332441	2	2	2	1	0	1850	1	4	0	176	95	0	1	99
random	6	1	97	1335471	4	3	3	1	0	913	1	4	0	184	96	0	1	99
random	6	1	98	1337187	3	2	2	1	0	865	1	4	0	176	97	0	1	99
random	6	1	99	1338466	6	3	3	1	0	946	1	4	0	184	98	0	1	99
random	6	1	100	1340103	1	4	4	1	0	717	1	4	0	192	99	0	1	99
random	6	1	101	1341595	4	1	1	1	0	822	1	4	0	168	100	0	1	99
random	6	1	102	1343132	5	2	2	1	0	805	1	4	0	176	101	0	1	99
random	6	1	103	1344636	2	4	4	1	0	709	1	4	0	192	102	0	1	99
random	6	1	104	1345751	3	1	1	1	0	734	1	4	0	168	103	0	1	99
random	6	1	105	1346867	1	3	3	1	0	1022	1	4	0	184	104	0	1	99
random	6	1	106	1348652	2	2	2	1	0	715	1	4	0	176	105	0	1	99
random	6	1	107	1349778	5	4	4	1	0	635	1	4	0	192	106	0	1	99
random	6	1	108	1350754	6	1	1	1	0	770	1	4	0	168	107	0	1	99
random	6	1	109	1352263	5	4	4	1	0	722	1	4	0	192	108	0	1	99
random	6	1	110	1353569	6	3	3	1	0	811	1	4	0	184	109	0	1	99
random	6	1	111	1354773	2	2	2	1	0	744	1	4	0	176	110	0	1	99
random	6	1	112	1355979	3	1	1	1	0	701	1	4	0	168	111	0	1	99
random	6	1	113	1357052	1	2	2	1	0	992	1	4	0	176	112	0	1	99
random	6	1	114	1358646	2	3	3	1	0	516	1	4	0	184	113	0	1	99
random	6	1	115	1360066	3	1	1	1	0	680	1	4	0	168	114	0	1	99
random	6	1	116	1361628	4	4	4	1	0	606	1	4	0	192	115	0	1	99
random	6	1	117	1363260	6	1	1	1	0	840	1	4	0	168	116	0	1	99
random	6	1	118	1364407	5	3	3	1	0	936	1	4	0	184	117	0	1	99
random	6	1	119	1365882	1	4	4	1	0	705	1	4	0	192	118	0	1	99
random	6	1	120	1366966	4	2	2	1	0	947	1	4	0	176	119	0	1	99
fixed	7	1	1	1368868	4	1	1	1	0	707	1	4	0	200	1	0	0	100
fixed	7	1	2	1370568	1	2	2	1	0	723	1	4	0	208	2	0	0	100
fixed	7	1	3	1371986	6	4	4	1	0	575	1	4	0	224	3	0	0	100
fixed	7	1	4	1373568	2	1	1	1	0	692	1	4	0	200	4	0	0	100
fixed	7	1	5	1374739	5	3	3	1	0	994	1	4	0	216	5	0	0	100
fixed	7	1	6	1376316	6	4	4	1	0	672	1	4	0	224	6	0	0	100
fixed	7	1	7	1377396	3	1	1	1	0	730	1	4	0	200	7	0	0	100
fixed	7	1	8	1378480	2	3	3	1	0	828	1	4	0	216	8	0	0	100
fixed	7	1	9	1380184	3	2	2	1	0	844	1	4	0	208	9	0	0	100
fixed	7	1	10	1381415	1	4	4	1	0	631	1	4	0	224	10	0	0	100
fixed	7	1	11	1382894	5	2	2	1	0	1105	1	4	0	208	11	0	0	100
fixed	7	1	12	1384582	4	3	3	1	0	753	1	4	0	216	12	0	0	100
fixed	7	2	1	1386530	4	1	1	1	0	735	1	4	0	200	1	0	0	8
fixed	7	2	2	1387954	1	2	2	1	0	810	1	4	0	208	2	0	0	14
fixed	7	2	3	1389630	6	4	4	1	0	516	1	4	0	224	3	0	0	20
fixed	7	2	4	1390748	2	1	1	1	0	700	1	4	0	200	4	0	0	25
fixed	7	2	5	1391832	5	3	3	1	0	942	1	4	0	216	5	0	0	29
fixed	7	2	6	1393216	6	4	4	1	0	755	1	4	0	224	6	0	0	33
fixed	7	2	7	1394644	3	1	1	1	0	639	1	4	0	200	7	0	0	37
fixed	7	2	8	1395634	2	3	3	1	0	933	1	4	0	216	8	0	0	40
fixed	7	2	9	1397515	3	2	2	1	0	958	1	4	0	208	9	0	0	43
fixed	7	2	10	1399440	1	4	4	1	0	692	1	4	0	224	10	0	0	45
fixed	7	2	11	1401004	5	2	2	1	0	938	1	4	0	208	11	0	0	48
fixed	7	2	12	1402897	4	3	3	1	0	522	1	4	0	216	12	0	0	50
fixed	7	3	1	1404708	4	1	1	1	0	757	1	4	0	200	1	0	0	4
fixed	7	3	2	1406416	1	2	2	1	0	1269	1	4	0	208	2	0	0	8
fixed	7	3	3	1408009	6	4	4	1	0	673	1	4	0	224	3	0	0	11
fixed	7	3	4	1409227	2	1	1	1	0	694	1	4	0	200	4	0	0	14
fixed	7	3	5	1410552	5	3	3	1	0	894	1	4	0	216	5	0	0	17
fixed	7	3	6	1412219	6	4	4	1	0	711	1	4	0	224	6	0	0	20
fixed	7	3	7	1413897	3	1	1	1	0	791	1	4	0	200	7	0	0	23
fixed	7	3	8	1415142	2	3	3	1	0	955	1	4	0	216	8	0	0	25
fixed	7	3	9	1416748	3	2	2	1	0	591	1	4	0	208	9	0	0	27
fixed	7	3	10	1418072	1	4	4	1	0	615	1	4	0	224	10	0	0	29
fixed	7	3	11	1419444	5	2	2	1	0	773	1	4	0	208	11	0	0	31
fixed	7	3	12	1420879	4	3	3	1	0	648	1	4	0	216	12	0	0	33
fixed	7	4	1	1422819	4	1	1	1	0	750	1	4	0	200	1	0	0	3
fixed	7	4	2	1423881	1	2	2	1	0	1201	1	4	0	208	2	0	0	5
fixed	7	4	3	1425804	6	4	4	1	0	600	1	4	0	224	3	0	0	8
fixed	7	4	4	1426687	2	1	1	1	0	842	1	4	0	200	4	0	0	10
fixed	7	4	5	1428106	5	3	3	1	0	1038	1	4	0	216	5	0	0	12
fixed	7	4	6	1429503	6	4	4	1	0	731	1	4	0	224	6	0	0	14
fixed	7	4	7	1430927	3	1	1	1	0	758	1	4	0	200	7	0	0	16
fixed	7	4	8	1432270	2	3	3	1	0	854	1	4	0	216	8	0	0	18
fixed	7	4	9	1433999	3	2	2	1	0	804	1	4	0	208	9	0	0	20
fixed	7	4	10	1435184	1	4	4	1	0	618	1	4	0	224	10	0	0	22
fixed	7	4	11	1436547	5	2	2	1	0	745	1	4	0	208	11	0	0	23
fixed	7	4	12	1437790	4	3	3	1	0	740	1	4	0	216	12	0	0	25
fixed	7	5	1	1439761	4	1	1	1	0	848	1	4	0	200	1	0	0	2
fixed	7	5	2	1441332	1	2	2	1	0	829	1	4	0	208	2	0	0	4
fixed	7	5	3	1443027	6	4	4	1	0	622	1	4	0	224	3	0	0	6
fixed	7	5	4	1444571	2	1	1	1	0	1300	1	4	0	200	4	0	0	8
fixed	7	5	5	1446222	5	3	3	1	0	1503	1	4	0	216	5	0	0	9
fixed	7	5	6	1448537	6	4	4	1	0	564	1	4	0	224	6	0	0	11
fixed	7	5	7	1449680	3	1	1	1	0	772	1	4	0	200	7	0	0	13
fixed	7	5	8	1450987	2	3	3	1	0	916	1	4	0	216	8	0	0	14
fixed	7	5	9	1452902	3	2	2	1	0	588	1	4	0	208	9	0	0	16
fixed	7	5	10	1454341	1	4	4	1	0	639	1	4	0	224	10	0	0	17
fixed	7	5	11	1455279	5	2	2	1	0	767	1	4	0	208	11	0	0	19
fixed	7	5	12	1456622	4	3	3	1	0	1006	1	4	0	216	12	0	0	20
fixed	7	6	1	1458490	4	1	1	1	0	727	1	4	0	200	1	0	0	2
fixed	7	6	2	1459939	1	2	2	1	0	1002	1	4	0	208	2	0	0	3
fixed	7	6	3	1461329	6	4	4	1	0	598	1	4	0	224	3	0	0	5
fixed	7	6	4	1462313	2	1	1	1	0	781	1	4	0	200	4	0	0	6
fixed	7	6	5	1463684	5	3	3	1	0	803	1	4	0	216	5	0	0	8
fixed	7	6	6	1465182	6	4	4	1	0	708	1	4	0	224	6	0	0	9
fixed	7	6	7	1466676	3	1	1	1	0	1012	1	4	0	200	7	0	0	10
fixed	7	6	8	1468265	2	3	3	1	0	833	1	4	0	216	8	0	0	12
fixed	7	6	9	1469721	3	2	2	1	0	747	1	4	0	208	9	0	0	13
fixed	7	6	10	1470767	1	4	4	1	0	623	1	4	0	224	10	0	0	14
fixed	7	6	11	1471777	5	2	2	1	0	1012	1	4	0	208	11	0	0	15
fixed	7	6	12	1473446	4	3	3	1	0	693	1	4	0	216	12	0	0	17
fixed	7	7	1	1474713	4	1	1	1	0	656	1	4	0	200	1	0	0	1
fixed	7	7	2	1476094	1	2	2	1	0	1398	1	4	0	208	2	0	0	3
fixed	7	7	3	1477965	6	4	4	1	0	702	1	4	0	224	3	0	0	4
fixed	7	7	4	1479505	2	1	1	1	0	685	1	4	0	200	4	0	0	5
fixed	7	7	5	1480812	5	3	3	1	0	733	1	4	0	216	5	0	0	6
fixed	7	7	6	1482341	6	4	4	1	0	613	1	4	0	224	6	0	0	8
fixed	7	7	7	1483979	3	1	1	1	0	776	1	4	0	200	7	0	0	9
fixed	7	7	8	1485409	2	3	3	1	0	787	1	4	0	216	8	0	0	10
fixed	7	7	9	1486605	3	2	2	1	0	776	1	4	0	208	9	0	0	11
fixed	7	7	10	1488161	1	4	4	1	0	606	1	4	0	224	10	0	0	12
fixed	7	7	11	1489209	5	2	2	1	0	914	1	4	0	208	11	0	0	13
fixed	7	7	12	1490897	4	3	3	1	0	667	1	4	0	216	12	0	0	14
fixed	7	8	1	1492674	4	1	1	1	0	703	1	4	0	200	1	0	0	1
fixed	7	8	2	1493927	1	2	2	1	0	1066	1	4	0	208	2	0	0	2
fixed	7	8	3	1495687	6	4	4	1	0	631	1	4	0	224	3	0	0	3
fixed	7	8	4	1496627	2	1	1	1	0	696	1	4	0	200	4	0	0	5
fixed	7	8	5	1498334	5	3	3	1	0	680	1	4	0	216	5	0	0	6
fixed	7	8	6	1499373	6	4	4	1	0	691	1	4	0	224	6	0	0	7
fixed	7	8	7	1501098	3	1	1	1	0	714	1	4	0	200	7	0	0	8
fixed	7	8	8	1502261	2	3	3	1	0	1041	1	4	0	216	8	0	0	9
fixed	7	8	9	1504195	3	2	2	1	0	703	1	4	0	208	9	0	0	10
fixed	7	8	10	1505929	1	4	4	1	0	598	1	4	0	224	10	0	0	11
fixed	7	8	11	1507202	5	2	2	1	0	696	1	4	0	208	11	0	0	12
fixed	7	8	12	1508842	4	3	3	1	0	819	1	4	0	216	12	0	0	13
fixed	7	9	1	1510818	4	1	1	1	0	782	1	4	0	200	1	0	0	1
fixed	7	9	2	1512145	1	2	2	1	0	838	1	4	0	208	2	0	0	2
fixed	7	9	3	1513738	6	4	4	1	0	627	1	4	0	224	3	0	0	3
fixed	7	9	4	1515241	2	1	1	1	0	812	1	4	0	200	4	0	0	4
fixed	7	9	5	1516550	5	3	3	1	0	852	1	4	0	216	5	0	0	5
fixed	7	9	6	1518348	6	4	4	1	0	664	1	4	0	224	6	0	0	6
fixed	7	9	7	1519406	3	1	1	1	0	731	1	4	0	200	7	0	0	7
fixed	7	9	8	1521027	2	3	3	1	0	862	1	4	0	216	8	0	0	8
fixed	7	9	9	1522450	3	2	2	1	0	546	1	4	0	208	9	0	0	9
fixed	7	9	10	1523694	1	4	4	1	0	613	1	4	0	224	10	0	0	9
fixed	7	9	11	1524623	5	2	2	1	0	710	1	4	0	208	11	0	0	10
fixed	7	9	12	1525910	4	3	3	1	0	1303	1	4	0	216	12	0	0	11
fixed	7	10	1	1528178	4	1	1	1	0	679	1	4	0	200	1	0	0	1
fixed	7	10	2	1529731	1	2	2	1	0	1101	1	4	0	208	2	0	0	2
fixed	7	10	3	1531443	6	4	4	1	0	621	1	4	0	224	3	0	0	3
fixed	7	10	4	1533012	2	1	1	1	0	819	1	4	0	200	4	0	0	4
fixed	7	10	5	1534307	5	3	3	1	0	1171	1	4	0	216	5	0	0	4
fixed	7	10	6	1536154	6	4	4	1	0	638	1	4	0	224	6	0	0	5
fixed	7	10	7	1537208	3	1	1	1	0	737	1	4	0	200	7	0	0	6
fixed	7	10	8	1538621	2	3	3	1	0	997	1	4	0	216	8	0	0	7
fixed	7	10	9	1540185	3	2	2	1	0	635	1	4	0	208	9	0	0	8
fixed	7	10	10	1541165	1	4	4	1	0	697	1	4	0	224	10	0	0	8
fixed	7	10	11	1542461	5	2	2	1	0	794	1	4	0	208	11	0	0	9
fixed	7	10	12	1543587	4	3	3	1	0	891	1	4	0	216	12	0	0	10
