type	block	sequ.	trial	time	Pos.	Color	Button	NumRsp	Resp_1	RT_1	R_Code	Resp_2	RT_2	Trigg.	n_hit	n_inc	n_miss	score_%

random	1	1	1	28041	6	1	1	1	0	1877	1	4	0	8	1	0	0	100
random	1	1	2	30793	4	4	4	1	0	1065	1	4	0	32	2	0	0	100
random	1	1	3	32173	2	2	2	1	0	1214	1	4	0	16	3	0	0	100
random	1	1	4	33792	3	3	3	1	0	1002	1	4	0	24	4	0	0	100
random	1	1	5	35771	5	2	0	1	2	0	3	4	0	16	4	0	1	80
random	1	1	6	38984	1	4	4	1	0	894	1	4	0	32	5	0	1	83
random	1	1	7	40314	6	1	1	1	0	1070	1	4	0	8	6	0	1	86
random	1	1	8	41833	2	3	0	1	2	0	3	4	0	24	6	0	2	75
random	1	1	9	44955	4	2	2	1	0	1153	1	4	0	16	7	0	2	78
random	1	1	10	46632	1	1	1	1	0	978	1	4	0	8	8	0	2	80
random	1	1	11	47986	5	4	4	1	0	721	1	4	0	32	9	0	2	82
random	1	1	12	49091	3	3	3	1	0	1242	1	4	0	24	10	0	2	83
random	1	1	13	50881	5	2	2	2	0	1190	2	4	0	16	11	0	2	85
random	1	1	14	52664	1	4	4	1	0	659	1	4	0	32	12	0	2	86
random	1	1	15	53630	3	1	1	1	0	890	1	4	0	8	13	0	2	87
random	1	1	16	55426	4	3	3	2	0	1893	2	4	0	24	14	0	2	88
random	1	1	17	57735	6	4	4	1	0	924	1	4	0	32	15	0	2	88
random	1	1	18	59311	2	1	1	1	0	929	1	4	0	8	16	0	2	89
random	1	1	19	60674	5	3	3	1	0	847	1	4	0	24	17	0	2	89
random	1	1	20	62432	2	2	2	1	0	909	1	4	0	16	18	0	2	90
random	1	1	21	64008	3	3	3	1	0	1322	1	4	0	24	19	0	2	90
random	1	1	22	66166	6	1	1	1	0	863	1	4	0	8	20	0	2	91
random	1	1	23	67969	4	2	2	1	0	1203	1	4	0	16	21	0	2	91
random	1	1	24	69535	1	4	4	1	0	728	1	4	0	32	22	0	2	92
random	1	1	25	71366	4	3	3	1	0	1138	1	4	0	24	23	0	2	92
random	1	1	26	73307	2	1	1	1	0	952	1	4	0	8	24	0	2	92
random	1	1	27	75066	5	2	2	1	0	566	1	4	0	16	25	0	2	93
random	1	1	28	76568	6	4	4	1	0	534	1	4	0	32	26	0	2	93
random	1	1	29	77583	1	3	3	1	0	1107	1	4	0	24	27	0	2	93
random	1	1	30	79509	5	2	2	1	0	1634	1	4	0	16	28	0	2	93
random	1	1	31	82112	2	1	1	1	0	851	1	4	0	8	29	0	2	94
random	1	1	32	83302	3	3	3	2	0	1657	2	4	0	24	30	0	2	94
random	1	1	33	85922	6	4	4	1	0	714	1	4	0	32	31	0	2	94
random	1	1	34	87225	4	2	2	1	0	931	1	4	0	16	32	0	2	94
random	1	1	35	89072	3	4	4	1	0	725	1	4	0	32	33	0	2	94
random	1	1	36	90369	1	1	1	1	0	974	1	4	0	8	34	0	2	94
random	1	1	37	92418	3	4	4	1	0	1039	1	4	0	32	35	0	2	95
random	1	1	38	94298	5	3	3	1	0	999	1	4	0	24	36	0	2	95
random	1	1	39	96131	6	1	1	1	0	626	1	4	0	8	37	0	2	95
random	1	1	40	97650	1	2	2	2	0	2233	2	4	0	16	38	0	2	95
random	1	1	41	100905	2	3	3	1	0	1439	1	4	0	24	39	0	2	95
random	1	1	42	103031	4	4	4	1	0	733	1	4	0	32	40	0	2	95
random	1	1	43	104190	1	2	0	1	2	0	3	4	0	16	40	0	3	93
random	1	1	44	107155	6	3	3	1	0	1174	1	4	0	24	41	0	3	93
random	1	1	45	109171	3	1	1	1	0	1282	1	4	0	8	42	0	3	93
random	1	1	46	111201	4	4	4	1	0	843	1	4	0	32	43	0	3	93
random	1	1	47	112956	2	2	2	1	0	1009	1	4	0	16	44	0	3	94
random	1	1	48	114604	5	1	1	1	0	1027	1	4	0	8	45	0	3	94
random	1	1	49	116727	2	3	3	2	0	2009	2	4	0	24	46	0	3	94
random	1	1	50	119107	3	1	1	1	0	1237	1	4	0	8	47	0	3	94
random	1	1	51	121011	1	4	4	1	0	884	1	4	0	32	48	0	3	94
random	1	1	52	122802	5	3	3	1	0	728	1	4	0	24	49	0	3	94
random	1	1	53	123906	3	2	2	1	0	881	1	4	0	16	50	0	3	94
random	1	1	54	125254	6	4	4	1	0	672	1	4	0	32	51	0	3	94
random	1	1	55	126832	4	2	2	1	0	1198	1	4	0	16	52	0	3	95
random	1	1	56	128778	1	1	1	1	0	675	1	4	0	8	53	0	3	95
random	1	1	57	130365	5	4	4	1	0	1000	1	4	0	32	54	0	3	95
random	1	1	58	131846	2	1	1	1	0	953	1	4	0	8	55	0	3	95
random	1	1	59	133554	6	2	2	1	0	1632	1	4	0	16	56	0	3	95
random	1	1	60	135679	4	3	3	1	0	767	1	4	0	24	57	0	3	95
random	1	1	61	137127	1	2	2	2	0	1505	2	4	0	16	58	0	3	95
random	1	1	62	139493	6	4	4	1	0	685	1	4	0	32	59	0	3	95
random	1	1	63	140785	4	1	1	1	0	838	1	4	0	8	60	0	3	95
random	1	1	64	142173	2	2	2	1	0	971	1	4	0	16	61	0	3	95
random	1	1	65	144103	4	3	3	1	0	1178	1	4	0	24	62	0	3	95
random	1	1	66	146282	3	1	1	1	0	813	1	4	0	8	63	0	3	95
random	1	1	67	147639	1	3	3	1	0	1012	1	4	0	24	64	0	3	96
random	1	1	68	149619	5	4	4	1	0	936	1	4	0	32	65	0	3	96
random	1	1	69	151056	2	2	2	1	0	963	1	4	0	16	66	0	3	96
random	1	1	70	152984	3	1	1	1	0	825	1	4	0	8	67	0	3	96
random	1	1	71	154831	5	4	4	1	0	740	1	4	0	32	68	0	3	96
random	1	1	72	156285	6	3	3	1	0	862	1	4	0	24	69	0	3	96
random	1	1	73	157795	2	1	1	1	0	998	1	4	0	8	70	0	3	96
random	1	1	74	159630	5	3	3	1	0	792	1	4	0	24	71	0	3	96
random	1	1	75	161368	1	4	4	1	0	814	1	4	0	32	72	0	3	96
random	1	1	76	162492	6	2	2	1	0	943	1	4	0	16	73	0	3	96
random	1	1	77	164222	2	1	1	1	0	750	1	4	0	8	74	0	3	96
random	1	1	78	165924	4	4	4	1	0	702	1	4	0	32	75	0	3	96
random	1	1	79	167485	3	2	2	2	0	739	2	4	0	16	76	0	3	96
random	1	1	80	168587	4	3	3	1	0	908	1	4	0	24	77	0	3	96
random	1	1	81	169989	1	4	4	2	0	1649	2	4	0	32	78	0	3	96
random	1	1	82	172660	5	1	1	1	0	984	1	4	0	8	79	0	3	96
random	1	1	83	173935	3	2	2	1	0	1362	1	4	0	16	80	0	3	96
random	1	1	84	175798	6	3	3	1	0	963	1	4	0	24	81	0	3	96
random	1	1	85	177744	3	2	2	1	0	1089	1	4	0	16	82	0	3	96
random	1	1	86	179766	1	3	3	1	0	811	1	4	0	24	83	0	3	97
random	1	1	87	181339	4	4	4	1	0	809	1	4	0	32	84	0	3	97
random	1	1	88	182701	2	1	1	1	0	791	1	4	0	8	85	0	3	97
random	1	1	89	184236	6	4	4	1	0	686	1	4	0	32	86	0	3	97
random	1	1	90	185930	3	3	3	1	0	990	1	4	0	24	87	0	3	97
random	1	1	91	187442	5	4	4	1	0	894	1	4	0	32	88	0	3	97
random	1	1	92	188916	1	2	2	1	0	1088	1	4	0	16	89	0	3	97
random	1	1	93	190939	5	1	1	1	0	474	1	4	0	8	90	0	3	97
random	1	1	94	192271	4	3	3	1	0	1042	1	4	0	24	91	0	3	97
random	1	1	95	194014	6	1	0	1	2	0	3	4	0	8	91	0	4	96
random	1	1	96	196885	2	2	2	1	0	1262	1	4	0	16	92	0	4	96
random	1	1	97	198895	4	3	3	1	0	1569	1	4	0	24	93	0	4	96
random	1	1	98	201484	3	2	2	1	0	819	1	4	0	16	94	0	4	96
random	1	1	99	202853	6	3	3	1	0	1537	1	4	0	24	95	0	4	96
random	1	1	100	205092	1	4	4	1	0	634	1	4	0	32	96	0	4	96
random	1	1	101	206241	4	1	1	1	0	770	1	4	0	8	97	0	4	96
random	1	1	102	207627	5	2	2	1	0	1207	1	4	0	16	98	0	4	96
random	1	1	103	209705	2	4	4	1	0	935	1	4	0	32	99	0	4	96
random	1	1	104	211324	3	1	1	1	0	810	1	4	0	8	100	0	4	96
random	1	1	105	212644	1	3	3	1	0	1194	1	4	0	24	101	0	4	96
random	1	1	106	214475	2	2	2	1	0	933	1	4	0	16	102	0	4	96
random	1	1	107	215709	5	4	4	1	0	705	1	4	0	32	103	0	4	96
random	1	1	108	217429	6	1	1	1	0	760	1	4	0	8	104	0	4	96
random	1	1	109	218744	5	4	4	1	0	728	1	4	0	32	105	0	4	96
random	1	1	110	220154	6	3	3	1	0	933	1	4	0	24	106	0	4	96
random	1	1	111	221697	2	2	2	1	0	780	1	4	0	16	107	0	4	96
random	1	1	112	222794	3	1	1	1	0	1069	1	4	0	8	108	0	4	96
random	1	1	113	224761	1	2	2	1	0	1257	1	4	0	16	109	0	4	96
random	1	1	114	227022	2	3	3	1	0	586	1	4	0	24	110	0	4	96
random	1	1	115	228621	3	1	1	1	0	798	1	4	0	8	111	0	4	97
random	1	1	116	229764	4	4	4	1	0	718	1	4	0	32	112	0	4	97
random	1	1	117	230776	6	1	1	1	0	1211	1	4	0	8	113	0	4	97
random	1	1	118	232580	5	3	3	1	0	926	1	4	0	24	114	0	4	97
random	1	1	119	233818	1	4	4	1	0	818	1	4	0	32	115	0	4	97
random	1	1	120	235625	4	2	2	1	0	469	1	4	0	16	116	0	4	97
fixed	2	1	1	237321	4	1	1	1	0	1173	1	4	0	40	1	0	0	100
fixed	2	1	2	238930	1	2	2	1	0	1657	1	4	0	48	2	0	0	100
fixed	2	1	3	241014	6	4	4	1	0	689	1	4	0	64	3	0	0	100
fixed	2	1	4	242490	2	1	1	1	0	1130	1	4	0	40	4	0	0	100
fixed	2	1	5	243967	5	3	3	2	0	1660	2	4	0	56	5	0	0	100
fixed	2	1	6	246527	6	4	4	1	0	863	1	4	0	64	6	0	0	100
fixed	2	1	7	248342	3	1	1	1	0	795	1	4	0	40	7	0	0	100
fixed	2	1	8	249664	2	3	3	1	0	1123	1	4	0	56	8	0	0	100
fixed	2	1	9	251274	3	2	2	1	0	582	1	4	0	48	9	0	0	100
fixed	2	1	10	252530	1	4	4	1	0	785	1	4	0	64	10	0	0	100
fixed	2	1	11	254008	5	2	2	1	0	1251	1	4	0	48	11	0	0	100
fixed	2	1	12	256167	4	3	3	1	0	1199	1	4	0	56	12	0	0	100
fixed	2	2	1	258391	4	1	1	1	0	849	1	4	0	40	13	0	0	100
fixed	2	2	2	259921	1	2	2	1	0	1144	1	4	0	48	14	0	0	100
fixed	2	2	3	261365	6	4	4	1	0	939	1	4	0	64	15	0	0	100
fixed	2	2	4	262705	2	1	1	1	0	786	1	4	0	40	16	0	0	100
fixed	2	2	5	264078	5	3	3	1	0	744	1	4	0	56	17	0	0	100
fixed	2	2	6	265635	6	4	4	1	0	734	1	4	0	64	18	0	0	100
fixed	2	2	7	266771	3	1	1	1	0	806	1	4	0	40	19	0	0	100
fixed	2	2	8	268479	2	3	3	1	0	1302	1	4	0	56	20	0	0	100
fixed	2	2	9	270152	3	2	2	1	0	871	1	4	0	48	21	0	0	100
fixed	2	2	10	271622	1	4	4	1	0	1144	1	4	0	64	22	0	0	100
fixed	2	2	11	273758	5	2	2	1	0	1014	1	4	0	48	23	0	0	100
fixed	2	2	12	275745	4	3	3	1	0	698	1	4	0	56	24	0	0	100
fixed	2	3	1	277705	4	1	1	1	0	1127	1	4	0	40	25	0	0	100
fixed	2	3	2	279755	1	2	2	2	0	1488	2	4	0	48	26	0	0	100
fixed	2	3	3	282274	6	4	4	1	0	726	1	4	0	64	27	0	0	100
fixed	2	3	4	283585	2	1	1	1	0	718	1	4	0	40	28	0	0	100
fixed	2	3	5	285135	5	3	3	1	0	885	1	4	0	56	29	0	0	100
fixed	2	3	6	286570	6	4	4	1	0	720	1	4	0	64	30	0	0	100
fixed	2	3	7	288048	3	1	1	1	0	793	1	4	0	40	31	0	0	100
fixed	2	3	8	289499	2	3	3	1	0	963	1	4	0	56	32	0	0	100
fixed	2	3	9	291350	3	2	2	1	0	917	1	4	0	48	33	0	0	100
fixed	2	3	10	292583	1	4	4	1	0	881	1	4	0	64	34	0	0	100
fixed	2	3	11	294194	5	2	2	1	0	868	1	4	0	48	35	0	0	100
fixed	2	3	12	296078	4	3	3	1	0	733	1	4	0	56	36	0	0	100
fixed	2	4	1	297805	4	1	1	1	0	827	1	4	0	40	37	0	0	100
fixed	2	4	2	299546	1	2	2	1	0	1186	1	4	0	48	38	0	0	100
fixed	2	4	3	301442	6	4	4	1	0	642	1	4	0	64	39	0	0	100
fixed	2	4	4	302394	2	1	1	1	0	722	1	4	0	40	40	0	0	100
fixed	2	4	5	303636	5	3	3	1	0	1076	1	4	0	56	41	0	0	100
fixed	2	4	6	305292	6	4	4	1	0	662	1	4	0	64	42	0	0	100
fixed	2	4	7	306624	3	1	1	1	0	1334	1	4	0	40	43	0	0	100
fixed	2	4	8	308902	2	3	3	1	0	710	1	4	0	56	44	0	0	100
fixed	2	4	9	310163	3	2	2	1	0	720	1	4	0	48	45	0	0	100
fixed	2	4	10	311509	1	4	4	1	0	655	1	4	0	64	46	0	0	100
fixed	2	4	11	313048	5	2	2	1	0	1078	1	4	0	48	47	0	0	100
fixed	2	4	12	314790	4	3	3	2	0	1428	2	4	0	56	48	0	0	100
fixed	2	5	1	317052	4	1	1	1	0	812	1	4	0	40	49	0	0	100
fixed	2	5	2	318406	1	2	2	1	0	1363	1	4	0	48	50	0	0	100
fixed	2	5	3	320619	6	4	4	1	0	725	1	4	0	64	51	0	0	100
fixed	2	5	4	321851	2	1	1	1	0	665	1	4	0	40	52	0	0	100
fixed	2	5	5	323190	5	3	3	1	0	688	1	4	0	56	53	0	0	100
fixed	2	5	6	324536	6	4	4	1	0	655	1	4	0	64	54	0	0	100
fixed	2	5	7	326115	3	1	1	1	0	861	1	4	0	40	55	0	0	100
fixed	2	5	8	327325	2	3	3	1	0	1049	1	4	0	56	56	0	0	100
fixed	2	5	9	328849	3	2	2	1	0	633	1	4	0	48	57	0	0	100
fixed	2	5	10	330417	1	4	4	1	0	598	1	4	0	64	58	0	0	100
fixed	2	5	11	331687	5	2	2	1	0	1320	1	4	0	48	59	0	0	100
fixed	2	5	12	333558	4	3	3	1	0	833	1	4	0	56	60	0	0	100
fixed	2	6	1	334996	4	1	1	1	0	1636	1	4	0	40	61	0	0	100
fixed	2	6	2	337071	1	2	2	1	0	1612	1	4	0	48	62	0	0	100
fixed	2	6	3	339268	6	4	4	1	0	632	1	4	0	64	63	0	0	100
fixed	2	6	4	340751	2	1	1	1	0	1257	1	4	0	40	64	0	0	100
fixed	2	6	5	342719	5	3	3	1	0	877	1	4	0	56	65	0	0	100
fixed	2	6	6	344462	6	4	4	1	0	740	1	4	0	64	66	0	0	100
fixed	2	6	7	345820	3	1	1	1	0	826	1	4	0	40	67	0	0	100
fixed	2	6	8	347550	2	3	3	1	0	921	1	4	0	56	68	0	0	100
fixed	2	6	9	349129	3	2	2	1	0	677	1	4	0	48	69	0	0	100
fixed	2	6	10	350336	1	4	4	1	0	611	1	4	0	64	70	0	0	100
fixed	2	6	11	351635	5	2	2	2	0	1371	2	4	0	48	71	0	0	100
fixed	2	6	12	353423	4	3	3	2	0	1296	2	4	0	56	72	0	0	100
fixed	2	7	1	355313	4	1	1	1	0	1112	1	4	0	40	73	0	0	100
fixed	2	7	2	356718	1	2	2	1	0	1460	1	4	0	48	74	0	0	100
fixed	2	7	3	358922	6	4	4	1	0	663	1	4	0	64	75	0	0	100
fixed	2	7	4	360396	2	1	1	1	0	841	1	4	0	40	76	0	0	100
fixed	2	7	5	362128	5	3	0	1	2	0	3	4	0	56	76	0	1	99
fixed	2	7	6	365207	6	4	4	1	0	637	1	4	0	64	77	0	1	99
fixed	2	7	7	366518	3	1	1	1	0	766	1	4	0	40	78	0	1	99
fixed	2	7	8	367636	2	3	3	2	0	1382	2	4	0	56	79	0	1	99
fixed	2	7	9	369887	3	2	2	1	0	1087	1	4	0	48	80	0	1	99
fixed	2	7	10	371404	1	4	4	1	0	734	1	4	0	64	81	0	1	99
fixed	2	7	11	372839	5	2	2	1	0	857	1	4	0	48	82	0	1	99
fixed	2	7	12	374108	4	3	3	1	0	844	1	4	0	56	83	0	1	99
fixed	2	8	1	376130	4	1	1	1	0	806	1	4	0	40	84	0	1	99
fixed	2	8	2	377813	1	2	2	3	0	2135	2	4	0	48	85	0	1	99
fixed	2	8	3	380685	6	4	4	1	0	765	1	4	0	64	86	0	1	99
fixed	2	8	4	382289	2	1	1	1	0	793	1	4	0	40	87	0	1	99
fixed	2	8	5	384043	5	3	3	1	0	759	1	4	0	56	88	0	1	99
fixed	2	8	6	385103	6	4	4	1	0	770	1	4	0	64	89	0	1	99
fixed	2	8	7	386743	3	1	1	1	0	829	1	4	0	40	90	0	1	99
fixed	2	8	8	388419	2	3	3	1	0	958	1	4	0	56	91	0	1	99
fixed	2	8	9	389828	3	2	2	1	0	1042	1	4	0	48	92	0	1	99
fixed	2	8	10	391732	1	4	4	1	0	1377	1	4	0	64	93	0	1	99
fixed	2	8	11	393878	5	2	2	1	0	822	1	4	0	48	94	0	1	99
fixed	2	8	12	395099	4	3	3	1	0	931	1	4	0	56	95	0	1	99
fixed	2	9	1	396647	4	1	1	1	0	681	1	4	0	40	96	0	1	99
fixed	2	9	2	398362	1	2	2	2	0	913	2	4	0	48	97	0	1	99
fixed	2	9	3	400034	6	4	4	1	0	682	1	4	0	64	98	0	1	99
fixed	2	9	4	401646	2	1	1	1	0	725	1	4	0	40	99	0	1	99
fixed	2	9	5	402789	5	3	3	1	0	749	1	4	0	56	100	0	1	99
fixed	2	9	6	404402	6	4	4	1	0	705	1	4	0	64	101	0	1	99
fixed	2	9	7	405865	3	1	1	2	0	1315	2	4	0	40	102	0	1	99
fixed	2	9	8	407821	2	3	3	1	0	1224	1	4	0	56	103	0	1	99
fixed	2	9	9	409971	3	2	2	1	0	597	1	4	0	48	104	0	1	99
fixed	2	9	10	411252	1	4	4	1	0	710	1	4	0	64	105	0	1	99
fixed	2	9	11	412292	5	2	2	1	0	1179	1	4	0	48	106	0	1	99
fixed	2	9	12	414490	4	3	3	1	0	1021	1	4	0	56	107	0	1	99
fixed	2	10	1	416396	4	1	1	1	0	660	1	4	0	40	108	0	1	99
fixed	2	10	2	418094	1	2	2	1	0	997	1	4	0	48	109	0	1	99
fixed	2	10	3	420020	6	4	4	1	0	699	1	4	0	64	110	0	1	99
fixed	2	10	4	421376	2	1	1	1	0	714	1	4	0	40	111	0	1	99
fixed	2	10	5	422655	5	3	3	1	0	796	1	4	0	56	112	0	1	99
fixed	2	10	6	424184	6	4	4	1	0	723	1	4	0	64	113	0	1	99
fixed	2	10	7	425641	3	1	1	1	0	1413	1	4	0	40	114	0	1	99
fixed	2	10	8	428071	2	3	3	1	0	1110	1	4	0	56	115	0	1	99
fixed	2	10	9	429619	3	2	2	1	0	1013	1	4	0	48	116	0	1	99
fixed	2	10	10	431638	1	4	4	1	0	1343	1	4	0	64	117	0	1	99
fixed	2	10	11	433603	5	2	2	1	0	1100	1	4	0	48	118	0	1	99
fixed	2	10	12	435092	4	3	3	2	0	901	2	4	0	56	119	0	1	99
fixed	3	1	1	437027	4	1	1	1	0	594	1	4	0	72	1	0	0	100
fixed	3	1	2	438249	1	2	2	1	0	895	1	4	0	80	2	0	0	100
fixed	3	1	3	439526	6	4	4	1	0	625	1	4	0	96	3	0	0	100
fixed	3	1	4	440895	2	1	1	1	0	1039	1	4	0	72	4	0	0	100
fixed	3	1	5	442666	5	3	3	1	0	804	1	4	0	88	5	0	0	100
fixed	3	1	6	444170	6	4	4	1	0	700	1	4	0	96	6	0	0	100
fixed	3	1	7	445480	3	1	1	1	0	789	1	4	0	72	7	0	0	100
fixed	3	1	8	446863	2	3	3	2	0	1242	2	4	0	88	8	0	0	100
fixed	3	1	9	448836	3	2	2	1	0	903	1	4	0	80	9	0	0	100
fixed	3	1	10	450228	1	4	4	1	0	1043	1	4	0	96	10	0	0	100
fixed	3	1	11	451567	5	2	2	2	0	1955	2	4	0	80	11	0	0	100
fixed	3	1	12	454149	4	3	3	1	0	1110	1	4	0	88	12	0	0	100
fixed	3	2	1	455809	4	1	1	1	0	679	1	4	0	72	13	0	0	100
fixed	3	2	2	457173	1	2	2	2	0	1382	2	4	0	80	14	0	0	100
fixed	3	2	3	459219	6	4	4	1	0	1199	1	4	0	96	15	0	0	100
fixed	3	2	4	461129	2	1	1	1	0	854	1	4	0	72	16	0	0	100
fixed	3	2	5	462637	5	3	3	1	0	782	1	4	0	88	17	0	0	100
fixed	3	2	6	463696	6	4	4	1	0	801	1	4	0	96	18	0	0	100
fixed	3	2	7	464854	3	1	1	1	0	848	1	4	0	72	19	0	0	100
fixed	3	2	8	466280	2	3	3	1	0	908	1	4	0	88	20	0	0	100
fixed	3	2	9	467945	3	2	0	1	2	0	3	4	0	80	20	0	1	95
fixed	3	2	10	470896	1	4	4	1	0	832	1	4	0	96	21	0	1	95
fixed	3	2	11	472556	5	2	0	1	2	0	3	4	0	80	21	0	2	91
fixed	3	2	12	475977	4	3	3	2	0	1425	2	4	0	88	22	0	2	92
fixed	3	3	1	478682	4	1	1	1	0	982	1	4	0	72	23	0	2	92
fixed	3	3	2	480152	1	2	2	4	0	1352	2	4	0	80	24	0	2	92
fixed	3	3	3	482499	6	4	4	1	0	813	1	4	0	96	25	0	2	93
fixed	3	3	4	483912	2	1	1	1	0	1137	1	4	0	72	26	0	2	93
fixed	3	3	5	486035	5	3	3	1	0	767	1	4	0	88	27	0	2	93
fixed	3	3	6	487117	6	4	4	1	0	785	1	4	0	96	28	0	2	93
fixed	3	3	7	488726	3	1	1	1	0	917	1	4	0	72	29	0	2	94
fixed	3	3	8	490196	2	3	3	1	0	887	1	4	0	88	30	0	2	94
fixed	3	3	9	491573	3	2	2	1	0	933	1	4	0	80	31	0	2	94
fixed	3	3	10	493028	1	4	4	1	0	735	1	4	0	96	32	0	2	94
fixed	3	3	11	494614	5	2	2	1	0	1156	1	4	0	80	33	0	2	94
fixed	3	3	12	496146	4	3	3	1	0	971	1	4	0	88	34	0	2	94
fixed	3	4	1	497729	4	1	1	1	0	800	1	4	0	72	35	0	2	95
fixed	3	4	2	498818	1	2	2	2	0	1978	2	4	0	80	36	0	2	95
fixed	3	4	3	501494	6	4	4	1	0	696	1	4	0	96	37	0	2	95
fixed	3	4	4	503119	2	1	1	1	0	1148	1	4	0	72	38	0	2	95
fixed	3	4	5	504976	5	3	3	1	0	861	1	4	0	88	39	0	2	95
fixed	3	4	6	506698	6	4	4	1	0	868	1	4	0	96	40	0	2	95
fixed	3	4	7	508580	3	1	1	1	0	860	1	4	0	72	41	0	2	95
fixed	3	4	8	510172	2	3	3	1	0	1097	1	4	0	88	42	0	2	95
fixed	3	4	9	511735	3	2	2	1	0	871	1	4	0	80	43	0	2	96
fixed	3	4	10	513264	1	4	4	1	0	1053	1	4	0	96	44	0	2	96
fixed	3	4	11	514633	5	2	2	1	0	1004	1	4	0	80	45	0	2	96
fixed	3	4	12	516144	4	3	3	1	0	780	1	4	0	88	46	0	2	96
fixed	3	5	1	517978	4	1	1	1	0	638	1	4	0	72	47	0	2	96
fixed	3	5	2	519317	1	2	2	1	0	1293	1	4	0	80	48	0	2	96
fixed	3	5	3	521574	6	4	4	1	0	670	1	4	0	96	49	0	2	96
fixed	3	5	4	522747	2	1	1	1	0	1516	1	4	0	72	50	0	2	96
fixed	3	5	5	524685	5	3	3	1	0	690	1	4	0	88	51	0	2	96
fixed	3	5	6	526054	6	4	4	1	0	640	1	4	0	96	52	0	2	96
fixed	3	5	7	527194	3	1	1	1	0	872	1	4	0	72	53	0	2	96
fixed	3	5	8	528746	2	3	3	1	0	1046	1	4	0	88	54	0	2	96
fixed	3	5	9	530213	3	2	2	1	0	896	1	4	0	80	55	0	2	96
fixed	3	5	10	531760	1	4	4	1	0	886	1	4	0	96	56	0	2	97
fixed	3	5	11	533044	5	2	2	2	0	1688	2	4	0	80	57	0	2	97
fixed	3	5	12	535046	4	3	3	1	0	899	1	4	0	88	58	0	2	97
fixed	3	6	1	536858	4	1	1	1	0	750	1	4	0	72	59	0	2	97
fixed	3	6	2	538461	1	2	2	1	0	1458	1	4	0	80	60	0	2	97
fixed	3	6	3	540591	6	4	4	1	0	648	1	4	0	96	61	0	2	97
fixed	3	6	4	542185	2	1	1	2	0	1116	2	4	0	72	62	0	2	97
fixed	3	6	5	543844	5	3	3	1	0	734	1	4	0	88	63	0	2	97
fixed	3	6	6	545040	6	4	4	1	0	692	1	4	0	96	64	0	2	97
fixed	3	6	7	546303	3	1	1	2	0	990	2	4	0	72	65	0	2	97
fixed	3	6	8	547696	2	3	3	1	0	964	1	4	0	88	66	0	2	97
fixed	3	6	9	549127	3	2	2	1	0	823	1	4	0	80	67	0	2	97
fixed	3	6	10	550486	1	4	4	1	0	694	1	4	0	96	68	0	2	97
fixed	3	6	11	551703	5	2	2	1	0	914	1	4	0	80	69	0	2	97
fixed	3	6	12	552917	4	3	3	1	0	934	1	4	0	88	70	0	2	97
fixed	3	7	1	554551	4	1	1	1	0	577	1	4	0	72	71	0	2	97
fixed	3	7	2	555547	1	2	2	1	0	1471	1	4	0	80	72	0	2	97
fixed	3	7	3	557742	6	4	4	1	0	682	1	4	0	96	73	0	2	97
fixed	3	7	4	559225	2	1	1	1	0	899	1	4	0	72	74	0	2	97
fixed	3	7	5	560722	5	3	3	1	0	732	1	4	0	88	75	0	2	97
fixed	3	7	6	561956	6	4	4	1	0	687	1	4	0	96	76	0	2	97
fixed	3	7	7	563232	3	1	1	1	0	906	1	4	0	72	77	0	2	97
fixed	3	7	8	565001	2	3	3	1	0	775	1	4	0	88	78	0	2	98
fixed	3	7	9	566483	3	2	2	2	0	824	2	4	0	80	79	0	2	98
fixed	3	7	10	567840	1	4	4	1	0	654	1	4	0	96	80	0	2	98
fixed	3	7	11	569498	5	2	0	1	2	0	3	4	0	80	80	0	3	96
fixed	3	7	12	572692	4	3	3	2	0	1897	2	4	0	88	81	0	3	96
fixed	3	8	1	575586	4	1	1	1	0	870	1	4	0	72	82	0	3	96
fixed	3	8	2	577063	1	2	2	1	0	1176	1	4	0	80	83	0	3	97
fixed	3	8	3	579015	6	4	4	1	0	725	1	4	0	96	84	0	3	97
fixed	3	8	4	580674	2	1	1	1	0	983	1	4	0	72	85	0	3	97
fixed	3	8	5	582430	5	3	3	1	0	900	1	4	0	88	86	0	3	97
fixed	3	8	6	584250	6	4	4	1	0	695	1	4	0	96	87	0	3	97
fixed	3	8	7	585403	3	1	1	1	0	1174	1	4	0	72	88	0	3	97
fixed	3	8	8	587088	2	3	3	2	0	1199	2	4	0	88	89	0	3	97
fixed	3	8	9	589285	3	2	2	1	0	474	1	4	0	80	90	0	3	97
fixed	3	8	10	590734	1	4	4	1	0	757	1	4	0	96	91	0	3	97
fixed	3	8	11	592485	5	2	0	0	2	0	3	4	0	80	91	0	4	96
fixed	3	8	12	595702	4	3	3	1	0	1250	1	4	0	88	92	0	4	96
fixed	3	9	1	597741	4	1	1	1	0	804	1	4	0	72	93	0	4	96
fixed	3	9	2	598912	1	2	2	1	0	1002	1	4	0	80	94	0	4	96
fixed	3	9	3	600266	6	4	4	1	0	617	1	4	0	96	95	0	4	96
fixed	3	9	4	601394	2	1	1	1	0	761	1	4	0	72	96	0	4	96
fixed	3	9	5	602951	5	3	3	1	0	783	1	4	0	88	97	0	4	96
fixed	3	9	6	604277	6	4	4	1	0	711	1	4	0	96	98	0	4	96
fixed	3	9	7	605852	3	1	1	1	0	852	1	4	0	72	99	0	4	96
fixed	3	9	8	607249	2	3	3	1	0	897	1	4	0	88	100	0	4	96
fixed	3	9	9	608594	3	2	2	1	0	936	1	4	0	80	101	0	4	96
fixed	3	9	10	610416	1	4	4	1	0	851	1	4	0	96	102	0	4	96
fixed	3	9	11	611555	5	2	2	2	0	1434	2	4	0	80	103	0	4	96
fixed	3	9	12	613398	4	3	3	1	0	916	1	4	0	88	104	0	4	96
fixed	3	10	1	615501	4	1	1	1	0	731	1	4	0	72	105	0	4	96
fixed	3	10	2	616606	1	2	2	1	0	1101	1	4	0	80	106	0	4	96
fixed	3	10	3	618046	6	4	4	1	0	672	1	4	0	96	107	0	4	96
fixed	3	10	4	619590	2	1	1	1	0	839	1	4	0	72	108	0	4	96
fixed	3	10	5	621124	5	3	3	1	0	1061	1	4	0	88	109	0	4	96
fixed	3	10	6	623137	6	4	4	1	0	824	1	4	0	96	110	0	4	96
fixed	3	10	7	624756	3	1	1	1	0	1011	1	4	0	72	111	0	4	97
fixed	3	10	8	626219	2	3	3	1	0	718	1	4	0	88	112	0	4	97
fixed	3	10	9	627545	3	2	2	1	0	941	1	4	0	80	113	0	4	97
fixed	3	10	10	629295	1	4	4	1	0	979	1	4	0	96	114	0	4	97
fixed	3	10	11	630761	5	2	2	1	0	885	1	4	0	80	115	0	4	97
fixed	3	10	12	632207	4	3	3	1	0	904	1	4	0	88	116	0	4	97
fixed	4	1	1	719537	4	1	1	1	0	845	1	4	0	104	1	0	0	100
fixed	4	1	2	720752	1	2	2	2	0	1546	2	4	0	112	2	0	0	100
fixed	4	1	3	723294	6	4	4	1	0	710	1	4	0	128	3	0	0	100
fixed	4	1	4	724836	2	1	1	1	0	716	1	4	0	104	4	0	0	100
fixed	4	1	5	725955	5	3	3	1	0	797	1	4	0	120	5	0	0	100
fixed	4	1	6	727695	6	4	4	1	0	731	1	4	0	128	6	0	0	100
fixed	4	1	7	729080	3	1	1	1	0	777	1	4	0	104	7	0	0	100
fixed	4	1	8	730674	2	3	3	1	0	749	1	4	0	120	8	0	0	100
fixed	4	1	9	732351	3	2	2	1	0	847	1	4	0	112	9	0	0	100
fixed	4	1	10	734164	1	4	4	1	0	802	1	4	0	128	10	0	0	100
fixed	4	1	11	735731	5	2	2	1	0	743	1	4	0	112	11	0	0	100
fixed	4	1	12	737401	4	3	3	1	0	784	1	4	0	120	12	0	0	100
fixed	4	2	1	738887	4	1	1	1	0	617	1	4	0	104	13	0	0	100
fixed	4	2	2	739973	1	2	2	2	0	1251	2	4	0	112	14	0	0	100
fixed	4	2	3	741585	6	4	4	1	0	607	1	4	0	128	15	0	0	100
fixed	4	2	4	742698	2	1	1	1	0	744	1	4	0	104	16	0	0	100
fixed	4	2	5	743745	5	3	3	1	0	740	1	4	0	120	17	0	0	100
fixed	4	2	6	745385	6	4	4	1	0	726	1	4	0	128	18	0	0	100
fixed	4	2	7	747135	3	1	1	1	0	660	1	4	0	104	19	0	0	100
fixed	4	2	8	748713	2	3	3	1	0	769	1	4	0	120	20	0	0	100
fixed	4	2	9	750048	3	2	2	2	0	744	2	4	0	112	21	0	0	100
fixed	4	2	10	751411	1	4	4	1	0	783	1	4	0	128	22	0	0	100
fixed	4	2	11	752818	5	2	2	1	0	515	1	4	0	112	23	0	0	100
fixed	4	2	12	754214	4	3	3	1	0	880	1	4	0	120	24	0	0	100
fixed	4	3	1	755895	4	1	1	1	0	657	1	4	0	104	25	0	0	100
fixed	4	3	2	757044	1	2	2	2	0	1865	2	4	0	112	26	0	0	100
fixed	4	3	3	759861	6	4	4	1	0	809	1	4	0	128	27	0	0	100
fixed	4	3	4	761320	2	1	1	1	0	668	1	4	0	104	28	0	0	100
fixed	4	3	5	762554	5	3	3	1	0	703	1	4	0	120	29	0	0	100
fixed	4	3	6	764064	6	4	4	1	0	783	1	4	0	128	30	0	0	100
fixed	4	3	7	765135	3	1	1	1	0	705	1	4	0	104	31	0	0	100
fixed	4	3	8	766303	2	3	3	1	0	776	1	4	0	120	32	0	0	100
fixed	4	3	9	768119	3	2	2	1	0	659	1	4	0	112	33	0	0	100
fixed	4	3	10	769486	1	4	4	1	0	714	1	4	0	128	34	0	0	100
fixed	4	3	11	770701	5	2	2	2	0	1134	2	4	0	112	35	0	0	100
fixed	4	3	12	772470	4	3	3	1	0	739	1	4	0	120	36	0	0	100
fixed	4	4	1	774207	4	1	1	1	0	681	1	4	0	104	37	0	0	100
fixed	4	4	2	775900	1	2	2	2	0	1202	2	4	0	112	38	0	0	100
fixed	4	4	3	777827	6	4	4	1	0	656	1	4	0	128	39	0	0	100
fixed	4	4	4	779446	2	1	1	1	0	852	1	4	0	104	40	0	0	100
fixed	4	4	5	780942	5	3	3	1	0	1004	1	4	0	120	41	0	0	100
fixed	4	4	6	782822	6	4	4	1	0	629	1	4	0	128	42	0	0	100
fixed	4	4	7	784067	3	1	1	1	0	728	1	4	0	104	43	0	0	100
fixed	4	4	8	785297	2	3	3	1	0	884	1	4	0	120	44	0	0	100
fixed	4	4	9	787080	3	2	2	1	0	1072	1	4	0	112	45	0	0	100
fixed	4	4	10	788874	1	4	4	1	0	620	1	4	0	128	46	0	0	100
fixed	4	4	11	790412	5	2	2	1	0	835	1	4	0	112	47	0	0	100
fixed	4	4	12	792181	4	3	3	1	0	937	1	4	0	120	48	0	0	100
fixed	4	5	1	793855	4	1	1	1	0	553	1	4	0	104	49	0	0	100
fixed	4	5	2	795066	1	2	2	2	0	1326	2	4	0	112	50	0	0	100
fixed	4	5	3	797223	6	4	4	1	0	659	1	4	0	128	51	0	0	100
fixed	4	5	4	798182	2	1	1	1	0	1306	1	4	0	104	52	0	0	100
fixed	4	5	5	800417	5	3	3	1	0	996	1	4	0	120	53	0	0	100
fixed	4	5	6	801717	6	4	4	1	0	636	1	4	0	128	54	0	0	100
fixed	4	5	7	802804	3	1	1	1	0	958	1	4	0	104	55	0	0	100
fixed	4	5	8	804533	2	3	3	2	0	1477	2	4	0	120	56	0	0	100
fixed	4	5	9	806344	3	2	2	1	0	784	1	4	0	112	57	0	0	100
fixed	4	5	10	807927	1	4	4	1	0	661	1	4	0	128	58	0	0	100
fixed	4	5	11	809611	5	2	2	1	0	998	1	4	0	112	59	0	0	100
fixed	4	5	12	811494	4	3	3	1	0	1055	1	4	0	120	60	0	0	100
fixed	4	6	1	813219	4	1	1	1	0	749	1	4	0	104	61	0	0	100
fixed	4	6	2	814928	1	2	2	2	0	1157	2	4	0	112	62	0	0	100
fixed	4	6	3	816731	6	4	4	1	0	664	1	4	0	128	63	0	0	100
fixed	4	6	4	818050	2	1	1	1	0	936	1	4	0	104	64	0	0	100
fixed	4	6	5	819319	5	3	3	1	0	867	1	4	0	120	65	0	0	100
fixed	4	6	6	820934	6	4	4	1	0	823	1	4	0	128	66	0	0	100
fixed	4	6	7	822078	3	1	1	1	0	846	1	4	0	104	67	0	0	100
fixed	4	6	8	823292	2	3	3	1	0	1098	1	4	0	120	68	0	0	100
fixed	4	6	9	824929	3	2	2	1	0	813	1	4	0	112	69	0	0	100
fixed	4	6	10	826571	1	4	4	1	0	775	1	4	0	128	70	0	0	100
fixed	4	6	11	828298	5	2	2	1	0	903	1	4	0	112	71	0	0	100
fixed	4	6	12	829782	4	3	3	1	0	1112	1	4	0	120	72	0	0	100
fixed	4	7	1	831648	4	1	1	1	0	792	1	4	0	104	73	0	0	100
fixed	4	7	2	832758	1	2	2	2	0	1298	2	4	0	112	74	0	0	100
fixed	4	7	3	834774	6	4	4	1	0	628	1	4	0	128	75	0	0	100
fixed	4	7	4	836183	2	1	1	1	0	641	1	4	0	104	76	0	0	100
fixed	4	7	5	837381	5	3	3	1	0	734	1	4	0	120	77	0	0	100
fixed	4	7	6	838532	6	4	4	1	0	693	1	4	0	128	78	0	0	100
fixed	4	7	7	840078	3	1	1	1	0	836	1	4	0	104	79	0	0	100
fixed	4	7	8	841317	2	3	3	2	0	1255	2	4	0	120	80	0	0	100
fixed	4	7	9	842936	3	2	2	1	0	971	1	4	0	112	81	0	0	100
fixed	4	7	10	844919	1	4	4	1	0	1374	1	4	0	128	82	0	0	100
fixed	4	7	11	846695	5	2	2	1	0	1067	1	4	0	112	83	0	0	100
fixed	4	7	12	848530	4	3	3	1	0	574	1	4	0	120	84	0	0	100
fixed	4	8	1	850210	4	1	1	1	0	774	1	4	0	104	85	0	0	100
fixed	4	8	2	851780	1	2	2	2	0	1244	2	4	0	112	86	0	0	100
fixed	4	8	3	853454	6	4	4	1	0	533	1	4	0	128	87	0	0	100
fixed	4	8	4	854904	2	1	1	1	0	895	1	4	0	104	88	0	0	100
fixed	4	8	5	856575	5	3	3	1	0	769	1	4	0	120	89	0	0	100
fixed	4	8	6	857945	6	4	4	1	0	639	1	4	0	128	90	0	0	100
fixed	4	8	7	859415	3	1	1	1	0	744	1	4	0	104	91	0	0	100
fixed	4	8	8	860569	2	3	3	1	0	1031	1	4	0	120	92	0	0	100
fixed	4	8	9	862388	3	2	2	2	0	802	2	4	0	112	93	0	0	100
fixed	4	8	10	863714	1	4	4	1	0	690	1	4	0	128	94	0	0	100
fixed	4	8	11	864990	5	2	2	2	0	1589	2	4	0	112	95	0	0	100
fixed	4	8	12	867140	4	3	3	2	0	1305	2	4	0	120	96	0	0	100
fixed	4	9	1	869023	4	1	1	1	0	833	1	4	0	104	97	0	0	100
fixed	4	9	2	870600	1	2	2	2	0	911	2	4	0	112	98	0	0	100
fixed	4	9	3	872484	6	4	4	1	0	1039	1	4	0	128	99	0	0	100
fixed	4	9	4	874197	2	1	1	1	0	807	1	4	0	104	100	0	0	100
fixed	4	9	5	875904	5	3	3	1	0	974	1	4	0	120	101	0	0	100
fixed	4	9	6	877666	6	4	4	1	0	739	1	4	0	128	102	0	0	100
fixed	4	9	7	878849	3	1	1	1	0	1185	1	4	0	104	103	0	0	100
fixed	4	9	8	880825	2	3	3	1	0	854	1	4	0	120	104	0	0	100
fixed	4	9	9	882501	3	2	2	1	0	991	1	4	0	112	105	0	0	100
fixed	4	9	10	884520	1	4	4	1	0	745	1	4	0	128	106	0	0	100
fixed	4	9	11	886255	5	2	2	2	0	2488	2	4	0	112	107	0	0	100
fixed	4	9	12	889598	4	3	3	1	0	890	1	4	0	120	108	0	0	100
fixed	4	10	1	891745	4	1	1	1	0	647	1	4	0	104	109	0	0	100
fixed	4	10	2	893376	1	2	2	1	0	1234	1	4	0	112	110	0	0	100
fixed	4	10	3	895472	6	4	4	1	0	761	1	4	0	128	111	0	0	100
fixed	4	10	4	896726	2	1	1	1	0	812	1	4	0	104	112	0	0	100
fixed	4	10	5	898053	5	3	3	1	0	1036	1	4	0	120	113	0	0	100
fixed	4	10	6	899507	6	4	4	1	0	711	1	4	0	128	114	0	0	100
fixed	4	10	7	901230	3	1	1	1	0	878	1	4	0	104	115	0	0	100
fixed	4	10	8	902486	2	3	3	1	0	1032	1	4	0	120	116	0	0	100
fixed	4	10	9	904232	3	2	2	1	0	1070	1	4	0	112	117	0	0	100
fixed	4	10	10	906108	1	4	4	1	0	631	1	4	0	128	118	0	0	100
fixed	4	10	11	907589	5	2	2	2	0	1704	2	4	0	112	119	0	0	100
fixed	4	10	12	910288	4	3	3	1	0	909	1	4	0	120	120	0	0	100
fixed	5	1	1	912394	4	1	1	1	0	716	1	4	0	136	1	0	0	100
fixed	5	1	2	913902	1	2	2	1	0	997	1	4	0	144	2	0	0	100
fixed	5	1	3	915275	6	4	4	1	0	651	1	4	0	160	3	0	0	100
fixed	5	1	4	916399	2	1	1	1	0	771	1	4	0	136	4	0	0	100
fixed	5	1	5	917492	5	3	3	1	0	708	1	4	0	152	5	0	0	100
fixed	5	1	6	919230	6	4	4	1	0	859	1	4	0	160	6	0	0	100
fixed	5	1	7	920507	3	1	1	2	0	853	2	4	0	136	7	0	0	100
fixed	5	1	8	921746	2	3	3	1	0	705	1	4	0	152	8	0	0	100
fixed	5	1	9	922882	3	2	2	1	0	889	1	4	0	144	9	0	0	100
fixed	5	1	10	924757	1	4	4	1	0	721	1	4	0	160	10	0	0	100
fixed	5	1	11	925816	5	2	2	1	0	884	1	4	0	144	11	0	0	100
fixed	5	1	12	927635	4	3	3	1	0	951	1	4	0	152	12	0	0	100
fixed	5	2	1	929438	4	1	1	1	0	858	1	4	0	136	13	0	0	100
fixed	5	2	2	930815	1	2	2	2	0	2056	2	4	0	144	14	0	0	100
fixed	5	2	3	933591	6	4	4	1	0	803	1	4	0	160	15	0	0	100
fixed	5	2	4	935270	2	1	1	1	0	827	1	4	0	136	16	0	0	100
fixed	5	2	5	936605	5	3	3	1	0	699	1	4	0	152	17	0	0	100
fixed	5	2	6	938283	6	4	4	1	0	684	1	4	0	160	18	0	0	100
fixed	5	2	7	939722	3	1	1	1	0	783	1	4	0	136	19	0	0	100
fixed	5	2	8	941078	2	3	3	1	0	878	1	4	0	152	20	0	0	100
fixed	5	2	9	942311	3	2	2	1	0	826	1	4	0	144	21	0	0	100
fixed	5	2	10	943459	1	4	4	1	0	689	1	4	0	160	22	0	0	100
fixed	5	2	11	945178	5	2	2	2	0	992	2	4	0	144	23	0	0	100
fixed	5	2	12	947031	4	3	3	1	0	945	1	4	0	152	24	0	0	100
fixed	5	3	1	949119	4	1	1	1	0	553	1	4	0	136	25	0	0	100
fixed	5	3	2	950301	1	2	2	2	0	1679	2	4	0	144	26	0	0	100
fixed	5	3	3	952817	6	4	4	1	0	652	1	4	0	160	27	0	0	100
fixed	5	3	4	953995	2	1	1	1	0	859	1	4	0	136	28	0	0	100
fixed	5	3	5	955867	5	3	3	1	0	699	1	4	0	152	29	0	0	100
fixed	5	3	6	957191	6	4	4	1	0	627	1	4	0	160	30	0	0	100
fixed	5	3	7	958677	3	1	1	1	0	860	1	4	0	136	31	0	0	100
fixed	5	3	8	959833	2	3	3	2	0	1059	2	4	0	152	32	0	0	100
fixed	5	3	9	961760	3	2	2	1	0	762	1	4	0	144	33	0	0	100
fixed	5	3	10	963011	1	4	4	1	0	653	1	4	0	160	34	0	0	100
fixed	5	3	11	964627	5	2	2	1	0	1024	1	4	0	144	35	0	0	100
fixed	5	3	12	966264	4	3	3	1	0	907	1	4	0	152	36	0	0	100
fixed	5	4	1	968283	4	1	1	1	0	749	1	4	0	136	37	0	0	100
fixed	5	4	2	969703	1	2	2	2	0	929	2	4	0	144	38	0	0	100
fixed	5	4	3	970961	6	4	4	1	0	604	1	4	0	160	39	0	0	100
fixed	5	4	4	972336	2	1	1	1	0	882	1	4	0	136	40	0	0	100
fixed	5	4	5	974088	5	3	3	1	0	816	1	4	0	152	41	0	0	100
fixed	5	4	6	975930	6	4	4	1	0	834	1	4	0	160	42	0	0	100
fixed	5	4	7	977354	3	1	1	1	0	821	1	4	0	136	43	0	0	100
fixed	5	4	8	978495	2	3	3	1	0	677	1	4	0	152	44	0	0	100
fixed	5	4	9	980142	3	2	2	1	0	975	1	4	0	144	45	0	0	100
fixed	5	4	10	981602	1	4	4	1	0	665	1	4	0	160	46	0	0	100
fixed	5	4	11	982763	5	2	2	2	0	1104	2	4	0	144	47	0	0	100
fixed	5	4	12	984633	4	3	3	1	0	833	1	4	0	152	48	0	0	100
fixed	5	5	1	986311	4	1	1	1	0	794	1	4	0	136	49	0	0	100
fixed	5	5	2	987406	1	2	2	2	0	812	2	4	0	144	50	0	0	100
fixed	5	5	3	989115	6	4	4	1	0	683	1	4	0	160	51	0	0	100
fixed	5	5	4	990451	2	1	1	2	0	1355	2	4	0	136	52	0	0	100
fixed	5	5	5	992317	5	3	3	1	0	1236	1	4	0	152	53	0	0	100
fixed	5	5	6	993986	6	4	4	1	0	637	1	4	0	160	54	0	0	100
fixed	5	5	7	995468	3	1	1	2	0	1046	2	4	0	136	55	0	0	100
fixed	5	5	8	997535	2	3	3	1	0	2383	1	4	0	152	56	0	0	100
fixed	5	5	9	1000636	3	2	2	1	0	1003	1	4	0	144	57	0	0	100
fixed	5	5	10	1002079	1	4	4	1	0	726	1	4	0	160	58	0	0	100
fixed	5	5	11	1003224	5	2	2	1	0	1006	1	4	0	144	59	0	0	100
fixed	5	5	12	1004623	4	3	3	1	0	722	1	4	0	152	60	0	0	100
fixed	5	6	1	1006109	4	1	1	1	0	667	1	4	0	136	61	0	0	100
fixed	5	6	2	1007562	1	2	2	1	0	1493	1	4	0	144	62	0	0	100
fixed	5	6	3	1009841	6	4	4	1	0	685	1	4	0	160	63	0	0	100
fixed	5	6	4	1010836	2	1	1	1	0	675	1	4	0	136	64	0	0	100
fixed	5	6	5	1011896	5	3	3	1	0	870	1	4	0	152	65	0	0	100
fixed	5	6	6	1013211	6	4	4	1	0	662	1	4	0	160	66	0	0	100
fixed	5	6	7	1014226	3	1	1	1	0	667	1	4	0	136	67	0	0	100
fixed	5	6	8	1015777	2	3	3	1	0	714	1	4	0	152	68	0	0	100
fixed	5	6	9	1017407	3	2	2	1	0	837	1	4	0	144	69	0	0	100
fixed	5	6	10	1018867	1	4	4	1	0	671	1	4	0	160	70	0	0	100
fixed	5	6	11	1019898	5	2	2	1	0	931	1	4	0	144	71	0	0	100
fixed	5	6	12	1021416	4	3	3	1	0	907	1	4	0	152	72	0	0	100
fixed	5	7	1	1022934	4	1	1	1	0	626	1	4	0	136	73	0	0	100
fixed	5	7	2	1024293	1	2	0	2	2	0	3	4	0	144	73	0	1	99
fixed	5	7	3	1027220	6	4	4	1	0	565	1	4	0	160	74	0	1	99
fixed	5	7	4	1028246	2	1	1	1	0	1057	1	4	0	136	75	0	1	99
fixed	5	7	5	1030091	5	3	3	1	0	827	1	4	0	152	76	0	1	99
fixed	5	7	6	1031617	6	4	4	1	0	803	1	4	0	160	77	0	1	99
fixed	5	7	7	1033145	3	1	1	1	0	738	1	4	0	136	78	0	1	99
fixed	5	7	8	1034349	2	3	3	1	0	743	1	4	0	152	79	0	1	99
fixed	5	7	9	1035690	3	2	2	1	0	782	1	4	0	144	80	0	1	99
fixed	5	7	10	1036893	1	4	4	1	0	795	1	4	0	160	81	0	1	99
fixed	5	7	11	1038585	5	2	2	1	0	1124	1	4	0	144	82	0	1	99
fixed	5	7	12	1040042	4	3	3	2	0	910	2	4	0	152	83	0	1	99
fixed	5	8	1	1042014	4	1	1	1	0	650	1	4	0	136	84	0	1	99
fixed	5	8	2	1043038	1	2	2	2	0	839	2	4	0	144	85	0	1	99
fixed	5	8	3	1044793	6	4	4	1	0	757	1	4	0	160	86	0	1	99
fixed	5	8	4	1046150	2	1	1	1	0	1475	1	4	0	136	87	0	1	99
fixed	5	8	5	1048186	5	3	3	1	0	1885	1	4	0	152	88	0	1	99
fixed	5	8	6	1050970	6	4	4	1	0	647	1	4	0	160	89	0	1	99
fixed	5	8	7	1052173	3	1	1	1	0	748	1	4	0	136	90	0	1	99
fixed	5	8	8	1053527	2	3	3	1	0	1667	1	4	0	152	91	0	1	99
fixed	5	8	9	1055620	3	2	2	1	0	786	1	4	0	144	92	0	1	99
fixed	5	8	10	1057134	1	4	4	1	0	866	1	4	0	160	93	0	1	99
fixed	5	8	11	1058475	5	2	2	1	0	1001	1	4	0	144	94	0	1	99
fixed	5	8	12	1060068	4	3	3	1	0	550	1	4	0	152	95	0	1	99
fixed	5	9	1	1061629	4	1	1	1	0	563	1	4	0	136	96	0	1	99
fixed	5	9	2	1062546	1	2	2	2	0	1756	2	4	0	144	97	0	1	99
fixed	5	9	3	1065062	6	4	4	1	0	674	1	4	0	160	98	0	1	99
fixed	5	9	4	1066713	2	1	1	1	0	764	1	4	0	136	99	0	1	99
fixed	5	9	5	1068072	5	3	3	1	0	763	1	4	0	152	100	0	1	99
fixed	5	9	6	1069714	6	4	4	1	0	637	1	4	0	160	101	0	1	99
fixed	5	9	7	1070804	3	1	1	1	0	839	1	4	0	136	102	0	1	99
fixed	5	9	8	1072108	2	3	3	1	0	680	1	4	0	152	103	0	1	99
fixed	5	9	9	1073725	3	2	2	2	0	803	2	4	0	144	104	0	1	99
fixed	5	9	10	1075519	1	4	4	1	0	647	1	4	0	160	105	0	1	99
fixed	5	9	11	1076692	5	2	0	1	2	0	3	4	0	144	105	0	2	98
fixed	5	9	12	1080191	4	3	3	1	0	761	1	4	0	152	106	0	2	98
fixed	5	10	1	1081661	4	1	1	1	0	763	1	4	0	136	107	0	2	98
fixed	5	10	2	1083101	1	2	2	2	0	966	2	4	0	144	108	0	2	98
fixed	5	10	3	1084840	6	4	4	1	0	780	1	4	0	160	109	0	2	98
fixed	5	10	4	1086174	2	1	1	1	0	852	1	4	0	136	110	0	2	98
fixed	5	10	5	1088063	5	3	3	1	0	900	1	4	0	152	111	0	2	98
fixed	5	10	6	1089490	6	4	4	1	0	752	1	4	0	160	112	0	2	98
fixed	5	10	7	1091244	3	1	1	1	0	725	1	4	0	136	113	0	2	98
fixed	5	10	8	1092602	2	3	3	1	0	1011	1	4	0	152	114	0	2	98
fixed	5	10	9	1094227	3	2	2	1	0	839	1	4	0	144	115	0	2	98
fixed	5	10	10	1095754	1	4	4	1	0	758	1	4	0	160	116	0	2	98
fixed	5	10	11	1096845	5	2	2	2	0	1192	2	4	0	144	117	0	2	98
fixed	5	10	12	1098735	4	3	3	1	0	984	1	4	0	152	118	0	2	98
random	6	1	1	1179917	6	1	1	1	0	1009	1	4	0	168	1	0	0	100
random	6	1	2	1181804	4	4	4	1	0	737	1	4	0	192	2	0	0	100
random	6	1	3	1183348	2	2	2	1	0	880	1	4	0	176	3	0	0	100
random	6	1	4	1184982	3	3	3	1	0	435	1	4	0	184	4	0	0	100
random	6	1	5	1185969	5	2	2	1	0	881	1	4	0	176	5	0	0	100
random	6	1	6	1187629	1	4	4	1	0	659	1	4	0	192	6	0	0	100
random	6	1	7	1188900	6	1	1	1	0	701	1	4	0	168	7	0	0	100
random	6	1	8	1189909	2	3	3	1	0	706	1	4	0	184	8	0	0	100
random	6	1	9	1191439	4	2	2	1	0	802	1	4	0	176	9	0	0	100
random	6	1	10	1193129	1	1	1	1	0	818	1	4	0	168	10	0	0	100
random	6	1	11	1194786	5	4	4	1	0	644	1	4	0	192	11	0	0	100
random	6	1	12	1196308	3	3	3	1	0	635	1	4	0	184	12	0	0	100
random	6	1	13	1197863	5	2	2	2	0	1057	2	4	0	176	13	0	0	100
random	6	1	14	1199269	1	4	4	1	0	726	1	4	0	192	14	0	0	100
random	6	1	15	1200633	3	1	1	1	0	852	1	4	0	168	15	0	0	100
random	6	1	16	1202116	4	3	3	1	0	749	1	4	0	184	16	0	0	100
random	6	1	17	1203609	6	4	4	1	0	1262	1	4	0	192	17	0	0	100
random	6	1	18	1205303	2	1	1	1	0	822	1	4	0	168	18	0	0	100
random	6	1	19	1207035	5	3	3	1	0	653	1	4	0	184	19	0	0	100
random	6	1	20	1208003	2	2	2	1	0	804	1	4	0	176	20	0	0	100
random	6	1	21	1209758	3	3	3	1	0	817	1	4	0	184	21	0	0	100
random	6	1	22	1211321	6	1	1	1	0	647	1	4	0	168	22	0	0	100
random	6	1	23	1212870	4	2	2	2	0	854	2	4	0	176	23	0	0	100
random	6	1	24	1214534	1	4	4	1	0	704	1	4	0	192	24	0	0	100
random	6	1	25	1216191	4	3	3	2	0	1545	2	4	0	184	25	0	0	100
random	6	1	26	1218309	2	1	1	1	0	840	1	4	0	168	26	0	0	100
random	6	1	27	1219669	5	2	2	1	0	926	1	4	0	176	27	0	0	100
random	6	1	28	1220901	6	4	4	1	0	785	1	4	0	192	28	0	0	100
random	6	1	29	1222235	1	3	3	1	0	689	1	4	0	184	29	0	0	100
random	6	1	30	1223868	5	2	2	1	0	908	1	4	0	176	30	0	0	100
random	6	1	31	1225366	2	1	1	2	0	1180	2	4	0	168	31	0	0	100
random	6	1	32	1227474	3	3	3	1	0	1243	1	4	0	184	32	0	0	100
random	6	1	33	1229637	6	4	4	1	0	592	1	4	0	192	33	0	0	100
random	6	1	34	1231077	4	2	2	2	0	826	2	4	0	176	34	0	0	100
random	6	1	35	1232763	3	4	4	1	0	707	1	4	0	192	35	0	0	100
random	6	1	36	1234453	1	1	1	1	0	851	1	4	0	168	36	0	0	100
random	6	1	37	1236358	3	4	4	1	0	667	1	4	0	192	37	0	0	100
random	6	1	38	1237711	5	3	3	1	0	945	1	4	0	184	38	0	0	100
random	6	1	39	1238967	6	1	1	1	0	1004	1	4	0	168	39	0	0	100
random	6	1	40	1240609	1	2	2	1	0	1463	1	4	0	176	40	0	0	100
random	6	1	41	1242777	2	3	3	1	0	547	1	4	0	184	41	0	0	100
random	6	1	42	1244033	4	4	4	1	0	686	1	4	0	192	42	0	0	100
random	6	1	43	1245365	1	2	2	1	0	1301	1	4	0	176	43	0	0	100
random	6	1	44	1247272	6	3	3	1	0	845	1	4	0	184	44	0	0	100
random	6	1	45	1248714	3	1	1	2	0	1016	2	4	0	168	45	0	0	100
random	6	1	46	1250758	4	4	4	1	0	785	1	4	0	192	46	0	0	100
random	6	1	47	1252227	2	2	2	1	0	891	1	4	0	176	47	0	0	100
random	6	1	48	1254035	5	1	1	2	0	1382	2	4	0	168	48	0	0	100
random	6	1	49	1256423	2	3	3	1	0	1321	1	4	0	184	49	0	0	100
random	6	1	50	1258527	3	1	1	1	0	896	1	4	0	168	50	0	0	100
random	6	1	51	1260123	1	4	4	1	0	692	1	4	0	192	51	0	0	100
random	6	1	52	1261582	5	3	3	1	0	823	1	4	0	184	52	0	0	100
random	6	1	53	1263060	3	2	2	2	0	848	2	4	0	176	53	0	0	100
random	6	1	54	1264715	6	4	4	1	0	610	1	4	0	192	54	0	0	100
random	6	1	55	1265797	4	2	2	2	0	996	2	4	0	176	55	0	0	100
random	6	1	56	1267780	1	1	1	1	0	888	1	4	0	168	56	0	0	100
random	6	1	57	1269319	5	4	4	1	0	902	1	4	0	192	57	0	0	100
random	6	1	58	1270525	2	1	1	1	0	964	1	4	0	168	58	0	0	100
random	6	1	59	1272424	6	2	2	2	0	1724	2	4	0	176	59	0	0	100
random	6	1	60	1275159	4	3	3	1	0	1144	1	4	0	184	60	0	0	100
random	6	1	61	1277592	1	2	2	1	0	1080	1	4	0	176	61	0	0	100
random	6	1	62	1279512	6	4	4	1	0	727	1	4	0	192	62	0	0	100
random	6	1	63	1281134	4	1	1	1	0	394	1	4	0	168	63	0	0	100
random	6	1	64	1282309	2	2	2	2	0	1001	2	4	0	176	64	0	0	100
random	6	1	65	1284281	4	3	3	1	0	941	1	4	0	184	65	0	0	100
random	6	1	66	1285984	3	1	1	1	0	773	1	4	0	168	66	0	0	100
random	6	1	67	1287075	1	3	3	1	0	991	1	4	0	184	67	0	0	100
random	6	1	68	1288430	5	4	4	2	0	1942	2	4	0	192	68	0	0	100
random	6	1	69	1291335	2	2	2	2	0	1730	2	4	0	176	69	0	0	100
random	6	1	70	1293443	3	1	1	1	0	745	1	4	0	168	70	0	0	100
random	6	1	71	1294706	5	4	4	1	0	756	1	4	0	192	71	0	0	100
random	6	1	72	1296406	6	3	3	1	0	779	1	4	0	184	72	0	0	100
random	6	1	73	1298393	2	1	1	2	0	983	2	4	0	168	73	0	0	100
random	6	1	74	1300312	5	3	3	1	0	806	1	4	0	184	74	0	0	100
random	6	1	75	1301749	1	4	4	1	0	697	1	4	0	192	75	0	0	100
random	6	1	76	1303414	6	2	2	1	0	1011	1	4	0	176	76	0	0	100
random	6	1	77	1304837	2	1	1	1	0	975	1	4	0	168	77	0	0	100
random	6	1	78	1306772	4	4	4	1	0	629	1	4	0	192	78	0	0	100
random	6	1	79	1308162	3	2	2	2	0	1394	2	4	0	176	79	0	0	100
random	6	1	80	1310203	4	3	3	1	0	587	1	4	0	184	80	0	0	100
random	6	1	81	1311374	1	4	4	1	0	761	1	4	0	192	81	0	0	100
random	6	1	82	1312431	5	1	1	1	0	525	1	4	0	168	82	0	0	100
random	6	1	83	1313278	3	2	2	1	0	1065	1	4	0	176	83	0	0	100
random	6	1	84	1315330	6	3	3	1	0	666	1	4	0	184	84	0	0	100
random	6	1	85	1316538	3	2	2	1	0	895	1	4	0	176	85	0	0	100
random	6	1	86	1318457	1	3	3	1	0	581	1	4	0	184	86	0	0	100
random	6	1	87	1319389	4	4	4	1	0	982	1	4	0	192	87	0	0	100
random	6	1	88	1320693	2	1	1	1	0	471	1	4	0	168	88	0	0	100
random	6	1	89	1322155	6	4	4	1	0	713	1	4	0	192	89	0	0	100
random	6	1	90	1323413	3	3	3	1	0	884	1	4	0	184	90	0	0	100
random	6	1	91	1325253	5	4	4	1	0	670	1	4	0	192	91	0	0	100
random	6	1	92	1326561	1	2	2	2	0	1230	2	4	0	176	92	0	0	100
random	6	1	93	1328434	5	1	1	2	0	975	2	4	0	168	93	0	0	100
random	6	1	94	1330415	4	3	3	2	0	1331	2	4	0	184	94	0	0	100
random	6	1	95	1332208	6	1	1	1	0	815	1	4	0	168	95	0	0	100
random	6	1	96	1333871	2	2	2	2	0	1017	2	4	0	176	96	0	0	100
random	6	1	97	1335651	4	3	3	1	0	1341	1	4	0	184	97	0	0	100
random	6	1	98	1337536	3	2	2	1	0	1094	1	4	0	176	98	0	0	100
random	6	1	99	1339327	6	3	3	1	0	833	1	4	0	184	99	0	0	100
random	6	1	100	1341184	1	4	4	1	0	659	1	4	0	192	100	0	0	100
random	6	1	101	1342729	4	1	1	1	0	402	1	4	0	168	101	0	0	100
random	6	1	102	1343995	5	2	2	1	0	916	1	4	0	176	102	0	0	100
random	6	1	103	1345587	2	4	4	1	0	729	1	4	0	192	103	0	0	100
random	6	1	104	1347062	3	1	1	1	0	634	1	4	0	168	104	0	0	100
random	6	1	105	1348496	1	3	3	1	0	838	1	4	0	184	105	0	0	100
random	6	1	106	1349703	2	2	2	1	0	746	1	4	0	176	106	0	0	100
random	6	1	107	1350740	5	4	4	1	0	894	1	4	0	192	107	0	0	100
random	6	1	108	1352318	6	1	1	1	0	676	1	4	0	168	108	0	0	100
random	6	1	109	1353863	5	4	4	1	0	818	1	4	0	192	109	0	0	100
random	6	1	110	1355682	6	3	3	1	0	741	1	4	0	184	110	0	0	100
random	6	1	111	1357347	2	2	2	1	0	783	1	4	0	176	111	0	0	100
random	6	1	112	1358682	3	1	1	1	0	790	1	4	0	168	112	0	0	100
random	6	1	113	1360154	1	2	2	2	0	1096	2	4	0	176	113	0	0	100
random	6	1	114	1361726	2	3	3	1	0	653	1	4	0	184	114	0	0	100
random	6	1	115	1363060	3	1	1	2	0	1293	2	4	0	168	115	0	0	100
random	6	1	116	1364899	4	4	4	1	0	455	1	4	0	192	116	0	0	100
random	6	1	117	1366162	6	1	1	1	0	961	1	4	0	168	117	0	0	100
random	6	1	118	1368131	5	3	3	1	0	1021	1	4	0	184	118	0	0	100
random	6	1	119	1369795	1	4	4	1	0	735	1	4	0	192	119	0	0	100
random	6	1	120	1371287	4	2	2	2	0	1680	2	4	0	176	120	0	0	100
fixed	7	1	1	1374026	4	1	1	1	0	940	1	4	0	200	1	0	0	100
fixed	7	1	2	1375651	1	2	0	1	2	0	3	4	0	208	1	0	1	50
fixed	7	1	3	1378680	6	4	4	1	0	687	1	4	0	224	2	0	1	67
fixed	7	1	4	1379845	2	1	1	1	0	653	1	4	0	200	3	0	1	75
fixed	7	1	5	1380804	5	3	3	1	0	741	1	4	0	216	4	0	1	80
fixed	7	1	6	1382223	6	4	4	1	0	769	1	4	0	224	5	0	1	83
fixed	7	1	7	1383820	3	1	1	1	0	757	1	4	0	200	6	0	1	86
fixed	7	1	8	1385421	2	3	3	1	0	809	1	4	0	216	7	0	1	88
fixed	7	1	9	1386650	3	2	2	1	0	725	1	4	0	208	8	0	1	89
fixed	7	1	10	1387766	1	4	4	1	0	622	1	4	0	224	9	0	1	90
fixed	7	1	11	1389151	5	2	2	1	0	995	1	4	0	208	10	0	1	91
fixed	7	1	12	1390890	4	3	3	2	0	1178	2	4	0	216	11	0	1	92
fixed	7	2	1	1393226	4	1	1	1	0	910	1	4	0	200	1	0	0	8
fixed	7	2	2	1394719	1	2	2	2	0	1703	2	4	0	208	2	0	0	14
fixed	7	2	3	1397241	6	4	4	1	0	669	1	4	0	224	3	0	0	20
fixed	7	2	4	1398276	2	1	1	1	0	809	1	4	0	200	4	0	0	25
fixed	7	2	5	1399628	5	3	3	1	0	847	1	4	0	216	5	0	0	29
fixed	7	2	6	1401278	6	4	4	1	0	657	1	4	0	224	6	0	0	33
fixed	7	2	7	1402753	3	1	1	2	0	763	2	4	0	200	7	0	0	37
fixed	7	2	8	1404412	2	3	3	2	0	957	2	4	0	216	8	0	0	40
fixed	7	2	9	1406306	3	2	2	1	0	972	1	4	0	208	9	0	0	43
fixed	7	2	10	1408041	1	4	4	2	0	1387	2	4	0	224	10	0	0	45
fixed	7	2	11	1410112	5	2	2	1	0	1420	1	4	0	208	11	0	0	48
fixed	7	2	12	1412366	4	3	3	1	0	788	1	4	0	216	12	0	0	50
fixed	7	3	1	1413843	4	1	1	1	0	597	1	4	0	200	1	0	0	4
fixed	7	3	2	1414808	1	2	2	1	0	1245	1	4	0	208	2	0	0	8
fixed	7	3	3	1416824	6	4	4	1	0	687	1	4	0	224	3	0	0	11
fixed	7	3	4	1418309	2	1	1	1	0	720	1	4	0	200	4	0	0	14
fixed	7	3	5	1419678	5	3	3	1	0	798	1	4	0	216	5	0	0	17
fixed	7	3	6	1421243	6	4	4	1	0	684	1	4	0	224	6	0	0	20
fixed	7	3	7	1422692	3	1	1	1	0	799	1	4	0	200	7	0	0	23
fixed	7	3	8	1424251	2	3	3	1	0	772	1	4	0	216	8	0	0	25
fixed	7	3	9	1425918	3	2	2	1	0	1014	1	4	0	208	9	0	0	27
fixed	7	3	10	1427933	1	4	4	1	0	681	1	4	0	224	10	0	0	29
fixed	7	3	11	1429393	5	2	2	1	0	1283	1	4	0	208	11	0	0	31
fixed	7	3	12	1431142	4	3	3	1	0	825	1	4	0	216	12	0	0	33
fixed	7	4	1	1432623	4	1	1	1	0	738	1	4	0	200	1	0	0	3
fixed	7	4	2	1433888	1	2	2	2	0	1341	2	4	0	208	2	0	0	5
fixed	7	4	3	1435613	6	4	4	1	0	539	1	4	0	224	3	0	0	8
fixed	7	4	4	1436484	2	1	1	1	0	1070	1	4	0	200	4	0	0	10
fixed	7	4	5	1438341	5	3	3	1	0	1112	1	4	0	216	5	0	0	12
fixed	7	4	6	1439753	6	4	4	1	0	772	1	4	0	224	6	0	0	14
fixed	7	4	7	1441157	3	1	1	1	0	696	1	4	0	200	7	0	0	16
fixed	7	4	8	1442753	2	3	3	1	0	845	1	4	0	216	8	0	0	18
fixed	7	4	9	1443902	3	2	2	1	0	660	1	4	0	208	9	0	0	20
fixed	7	4	10	1445127	1	4	4	1	0	696	1	4	0	224	10	0	0	22
fixed	7	4	11	1446541	5	2	2	1	0	772	1	4	0	208	11	0	0	23
fixed	7	4	12	1447722	4	3	3	1	0	891	1	4	0	216	12	0	0	25
fixed	7	5	1	1449330	4	1	1	1	0	686	1	4	0	200	1	0	0	2
fixed	7	5	2	1450775	1	2	2	1	0	1089	1	4	0	208	2	0	0	4
fixed	7	5	3	1452270	6	4	4	1	0	730	1	4	0	224	3	0	0	6
fixed	7	5	4	1453938	2	1	1	1	0	900	1	4	0	200	4	0	0	8
fixed	7	5	5	1455741	5	3	3	1	0	1111	1	4	0	216	5	0	0	9
fixed	7	5	6	1457447	6	4	4	1	0	679	1	4	0	224	6	0	0	11
fixed	7	5	7	1459104	3	1	1	1	0	1024	1	4	0	200	7	0	0	13
fixed	7	5	8	1460432	2	3	3	1	0	880	1	4	0	216	8	0	0	14
fixed	7	5	9	1462045	3	2	2	1	0	668	1	4	0	208	9	0	0	16
fixed	7	5	10	1463646	1	4	4	1	0	880	1	4	0	224	10	0	0	17
fixed	7	5	11	1465539	5	2	2	1	0	832	1	4	0	208	11	0	0	19
fixed	7	5	12	1467362	4	3	3	2	0	907	2	4	0	216	12	0	0	20
fixed	7	6	1	1469095	4	1	1	1	0	585	1	4	0	200	1	0	0	2
fixed	7	6	2	1470151	1	2	2	2	0	1140	2	4	0	208	2	0	0	3
fixed	7	6	3	1471610	6	4	4	1	0	647	1	4	0	224	3	0	0	5
fixed	7	6	4	1473032	2	1	1	1	0	875	1	4	0	200	4	0	0	6
fixed	7	6	5	1474743	5	3	3	2	0	1034	2	4	0	216	5	0	0	8
fixed	7	6	6	1476735	6	4	4	1	0	638	1	4	0	224	6	0	0	9
fixed	7	6	7	1478311	3	1	1	1	0	779	1	4	0	200	7	0	0	10
fixed	7	6	8	1479769	2	3	3	1	0	757	1	4	0	216	8	0	0	12
fixed	7	6	9	1481429	3	2	2	1	0	391	1	4	0	208	9	0	0	13
fixed	7	6	10	1482683	1	4	4	1	0	1186	1	4	0	224	10	0	0	14
fixed	7	6	11	1484511	5	2	2	1	0	933	1	4	0	208	11	0	0	15
fixed	7	6	12	1486441	4	3	3	1	0	859	1	4	0	216	12	0	0	17
fixed	7	7	1	1488075	4	1	1	1	0	757	1	4	0	200	1	0	0	1
fixed	7	7	2	1489863	1	2	2	1	0	1025	1	4	0	208	2	0	0	3
fixed	7	7	3	1491396	6	4	4	1	0	553	1	4	0	224	3	0	0	4
fixed	7	7	4	1492297	2	1	1	1	0	771	1	4	0	200	4	0	0	5
fixed	7	7	5	1493553	5	3	3	1	0	869	1	4	0	216	5	0	0	6
fixed	7	7	6	1495257	6	4	4	1	0	709	1	4	0	224	6	0	0	8
fixed	7	7	7	1496397	3	1	1	1	0	773	1	4	0	200	7	0	0	9
fixed	7	7	8	1497565	2	3	3	1	0	691	1	4	0	216	8	0	0	10
fixed	7	7	9	1499257	3	2	2	1	0	740	1	4	0	208	9	0	0	11
fixed	7	7	10	1500504	1	4	4	1	0	847	1	4	0	224	10	0	0	12
fixed	7	7	11	1501716	5	2	2	1	0	1220	1	4	0	208	11	0	0	13
fixed	7	7	12	1503864	4	3	3	2	0	896	2	4	0	216	12	0	0	14
fixed	7	8	1	1505501	4	1	1	1	0	411	1	4	0	200	1	0	0	1
fixed	7	8	2	1506496	1	2	2	2	0	1217	2	4	0	208	2	0	0	2
fixed	7	8	3	1508176	6	4	4	1	0	714	1	4	0	224	3	0	0	3
fixed	7	8	4	1509922	2	1	1	1	0	1016	1	4	0	200	4	0	0	5
fixed	7	8	5	1511374	5	3	3	1	0	899	1	4	0	216	5	0	0	6
fixed	7	8	6	1512598	6	4	4	1	0	799	1	4	0	224	6	0	0	7
fixed	7	8	7	1513700	3	1	1	1	0	912	1	4	0	200	7	0	0	8
fixed	7	8	8	1515160	2	3	3	1	0	826	1	4	0	216	8	0	0	9
fixed	7	8	9	1516812	3	2	2	1	0	1044	1	4	0	208	9	0	0	10
fixed	7	8	10	1518223	1	4	4	1	0	824	1	4	0	224	10	0	0	11
fixed	7	8	11	1519794	5	2	2	1	0	1070	1	4	0	208	11	0	0	12
fixed	7	8	12	1521320	4	3	3	1	0	726	1	4	0	216	12	0	0	13
fixed	7	9	1	1522944	4	1	1	1	0	488	1	4	0	200	1	0	0	1
fixed	7	9	2	1524343	1	2	2	2	0	917	2	4	0	208	2	0	0	2
fixed	7	9	3	1525704	6	4	4	1	0	731	1	4	0	224	3	0	0	3
fixed	7	9	4	1526893	2	1	1	1	0	769	1	4	0	200	4	0	0	4
fixed	7	9	5	1528443	5	3	3	1	0	1087	1	4	0	216	5	0	0	5
fixed	7	9	6	1530255	6	4	4	1	0	739	1	4	0	224	6	0	0	6
fixed	7	9	7	1531585	3	1	1	1	0	906	1	4	0	200	7	0	0	7
fixed	7	9	8	1532883	2	3	3	1	0	1123	1	4	0	216	8	0	0	8
fixed	7	9	9	1534964	3	2	2	1	0	427	1	4	0	208	9	0	0	9
fixed	7	9	10	1536412	1	4	4	1	0	654	1	4	0	224	10	0	0	9
fixed	7	9	11	1537593	5	2	2	1	0	908	1	4	0	208	11	0	0	10
fixed	7	9	12	1539192	4	3	3	1	0	760	1	4	0	216	12	0	0	11
fixed	7	10	1	1541006	4	1	1	1	0	675	1	4	0	200	1	0	0	1
fixed	7	10	2	1542230	1	2	2	2	0	824	2	4	0	208	2	0	0	2
fixed	7	10	3	1543987	6	4	4	1	0	677	1	4	0	224	3	0	0	3
fixed	7	10	4	1545255	2	1	1	1	0	960	1	4	0	200	4	0	0	4
fixed	7	10	5	1546887	5	3	3	1	0	1202	1	4	0	216	5	0	0	4
fixed	7	10	6	1548706	6	4	4	1	0	645	1	4	0	224	6	0	0	5
fixed	7	10	7	1549673	3	1	1	1	0	853	1	4	0	200	7	0	0	6
fixed	7	10	8	1551431	2	3	3	1	0	714	1	4	0	216	8	0	0	7
fixed	7	10	9	1552953	3	2	2	1	0	737	1	4	0	208	9	0	0	8
fixed	7	10	10	1554142	1	4	4	1	0	663	1	4	0	224	10	0	0	8
fixed	7	10	11	1555197	5	2	2	1	0	714	1	4	0	208	11	0	0	9
fixed	7	10	12	1556365	4	3	3	1	0	785	1	4	0	216	12	0	0	10
