type	block	sequ.	trial	time	Pos.	Color	Button	NumRsp	Resp_1	RT_1	R_Code	Resp_2	RT_2	Trigg.	n_hit	n_inc	n_miss	score_%

random	1	1	1	8294	6	1	1	1	0	1336	1	4	0	8	1	0	0	100
random	1	1	2	10167	4	4	4	1	0	649	1	4	0	32	2	0	0	100
random	1	1	3	11621	2	2	2	1	0	859	1	4	0	16	3	0	0	100
random	1	1	4	13419	3	3	3	1	0	400	1	4	0	24	4	0	0	100
random	1	1	5	14271	5	2	2	2	0	1116	2	4	0	16	5	0	0	100
random	1	1	6	16186	1	4	4	1	0	762	1	4	0	32	6	0	0	100
random	1	1	7	17960	6	1	1	1	0	751	1	4	0	8	7	0	0	100
random	1	1	8	19479	2	3	3	1	0	815	1	4	0	24	8	0	0	100
random	1	1	9	21236	4	2	2	1	0	653	1	4	0	16	9	0	0	100
random	1	1	10	22423	1	1	1	1	0	842	1	4	0	8	10	0	0	100
random	1	1	11	24060	5	4	4	1	0	765	1	4	0	32	11	0	0	100
random	1	1	12	25519	3	3	3	1	0	775	1	4	0	24	12	0	0	100
random	1	1	13	27292	5	2	2	1	0	1108	1	4	0	16	13	0	0	100
random	1	1	14	28872	1	4	4	1	0	705	1	4	0	32	14	0	0	100
random	1	1	15	29964	3	1	1	1	0	626	1	4	0	8	15	0	0	100
random	1	1	16	31029	4	3	3	1	0	718	1	4	0	24	16	0	0	100
random	1	1	17	32378	6	4	4	1	0	669	1	4	0	32	17	0	0	100
random	1	1	18	33482	2	1	1	1	0	782	1	4	0	8	18	0	0	100
random	1	1	19	34725	5	3	3	1	0	737	1	4	0	24	19	0	0	100
random	1	1	20	36234	2	2	2	1	0	809	1	4	0	16	20	0	0	100
random	1	1	21	37612	3	3	3	1	0	671	1	4	0	24	21	0	0	100
random	1	1	22	39222	6	1	1	1	0	858	1	4	0	8	22	0	0	100
random	1	1	23	40764	4	2	2	1	0	817	1	4	0	16	23	0	0	100
random	1	1	24	41940	1	4	4	1	0	696	1	4	0	32	24	0	0	100
random	1	1	25	43332	4	3	3	2	0	1644	2	4	0	24	25	0	0	100
random	1	1	26	45489	2	1	1	1	0	1025	1	4	0	8	26	0	0	100
random	1	1	27	47216	5	2	2	1	0	800	1	4	0	16	27	0	0	100
random	1	1	28	48460	6	4	4	1	0	603	1	4	0	32	28	0	0	100
random	1	1	29	49627	1	3	3	1	0	682	1	4	0	24	29	0	0	100
random	1	1	30	50757	5	2	2	1	0	650	1	4	0	16	30	0	0	100
random	1	1	31	52365	2	1	1	1	0	814	1	4	0	8	31	0	0	100
random	1	1	32	53615	3	3	3	1	0	809	1	4	0	24	32	0	0	100
random	1	1	33	55186	6	4	4	1	0	615	1	4	0	32	33	0	0	100
random	1	1	34	56354	4	2	2	1	0	613	1	4	0	16	34	0	0	100
random	1	1	35	57286	3	4	4	1	0	637	1	4	0	32	35	0	0	100
random	1	1	36	58844	1	1	1	1	0	684	1	4	0	8	36	0	0	100
random	1	1	37	60708	3	4	4	1	0	1196	1	4	0	32	37	0	0	100
random	1	1	38	62913	5	3	3	2	0	1263	2	4	0	24	38	0	0	100
random	1	1	39	64558	6	1	1	1	0	570	1	4	0	8	39	0	0	100
random	1	1	40	65961	1	2	2	2	0	1742	2	4	0	16	40	0	0	100
random	1	1	41	68455	2	3	3	1	0	717	1	4	0	24	41	0	0	100
random	1	1	42	69902	4	4	4	1	0	655	1	4	0	32	42	0	0	100
random	1	1	43	70971	1	2	2	2	0	1394	2	4	0	16	43	0	0	100
random	1	1	44	72806	6	3	3	2	0	804	2	4	0	24	44	0	0	100
random	1	1	45	74389	3	1	1	2	0	969	2	4	0	8	45	0	0	100
random	1	1	46	75990	4	4	4	1	0	662	1	4	0	32	46	0	0	100
random	1	1	47	76970	2	2	2	1	0	852	1	4	0	16	47	0	0	100
random	1	1	48	78865	5	1	1	1	0	756	1	4	0	8	48	0	0	100
random	1	1	49	80774	2	3	3	1	0	770	1	4	0	24	49	0	0	100
random	1	1	50	82482	3	1	1	1	0	762	1	4	0	8	50	0	0	100
random	1	1	51	83706	1	4	4	1	0	615	1	4	0	32	51	0	0	100
random	1	1	52	84659	5	3	3	1	0	1014	1	4	0	24	52	0	0	100
random	1	1	53	86639	3	2	2	1	0	626	1	4	0	16	53	0	0	100
random	1	1	54	87944	6	4	4	1	0	787	1	4	0	32	54	0	0	100
random	1	1	55	89102	4	2	2	1	0	914	1	4	0	16	55	0	0	100
random	1	1	56	90419	1	1	1	1	0	746	1	4	0	8	56	0	0	100
random	1	1	57	92106	5	4	4	1	0	683	1	4	0	32	57	0	0	100
random	1	1	58	93618	2	1	1	1	0	883	1	4	0	8	58	0	0	100
random	1	1	59	94941	6	2	2	2	0	1346	2	4	0	16	59	0	0	100
random	1	1	60	96884	4	3	3	1	0	824	1	4	0	24	60	0	0	100
random	1	1	61	98351	1	2	2	1	0	770	1	4	0	16	61	0	0	100
random	1	1	62	99537	6	4	4	1	0	720	1	4	0	32	62	0	0	100
random	1	1	63	100609	4	1	1	1	0	698	1	4	0	8	63	0	0	100
random	1	1	64	102336	2	2	2	1	0	850	1	4	0	16	64	0	0	100
random	1	1	65	103819	4	3	3	1	0	619	1	4	0	24	65	0	0	100
random	1	1	66	105439	3	1	1	1	0	734	1	4	0	8	66	0	0	100
random	1	1	67	106768	1	3	3	2	0	1038	2	4	0	24	67	0	0	100
random	1	1	68	108463	5	4	4	2	0	678	2	4	0	32	68	0	0	100
random	1	1	69	109741	2	2	2	1	0	840	1	4	0	16	69	0	0	100
random	1	1	70	111488	3	1	1	1	0	878	1	4	0	8	70	0	0	100
random	1	1	71	113138	5	4	4	1	0	704	1	4	0	32	71	0	0	100
random	1	1	72	114641	6	3	3	2	0	840	2	4	0	24	72	0	0	100
random	1	1	73	116111	2	1	1	1	0	682	1	4	0	8	73	0	0	100
random	1	1	74	117187	5	3	3	1	0	668	1	4	0	24	74	0	0	100
random	1	1	75	118873	1	4	4	1	0	589	1	4	0	32	75	0	0	100
random	1	1	76	120332	6	2	2	2	0	1079	2	4	0	16	76	0	0	100
random	1	1	77	122284	2	1	1	1	0	837	1	4	0	8	77	0	0	100
random	1	1	78	124119	4	4	4	1	0	727	1	4	0	32	78	0	0	100
random	1	1	79	125852	3	2	2	1	0	853	1	4	0	16	79	0	0	100
random	1	1	80	127114	4	3	3	1	0	808	1	4	0	24	80	0	0	100
random	1	1	81	128823	1	4	4	1	0	591	1	4	0	32	81	0	0	100
random	1	1	82	129901	5	1	1	1	0	618	1	4	0	8	82	0	0	100
random	1	1	83	130934	3	2	2	2	0	782	2	4	0	16	83	0	0	100
random	1	1	84	132746	6	3	3	1	0	770	1	4	0	24	84	0	0	100
random	1	1	85	134690	3	2	2	1	0	823	1	4	0	16	85	0	0	100
random	1	1	86	136063	1	3	3	1	0	637	1	4	0	24	86	0	0	100
random	1	1	87	137194	4	4	4	1	0	629	1	4	0	32	87	0	0	100
random	1	1	88	138553	2	1	1	1	0	571	1	4	0	8	88	0	0	100
random	1	1	89	140019	6	4	4	1	0	661	1	4	0	32	89	0	0	100
random	1	1	90	141125	3	3	3	1	0	982	1	4	0	24	90	0	0	100
random	1	1	91	142679	5	4	4	2	0	1037	2	4	0	32	91	0	0	100
random	1	1	92	144545	1	2	2	1	0	957	1	4	0	16	92	0	0	100
random	1	1	93	146430	5	1	1	1	0	806	1	4	0	8	93	0	0	100
random	1	1	94	148158	4	3	3	1	0	916	1	4	0	24	94	0	0	100
random	1	1	95	149625	6	1	1	1	0	1078	1	4	0	8	95	0	0	100
random	1	1	96	151588	2	2	2	1	0	883	1	4	0	16	96	0	0	100
random	1	1	97	153302	4	3	3	1	0	794	1	4	0	24	97	0	0	100
random	1	1	98	154542	3	2	2	1	0	646	1	4	0	16	98	0	0	100
random	1	1	99	155988	6	3	3	1	0	937	1	4	0	24	99	0	0	100
random	1	1	100	157435	1	4	4	1	0	756	1	4	0	32	100	0	0	100
random	1	1	101	159051	4	1	1	1	0	575	1	4	0	8	101	0	0	100
random	1	1	102	160419	5	2	2	1	0	1037	1	4	0	16	102	0	0	100
random	1	1	103	161979	2	4	4	1	0	627	1	4	0	32	103	0	0	100
random	1	1	104	163509	3	1	1	2	0	730	2	4	0	8	104	0	0	100
random	1	1	105	165102	1	3	3	1	0	735	1	4	0	24	105	0	0	100
random	1	1	106	166625	2	2	2	1	0	766	1	4	0	16	106	0	0	100
random	1	1	107	168316	5	4	4	1	0	655	1	4	0	32	107	0	0	100
random	1	1	108	169613	6	1	1	1	0	744	1	4	0	8	108	0	0	100
random	1	1	109	171497	5	4	4	1	0	712	1	4	0	32	109	0	0	100
random	1	1	110	173063	6	3	3	1	0	814	1	4	0	24	110	0	0	100
random	1	1	111	174875	2	2	2	1	0	745	1	4	0	16	111	0	0	100
random	1	1	112	175955	3	1	1	1	0	748	1	4	0	8	112	0	0	100
random	1	1	113	177369	1	2	2	1	0	911	1	4	0	16	113	0	0	100
random	1	1	114	178650	2	3	3	1	0	929	1	4	0	24	114	0	0	100
random	1	1	115	180116	3	1	1	1	0	1091	1	4	0	8	115	0	0	100
random	1	1	116	181784	4	4	4	1	0	549	1	4	0	32	116	0	0	100
random	1	1	117	182861	6	1	1	1	0	695	1	4	0	8	117	0	0	100
random	1	1	118	184272	5	3	3	1	0	675	1	4	0	24	118	0	0	100
random	1	1	119	185900	1	4	4	1	0	686	1	4	0	32	119	0	0	100
random	1	1	120	187166	4	2	2	1	0	648	1	4	0	16	120	0	0	100
fixed	2	1	1	189054	4	1	1	1	0	992	1	4	0	40	1	0	0	100
fixed	2	1	2	190538	1	2	2	1	0	778	1	4	0	48	2	0	0	100
fixed	2	1	3	191643	6	4	4	1	0	611	1	4	0	64	3	0	0	100
fixed	2	1	4	193276	2	1	1	1	0	614	1	4	0	40	4	0	0	100
fixed	2	1	5	194880	5	3	3	1	0	698	1	4	0	56	5	0	0	100
fixed	2	1	6	196604	6	4	4	1	0	689	1	4	0	64	6	0	0	100
fixed	2	1	7	197960	3	1	1	1	0	743	1	4	0	40	7	0	0	100
fixed	2	1	8	199381	2	3	3	1	0	811	1	4	0	56	8	0	0	100
fixed	2	1	9	201016	3	2	2	2	0	710	2	4	0	48	9	0	0	100
fixed	2	1	10	202542	1	4	4	1	0	717	1	4	0	64	10	0	0	100
fixed	2	1	11	204137	5	2	2	1	0	906	1	4	0	48	11	0	0	100
fixed	2	1	12	205862	4	3	3	1	0	744	1	4	0	56	12	0	0	100
fixed	2	2	1	207168	4	1	1	1	0	929	1	4	0	40	13	0	0	100
fixed	2	2	2	208845	1	2	2	1	0	850	1	4	0	48	14	0	0	100
fixed	2	2	3	210625	6	4	4	1	0	550	1	4	0	64	15	0	0	100
fixed	2	2	4	212081	2	1	1	1	0	721	1	4	0	40	16	0	0	100
fixed	2	2	5	213101	5	3	3	1	0	774	1	4	0	56	17	0	0	100
fixed	2	2	6	214628	6	4	4	1	0	765	1	4	0	64	18	0	0	100
fixed	2	2	7	215971	3	1	1	1	0	652	1	4	0	40	19	0	0	100
fixed	2	2	8	217020	2	3	3	1	0	912	1	4	0	56	20	0	0	100
fixed	2	2	9	218497	3	2	2	2	0	2169	2	4	0	48	21	0	0	100
fixed	2	2	10	221354	1	4	4	1	0	896	1	4	0	64	22	0	0	100
fixed	2	2	11	222626	5	2	2	1	0	818	1	4	0	48	23	0	0	100
fixed	2	2	12	223873	4	3	3	1	0	749	1	4	0	56	24	0	0	100
fixed	2	3	1	225630	4	1	1	1	0	643	1	4	0	40	25	0	0	100
fixed	2	3	2	227270	1	2	2	2	0	1750	2	4	0	48	26	0	0	100
fixed	2	3	3	229369	6	4	4	1	0	612	1	4	0	64	27	0	0	100
fixed	2	3	4	230411	2	1	1	2	0	1577	2	4	0	40	28	0	0	100
fixed	2	3	5	232587	5	3	3	1	0	1957	1	4	0	56	29	0	0	100
fixed	2	3	6	235572	6	4	4	1	0	702	1	4	0	64	30	0	0	100
fixed	2	3	7	236595	3	1	1	1	0	843	1	4	0	40	31	0	0	100
fixed	2	3	8	237726	2	3	3	1	0	1115	1	4	0	56	32	0	0	100
fixed	2	3	9	239222	3	2	2	1	0	772	1	4	0	48	33	0	0	100
fixed	2	3	10	240643	1	4	4	1	0	648	1	4	0	64	34	0	0	100
fixed	2	3	11	241918	5	2	2	1	0	841	1	4	0	48	35	0	0	100
fixed	2	3	12	243639	4	3	3	1	0	808	1	4	0	56	36	0	0	100
fixed	2	4	1	245428	4	1	1	1	0	628	1	4	0	40	37	0	0	100
fixed	2	4	2	246884	1	2	2	1	0	959	1	4	0	48	38	0	0	100
fixed	2	4	3	248206	6	4	4	1	0	591	1	4	0	64	39	0	0	100
fixed	2	4	4	249162	2	1	1	1	0	839	1	4	0	40	40	0	0	100
fixed	2	4	5	250825	5	3	3	1	0	920	1	4	0	56	41	0	0	100
fixed	2	4	6	252585	6	4	4	1	0	782	1	4	0	64	42	0	0	100
fixed	2	4	7	254290	3	1	1	1	0	797	1	4	0	40	43	0	0	100
fixed	2	4	8	256031	2	3	3	1	0	908	1	4	0	56	44	0	0	100
fixed	2	4	9	257685	3	2	2	1	0	638	1	4	0	48	45	0	0	100
fixed	2	4	10	259280	1	4	4	1	0	722	1	4	0	64	46	0	0	100
fixed	2	4	11	261031	5	2	2	1	0	847	1	4	0	48	47	0	0	100
fixed	2	4	12	262570	4	3	3	1	0	838	1	4	0	56	48	0	0	100
fixed	2	5	1	264224	4	1	1	1	0	936	1	4	0	40	49	0	0	100
fixed	2	5	2	265910	1	2	2	1	0	921	1	4	0	48	50	0	0	100
fixed	2	5	3	267545	6	4	4	1	0	676	1	4	0	64	51	0	0	100
fixed	2	5	4	268628	2	1	1	1	0	662	1	4	0	40	52	0	0	100
fixed	2	5	5	269869	5	3	3	1	0	769	1	4	0	56	53	0	0	100
fixed	2	5	6	271563	6	4	4	2	0	1234	2	4	0	64	54	0	0	100
fixed	2	5	7	273636	3	1	1	1	0	786	1	4	0	40	55	0	0	100
fixed	2	5	8	275191	2	3	3	1	0	936	1	4	0	56	56	0	0	100
fixed	2	5	9	276815	3	2	2	1	0	843	1	4	0	48	57	0	0	100
fixed	2	5	10	278435	1	4	4	1	0	1687	1	4	0	64	58	0	0	100
fixed	2	5	11	281116	5	2	2	1	0	845	1	4	0	48	59	0	0	100
fixed	2	5	12	282750	4	3	3	1	0	856	1	4	0	56	60	0	0	100
fixed	2	6	1	284290	4	1	1	1	0	622	1	4	0	40	61	0	0	100
fixed	2	6	2	285223	1	2	2	1	0	959	1	4	0	48	62	0	0	100
fixed	2	6	3	286830	6	4	4	1	0	779	1	4	0	64	63	0	0	100
fixed	2	6	4	287993	2	1	1	1	0	810	1	4	0	40	64	0	0	100
fixed	2	6	5	289565	5	3	3	1	0	856	1	4	0	56	65	0	0	100
fixed	2	6	6	291349	6	4	4	1	0	748	1	4	0	64	66	0	0	100
fixed	2	6	7	293113	3	1	1	1	0	673	1	4	0	40	67	0	0	100
fixed	2	6	8	294491	2	3	3	3	0	1575	2	4	0	56	68	0	0	100
fixed	2	6	9	296670	3	2	2	1	0	882	1	4	0	48	69	0	0	100
fixed	2	6	10	298421	1	4	4	1	0	880	1	4	0	64	70	0	0	100
fixed	2	6	11	299843	5	2	2	2	0	1236	2	4	0	48	71	0	0	100
fixed	2	6	12	301387	4	3	3	1	0	1018	1	4	0	56	72	0	0	100
fixed	2	7	1	303237	4	1	1	1	0	852	1	4	0	40	73	0	0	100
fixed	2	7	2	304943	1	2	2	1	0	1316	1	4	0	48	74	0	0	100
fixed	2	7	3	307007	6	4	4	1	0	773	1	4	0	64	75	0	0	100
fixed	2	7	4	308142	2	1	1	1	0	861	1	4	0	40	76	0	0	100
fixed	2	7	5	309695	5	3	3	1	0	1027	1	4	0	56	77	0	0	100
fixed	2	7	6	311681	6	4	4	1	0	655	1	4	0	64	78	0	0	100
fixed	2	7	7	312868	3	1	1	1	0	836	1	4	0	40	79	0	0	100
fixed	2	7	8	314441	2	3	3	1	0	1178	1	4	0	56	80	0	0	100
fixed	2	7	9	316305	3	2	2	1	0	771	1	4	0	48	81	0	0	100
fixed	2	7	10	317792	1	4	4	1	0	804	1	4	0	64	82	0	0	100
fixed	2	7	11	319552	5	2	2	1	0	913	1	4	0	48	83	0	0	100
fixed	2	7	12	320886	4	3	3	2	0	1401	2	4	0	56	84	0	0	100
fixed	2	8	1	322885	4	1	1	1	0	1220	1	4	0	40	85	0	0	100
fixed	2	8	2	325149	1	2	2	1	0	1180	1	4	0	48	86	0	0	100
fixed	2	8	3	327229	6	4	4	1	0	644	1	4	0	64	87	0	0	100
fixed	2	8	4	328611	2	1	1	1	0	978	1	4	0	40	88	0	0	100
fixed	2	8	5	330052	5	3	3	1	0	668	1	4	0	56	89	0	0	100
fixed	2	8	6	331058	6	4	4	1	0	794	1	4	0	64	90	0	0	100
fixed	2	8	7	332338	3	1	1	1	0	732	1	4	0	40	91	0	0	100
fixed	2	8	8	333829	2	3	3	1	0	916	1	4	0	56	92	0	0	100
fixed	2	8	9	335193	3	2	2	1	0	723	1	4	0	48	93	0	0	100
fixed	2	8	10	336882	1	4	4	1	0	667	1	4	0	64	94	0	0	100
fixed	2	8	11	338349	5	2	2	1	0	869	1	4	0	48	95	0	0	100
fixed	2	8	12	339786	4	3	3	1	0	592	1	4	0	56	96	0	0	100
fixed	2	9	1	341163	4	1	1	1	0	694	1	4	0	40	97	0	0	100
fixed	2	9	2	342286	1	2	2	2	0	1030	2	4	0	48	98	0	0	100
fixed	2	9	3	343963	6	4	4	1	0	695	1	4	0	64	99	0	0	100
fixed	2	9	4	345174	2	1	1	1	0	740	1	4	0	40	100	0	0	100
fixed	2	9	5	346571	5	3	3	1	0	721	1	4	0	56	101	0	0	100
fixed	2	9	6	348106	6	4	4	1	0	728	1	4	0	64	102	0	0	100
fixed	2	9	7	349655	3	1	1	1	0	950	1	4	0	40	103	0	0	100
fixed	2	9	8	351209	2	3	3	1	0	884	1	4	0	56	104	0	0	100
fixed	2	9	9	352945	3	2	2	1	0	755	1	4	0	48	105	0	0	100
fixed	2	9	10	354163	1	4	4	1	0	735	1	4	0	64	106	0	0	100
fixed	2	9	11	355871	5	2	2	1	0	783	1	4	0	48	107	0	0	100
fixed	2	9	12	357174	4	3	3	1	0	800	1	4	0	56	108	0	0	100
fixed	2	10	1	358673	4	1	1	1	0	896	1	4	0	40	109	0	0	100
fixed	2	10	2	360577	1	2	2	2	0	1727	2	4	0	48	110	0	0	100
fixed	2	10	3	363091	6	4	4	1	0	677	1	4	0	64	111	0	0	100
fixed	2	10	4	364353	2	1	1	1	0	887	1	4	0	40	112	0	0	100
fixed	2	10	5	365905	5	3	3	1	0	758	1	4	0	56	113	0	0	100
fixed	2	10	6	367067	6	4	4	1	0	829	1	4	0	64	114	0	0	100
fixed	2	10	7	368587	3	1	1	1	0	676	1	4	0	40	115	0	0	100
fixed	2	10	8	369871	2	3	3	1	0	734	1	4	0	56	116	0	0	100
fixed	2	10	9	371010	3	2	2	1	0	742	1	4	0	48	117	0	0	100
fixed	2	10	10	372662	1	4	4	1	0	912	1	4	0	64	118	0	0	100
fixed	2	10	11	374447	5	2	2	2	0	1132	2	4	0	48	119	0	0	100
fixed	2	10	12	376163	4	3	3	1	0	883	1	4	0	56	120	0	0	100
fixed	3	1	1	378202	4	1	1	1	0	685	1	4	0	72	1	0	0	100
fixed	3	1	2	379920	1	2	2	2	0	2212	2	4	0	80	2	0	0	100
fixed	3	1	3	382747	6	4	4	1	0	652	1	4	0	96	3	0	0	100
fixed	3	1	4	383843	2	1	1	1	0	798	1	4	0	72	4	0	0	100
fixed	3	1	5	385584	5	3	3	1	0	829	1	4	0	88	5	0	0	100
fixed	3	1	6	387338	6	4	4	1	0	738	1	4	0	96	6	0	0	100
fixed	3	1	7	389085	3	1	1	1	0	664	1	4	0	72	7	0	0	100
fixed	3	1	8	390489	2	3	3	1	0	725	1	4	0	88	8	0	0	100
fixed	3	1	9	392024	3	2	2	2	0	1483	2	4	0	80	9	0	0	100
fixed	3	1	10	393960	1	4	4	1	0	1625	1	4	0	96	10	0	0	100
fixed	3	1	11	396551	5	2	2	1	0	748	1	4	0	80	11	0	0	100
fixed	3	1	12	398083	4	3	3	1	0	923	1	4	0	88	12	0	0	100
fixed	3	2	1	400241	4	1	1	1	0	639	1	4	0	72	13	0	0	100
fixed	3	2	2	401199	1	2	2	1	0	975	1	4	0	80	14	0	0	100
fixed	3	2	3	402571	6	4	4	1	0	533	1	4	0	96	15	0	0	100
fixed	3	2	4	403845	2	1	1	1	0	663	1	4	0	72	16	0	0	100
fixed	3	2	5	405204	5	3	3	1	0	645	1	4	0	88	17	0	0	100
fixed	3	2	6	406861	6	4	4	1	0	695	1	4	0	96	18	0	0	100
fixed	3	2	7	408204	3	1	1	1	0	606	1	4	0	72	19	0	0	100
fixed	3	2	8	409470	2	3	3	1	0	617	1	4	0	88	20	0	0	100
fixed	3	2	9	410891	3	2	2	1	0	1212	1	4	0	80	21	0	0	100
fixed	3	2	10	412440	1	4	4	1	0	691	1	4	0	96	22	0	0	100
fixed	3	2	11	413936	5	2	0	1	2	0	3	4	0	80	22	0	1	96
fixed	3	2	12	416921	4	3	3	1	0	1069	1	4	0	88	23	0	1	96
fixed	3	3	1	419138	4	1	1	1	0	831	1	4	0	72	24	0	1	96
fixed	3	3	2	420663	1	2	2	1	0	863	1	4	0	80	25	0	1	96
fixed	3	3	3	422317	6	4	4	1	0	648	1	4	0	96	26	0	1	96
fixed	3	3	4	423694	2	1	1	1	0	734	1	4	0	72	27	0	1	96
fixed	3	3	5	425268	5	3	3	2	0	1027	2	4	0	88	28	0	1	97
fixed	3	3	6	427185	6	4	4	1	0	651	1	4	0	96	29	0	1	97
fixed	3	3	7	428170	3	1	1	1	0	729	1	4	0	72	30	0	1	97
fixed	3	3	8	429819	2	3	3	1	0	707	1	4	0	88	31	0	1	97
fixed	3	3	9	430969	3	2	2	1	0	754	1	4	0	80	32	0	1	97
fixed	3	3	10	432335	1	4	4	1	0	1496	1	4	0	96	33	0	1	97
fixed	3	3	11	434248	5	2	2	2	0	959	2	4	0	80	34	0	1	97
fixed	3	3	12	435728	4	3	3	1	0	664	1	4	0	88	35	0	1	97
fixed	3	4	1	437048	4	1	1	1	0	536	1	4	0	72	36	0	1	97
fixed	3	4	2	437909	1	2	2	1	0	1068	1	4	0	80	37	0	1	97
fixed	3	4	3	439780	6	4	4	1	0	429	1	4	0	96	38	0	1	97
fixed	3	4	4	440684	2	1	1	1	0	719	1	4	0	72	39	0	1	98
fixed	3	4	5	441774	5	3	3	1	0	760	1	4	0	88	40	0	1	98
fixed	3	4	6	443405	6	4	4	1	0	811	1	4	0	96	41	0	1	98
fixed	3	4	7	444727	3	1	1	2	0	851	2	4	0	72	42	0	1	98
fixed	3	4	8	446390	2	3	3	1	0	773	1	4	0	88	43	0	1	98
fixed	3	4	9	447710	3	2	2	1	0	717	1	4	0	80	44	0	1	98
fixed	3	4	10	449434	1	4	4	1	0	1020	1	4	0	96	45	0	1	98
fixed	3	4	11	451046	5	2	2	2	0	1904	2	4	0	80	46	0	1	98
fixed	3	4	12	453403	4	3	3	1	0	676	1	4	0	88	47	0	1	98
fixed	3	5	1	455276	4	1	1	1	0	668	1	4	0	72	48	0	1	98
fixed	3	5	2	456435	1	2	2	1	0	803	1	4	0	80	49	0	1	98
fixed	3	5	3	457874	6	4	4	1	0	695	1	4	0	96	50	0	1	98
fixed	3	5	4	459384	2	1	1	1	0	702	1	4	0	72	51	0	1	98
fixed	3	5	5	461074	5	3	3	1	0	807	1	4	0	88	52	0	1	98
fixed	3	5	6	462402	6	4	4	1	0	679	1	4	0	96	53	0	1	98
fixed	3	5	7	463894	3	1	1	1	0	856	1	4	0	72	54	0	1	98
fixed	3	5	8	465723	2	3	3	1	0	954	1	4	0	88	55	0	1	98
fixed	3	5	9	467685	3	2	2	1	0	415	1	4	0	80	56	0	1	98
fixed	3	5	10	468513	1	4	4	1	0	652	1	4	0	96	57	0	1	98
fixed	3	5	11	469952	5	2	2	2	0	927	2	4	0	80	58	0	1	98
fixed	3	5	12	471266	4	3	3	1	0	719	1	4	0	88	59	0	1	98
fixed	3	6	1	472586	4	1	1	1	0	831	1	4	0	72	60	0	1	98
fixed	3	6	2	473950	1	2	2	3	0	1422	2	4	0	80	61	0	1	98
fixed	3	6	3	476031	6	4	4	1	0	661	1	4	0	96	62	0	1	98
fixed	3	6	4	477707	2	1	1	1	0	935	1	4	0	72	63	0	1	98
fixed	3	6	5	479371	5	3	3	1	0	1056	1	4	0	88	64	0	1	98
fixed	3	6	6	481323	6	4	4	1	0	765	1	4	0	96	65	0	1	98
fixed	3	6	7	482674	3	1	1	1	0	860	1	4	0	72	66	0	1	99
fixed	3	6	8	484507	2	3	3	1	0	751	1	4	0	88	67	0	1	99
fixed	3	6	9	485966	3	2	2	1	0	992	1	4	0	80	68	0	1	99
fixed	3	6	10	487539	1	4	4	1	0	750	1	4	0	96	69	0	1	99
fixed	3	6	11	488928	5	2	2	1	0	1211	1	4	0	80	70	0	1	99
fixed	3	6	12	491022	4	3	3	1	0	787	1	4	0	88	71	0	1	99
fixed	3	7	1	492852	4	1	1	1	0	621	1	4	0	72	72	0	1	99
fixed	3	7	2	494276	1	2	0	1	2	0	3	4	0	80	72	0	2	97
fixed	3	7	3	497597	6	4	4	1	0	1836	1	4	0	96	73	0	2	97
fixed	3	7	4	499887	2	1	1	1	0	659	1	4	0	72	74	0	2	97
fixed	3	7	5	501212	5	3	3	1	0	739	1	4	0	88	75	0	2	97
fixed	3	7	6	502442	6	4	4	1	0	639	1	4	0	96	76	0	2	97
fixed	3	7	7	503887	3	1	1	1	0	418	1	4	0	72	77	0	2	97
fixed	3	7	8	505235	2	3	3	1	0	800	1	4	0	88	78	0	2	98
fixed	3	7	9	506451	3	2	2	1	0	861	1	4	0	80	79	0	2	98
fixed	3	7	10	507884	1	4	4	1	0	713	1	4	0	96	80	0	2	98
fixed	3	7	11	509190	5	2	2	2	0	1489	2	4	0	80	81	0	2	98
fixed	3	7	12	511599	4	3	3	1	0	1227	1	4	0	88	82	0	2	98
fixed	3	8	1	513670	4	1	1	1	0	587	1	4	0	72	83	0	2	98
fixed	3	8	2	515211	1	2	2	1	0	946	1	4	0	80	84	0	2	98
fixed	3	8	3	516864	6	4	4	1	0	676	1	4	0	96	85	0	2	98
fixed	3	8	4	518311	2	1	1	1	0	983	1	4	0	72	86	0	2	98
fixed	3	8	5	519595	5	3	3	1	0	809	1	4	0	88	87	0	2	98
fixed	3	8	6	521012	6	4	4	1	0	756	1	4	0	96	88	0	2	98
fixed	3	8	7	522083	3	1	1	1	0	791	1	4	0	72	89	0	2	98
fixed	3	8	8	523813	2	3	3	1	0	909	1	4	0	88	90	0	2	98
fixed	3	8	9	525584	3	2	2	1	0	466	1	4	0	80	91	0	2	98
fixed	3	8	10	526769	1	4	4	1	0	792	1	4	0	96	92	0	2	98
fixed	3	8	11	528584	5	2	2	1	0	1036	1	4	0	80	93	0	2	98
fixed	3	8	12	530603	4	3	3	1	0	702	1	4	0	88	94	0	2	98
fixed	3	9	1	532432	4	1	1	1	0	592	1	4	0	72	95	0	2	98
fixed	3	9	2	533600	1	2	2	2	0	1783	2	4	0	80	96	0	2	98
fixed	3	9	3	536366	6	4	4	1	0	690	1	4	0	96	97	0	2	98
fixed	3	9	4	537445	2	1	1	1	0	780	1	4	0	72	98	0	2	98
fixed	3	9	5	539084	5	3	3	1	0	959	1	4	0	88	99	0	2	98
fixed	3	9	6	541065	6	4	4	1	0	731	1	4	0	96	100	0	2	98
fixed	3	9	7	542406	3	1	1	1	0	714	1	4	0	72	101	0	2	98
fixed	3	9	8	543701	2	3	3	1	0	899	1	4	0	88	102	0	2	98
fixed	3	9	9	544998	3	2	2	1	0	708	1	4	0	80	103	0	2	98
fixed	3	9	10	546111	1	4	4	1	0	621	1	4	0	96	104	0	2	98
fixed	3	9	11	547698	5	2	2	1	0	914	1	4	0	80	105	0	2	98
fixed	3	9	12	548936	4	3	3	1	0	966	1	4	0	88	106	0	2	98
fixed	3	10	1	550644	4	1	1	1	0	501	1	4	0	72	107	0	2	98
fixed	3	10	2	551546	1	2	2	2	0	1135	2	4	0	80	108	0	2	98
fixed	3	10	3	553709	6	4	4	2	0	676	2	4	0	96	109	0	2	98
fixed	3	10	4	554869	2	1	1	1	0	794	1	4	0	72	110	0	2	98
fixed	3	10	5	556393	5	3	3	1	0	858	1	4	0	88	111	0	2	98
fixed	3	10	6	558253	6	4	4	1	0	755	1	4	0	96	112	0	2	98
fixed	3	10	7	559743	3	1	1	1	0	700	1	4	0	72	113	0	2	98
fixed	3	10	8	561449	2	3	3	1	0	1100	1	4	0	88	114	0	2	98
fixed	3	10	9	563567	3	2	2	1	0	762	1	4	0	80	115	0	2	98
fixed	3	10	10	564679	1	4	4	1	0	771	1	4	0	96	116	0	2	98
fixed	3	10	11	565812	5	2	2	1	0	914	1	4	0	80	117	0	2	98
fixed	3	10	12	567672	4	3	3	1	0	940	1	4	0	88	118	0	2	98
fixed	4	1	1	656986	4	1	1	1	0	829	1	4	0	104	1	0	0	100
fixed	4	1	2	658228	1	2	2	2	0	1088	2	4	0	112	2	0	0	100
fixed	4	1	3	660086	6	4	4	1	0	674	1	4	0	128	3	0	0	100
fixed	4	1	4	661792	2	1	1	1	0	674	1	4	0	104	4	0	0	100
fixed	4	1	5	662922	5	3	3	1	0	810	1	4	0	120	5	0	0	100
fixed	4	1	6	664207	6	4	4	1	0	771	1	4	0	128	6	0	0	100
fixed	4	1	7	665483	3	1	1	1	0	669	1	4	0	104	7	0	0	100
fixed	4	1	8	666859	2	3	3	1	0	947	1	4	0	120	8	0	0	100
fixed	4	1	9	668375	3	2	2	1	0	835	1	4	0	112	9	0	0	100
fixed	4	1	10	669690	1	4	4	1	0	667	1	4	0	128	10	0	0	100
fixed	4	1	11	670881	5	2	2	1	0	929	1	4	0	112	11	0	0	100
fixed	4	1	12	672625	4	3	3	1	0	790	1	4	0	120	12	0	0	100
fixed	4	2	1	674698	4	1	1	1	0	719	1	4	0	104	13	0	0	100
fixed	4	2	2	675888	1	2	2	1	0	1364	1	4	0	112	14	0	0	100
fixed	4	2	3	678091	6	4	4	1	0	663	1	4	0	128	15	0	0	100
fixed	4	2	4	679605	2	1	1	1	0	855	1	4	0	104	16	0	0	100
fixed	4	2	5	681231	5	3	3	1	0	746	1	4	0	120	17	0	0	100
fixed	4	2	6	682622	6	4	4	1	0	903	1	4	0	128	18	0	0	100
fixed	4	2	7	684412	3	1	1	1	0	724	1	4	0	104	19	0	0	100
fixed	4	2	8	685791	2	3	3	1	0	873	1	4	0	120	20	0	0	100
fixed	4	2	9	687146	3	2	2	1	0	903	1	4	0	112	21	0	0	100
fixed	4	2	10	688920	1	4	4	1	0	700	1	4	0	128	22	0	0	100
fixed	4	2	11	690440	5	2	2	1	0	924	1	4	0	112	23	0	0	100
fixed	4	2	12	691918	4	3	3	1	0	710	1	4	0	120	24	0	0	100
fixed	4	3	1	693862	4	1	1	1	0	651	1	4	0	104	25	0	0	100
fixed	4	3	2	695129	1	2	2	1	0	821	1	4	0	112	26	0	0	100
fixed	4	3	3	696775	6	4	4	1	0	440	1	4	0	128	27	0	0	100
fixed	4	3	4	697629	2	1	1	1	0	620	1	4	0	104	28	0	0	100
fixed	4	3	5	698918	5	3	3	1	0	797	1	4	0	120	29	0	0	100
fixed	4	3	6	700306	6	4	4	1	0	1547	1	4	0	128	30	0	0	100
fixed	4	3	7	702668	3	1	1	1	0	662	1	4	0	104	31	0	0	100
fixed	4	3	8	703819	2	3	3	1	0	853	1	4	0	120	32	0	0	100
fixed	4	3	9	705128	3	2	2	1	0	846	1	4	0	112	33	0	0	100
fixed	4	3	10	706772	1	4	4	1	0	857	1	4	0	128	34	0	0	100
fixed	4	3	11	708584	5	2	2	1	0	772	1	4	0	112	35	0	0	100
fixed	4	3	12	710398	4	3	3	1	0	887	1	4	0	120	36	0	0	100
fixed	4	4	1	712140	4	1	1	1	0	725	1	4	0	104	37	0	0	100
fixed	4	4	2	713413	1	2	2	1	0	1479	1	4	0	112	38	0	0	100
fixed	4	4	3	715674	6	4	4	1	0	632	1	4	0	128	39	0	0	100
fixed	4	4	4	716946	2	1	1	2	0	1274	2	4	0	104	40	0	0	100
fixed	4	4	5	718580	5	3	3	1	0	788	1	4	0	120	41	0	0	100
fixed	4	4	6	719756	6	4	4	1	0	650	1	4	0	128	42	0	0	100
fixed	4	4	7	720882	3	1	1	1	0	691	1	4	0	104	43	0	0	100
fixed	4	4	8	722591	2	3	3	1	0	1019	1	4	0	120	44	0	0	100
fixed	4	4	9	723958	3	2	2	1	0	617	1	4	0	112	45	0	0	100
fixed	4	4	10	725291	1	4	4	1	0	736	1	4	0	128	46	0	0	100
fixed	4	4	11	726952	5	2	2	1	0	882	1	4	0	112	47	0	0	100
fixed	4	4	12	728114	4	3	3	1	0	824	1	4	0	120	48	0	0	100
fixed	4	5	1	729917	4	1	1	1	0	524	1	4	0	104	49	0	0	100
fixed	4	5	2	731453	1	2	2	1	0	979	1	4	0	112	50	0	0	100
fixed	4	5	3	733422	6	4	4	1	0	720	1	4	0	128	51	0	0	100
fixed	4	5	4	734433	2	1	1	1	0	765	1	4	0	104	52	0	0	100
fixed	4	5	5	735659	5	3	3	1	0	761	1	4	0	120	53	0	0	100
fixed	4	5	6	736767	6	4	4	1	0	666	1	4	0	128	54	0	0	100
fixed	4	5	7	738078	3	1	1	1	0	683	1	4	0	104	55	0	0	100
fixed	4	5	8	739522	2	3	3	1	0	949	1	4	0	120	56	0	0	100
fixed	4	5	9	741205	3	2	2	1	0	494	1	4	0	112	57	0	0	100
fixed	4	5	10	742154	1	4	4	1	0	694	1	4	0	128	58	0	0	100
fixed	4	5	11	743650	5	2	2	1	0	950	1	4	0	112	59	0	0	100
fixed	4	5	12	744917	4	3	3	1	0	1145	1	4	0	120	60	0	0	100
fixed	4	6	1	747076	4	1	1	1	0	645	1	4	0	104	61	0	0	100
fixed	4	6	2	748366	1	2	2	2	0	1039	2	4	0	112	62	0	0	100
fixed	4	6	3	749921	6	4	4	1	0	701	1	4	0	128	63	0	0	100
fixed	4	6	4	751446	2	1	1	1	0	772	1	4	0	104	64	0	0	100
fixed	4	6	5	752911	5	3	3	1	0	766	1	4	0	120	65	0	0	100
fixed	4	6	6	754582	6	4	4	1	0	1431	1	4	0	128	66	0	0	100
fixed	4	6	7	756884	3	1	1	1	0	806	1	4	0	104	67	0	0	100
fixed	4	6	8	758536	2	3	3	1	0	784	1	4	0	120	68	0	0	100
fixed	4	6	9	759646	3	2	2	1	0	817	1	4	0	112	69	0	0	100
fixed	4	6	10	761300	1	4	4	1	0	739	1	4	0	128	70	0	0	100
fixed	4	6	11	762505	5	2	2	1	0	752	1	4	0	112	71	0	0	100
fixed	4	6	12	763744	4	3	3	2	0	852	2	4	0	120	72	0	0	100
fixed	4	7	1	765387	4	1	1	1	0	686	1	4	0	104	73	0	0	100
fixed	4	7	2	766874	1	2	2	1	0	935	1	4	0	112	74	0	0	100
fixed	4	7	3	768474	6	4	4	1	0	635	1	4	0	128	75	0	0	100
fixed	4	7	4	770142	2	1	1	1	0	1157	1	4	0	104	76	0	0	100
fixed	4	7	5	771894	5	3	3	1	0	770	1	4	0	120	77	0	0	100
fixed	4	7	6	772983	6	4	4	1	0	684	1	4	0	128	78	0	0	100
fixed	4	7	7	774237	3	1	1	1	0	863	1	4	0	104	79	0	0	100
fixed	4	7	8	775912	2	3	3	2	0	1520	2	4	0	120	80	0	0	100
fixed	4	7	9	778147	3	2	2	1	0	554	1	4	0	112	81	0	0	100
fixed	4	7	10	779336	1	4	4	1	0	767	1	4	0	128	82	0	0	100
fixed	4	7	11	780949	5	2	2	1	0	787	1	4	0	112	83	0	0	100
fixed	4	7	12	782124	4	3	3	1	0	761	1	4	0	120	84	0	0	100
fixed	4	8	1	783966	4	1	1	1	0	1099	1	4	0	104	85	0	0	100
fixed	4	8	2	785997	1	2	2	2	0	1637	2	4	0	112	86	0	0	100
fixed	4	8	3	788309	6	4	4	1	0	691	1	4	0	128	87	0	0	100
fixed	4	8	4	789355	2	1	1	1	0	1047	1	4	0	104	88	0	0	100
fixed	4	8	5	791246	5	3	3	1	0	991	1	4	0	120	89	0	0	100
fixed	4	8	6	792766	6	4	4	1	0	718	1	4	0	128	90	0	0	100
fixed	4	8	7	794173	3	1	1	1	0	810	1	4	0	104	91	0	0	100
fixed	4	8	8	795601	2	3	3	1	0	878	1	4	0	120	92	0	0	100
fixed	4	8	9	797336	3	2	2	1	0	516	1	4	0	112	93	0	0	100
fixed	4	8	10	798299	1	4	4	1	0	739	1	4	0	128	94	0	0	100
fixed	4	8	11	799518	5	2	2	1	0	952	1	4	0	112	95	0	0	100
fixed	4	8	12	801329	4	3	3	1	0	731	1	4	0	120	96	0	0	100
fixed	4	9	1	802913	4	1	1	1	0	816	1	4	0	104	97	0	0	100
fixed	4	9	2	804242	1	2	2	1	0	1560	1	4	0	112	98	0	0	100
fixed	4	9	3	806247	6	4	4	1	0	571	1	4	0	128	99	0	0	100
fixed	4	9	4	807586	2	1	1	1	0	715	1	4	0	104	100	0	0	100
fixed	4	9	5	808852	5	3	3	1	0	749	1	4	0	120	101	0	0	100
fixed	4	9	6	810381	6	4	4	1	0	460	1	4	0	128	102	0	0	100
fixed	4	9	7	811565	3	1	1	1	0	690	1	4	0	104	103	0	0	100
fixed	4	9	8	812817	2	3	3	1	0	757	1	4	0	120	104	0	0	100
fixed	4	9	9	814090	3	2	2	1	0	1271	1	4	0	112	105	0	0	100
fixed	4	9	10	816157	1	4	4	1	0	768	1	4	0	128	106	0	0	100
fixed	4	9	11	817237	5	2	2	1	0	874	1	4	0	112	107	0	0	100
fixed	4	9	12	818948	4	3	3	1	0	745	1	4	0	120	108	0	0	100
fixed	4	10	1	820322	4	1	1	1	0	631	1	4	0	104	109	0	0	100
fixed	4	10	2	821557	1	2	2	1	0	890	1	4	0	112	110	0	0	100
fixed	4	10	3	823001	6	4	4	1	0	678	1	4	0	128	111	0	0	100
fixed	4	10	4	824274	2	1	0	0	2	0	3	4	0	104	111	0	1	99
fixed	4	10	5	827403	5	3	3	1	0	707	1	4	0	120	112	0	1	99
fixed	4	10	6	828576	6	4	4	1	0	513	1	4	0	128	113	0	1	99
fixed	4	10	7	829381	3	1	1	1	0	687	1	4	0	104	114	0	1	99
fixed	4	10	8	830658	2	3	3	1	0	745	1	4	0	120	115	0	1	99
fixed	4	10	9	832403	3	2	2	2	0	871	2	4	0	112	116	0	1	99
fixed	4	10	10	833671	1	4	4	1	0	657	1	4	0	128	117	0	1	99
fixed	4	10	11	835011	5	2	2	1	0	801	1	4	0	112	118	0	1	99
fixed	4	10	12	836226	4	3	3	1	0	765	1	4	0	120	119	0	1	99
fixed	5	1	1	837946	4	1	1	1	0	676	1	4	0	136	1	0	0	100
fixed	5	1	2	838982	1	2	2	2	0	1440	2	4	0	144	2	0	0	100
fixed	5	1	3	841151	6	4	4	1	0	701	1	4	0	160	3	0	0	100
fixed	5	1	4	842533	2	1	1	1	0	930	1	4	0	136	4	0	0	100
fixed	5	1	5	844140	5	3	3	1	0	886	1	4	0	152	5	0	0	100
fixed	5	1	6	845480	6	4	4	1	0	678	1	4	0	160	6	0	0	100
fixed	5	1	7	846561	3	1	1	1	0	816	1	4	0	136	7	0	0	100
fixed	5	1	8	848308	2	3	3	1	0	1013	1	4	0	152	8	0	0	100
fixed	5	1	9	849703	3	2	2	1	0	707	1	4	0	144	9	0	0	100
fixed	5	1	10	851092	1	4	4	1	0	808	1	4	0	160	10	0	0	100
fixed	5	1	11	852440	5	2	2	1	0	1351	1	4	0	144	11	0	0	100
fixed	5	1	12	854334	4	3	3	1	0	751	1	4	0	152	12	0	0	100
fixed	5	2	1	855943	4	1	1	1	0	642	1	4	0	136	13	0	0	100
fixed	5	2	2	857176	1	2	2	1	0	910	1	4	0	144	14	0	0	100
fixed	5	2	3	858774	6	4	4	1	0	626	1	4	0	160	15	0	0	100
fixed	5	2	4	860195	2	1	1	1	0	798	1	4	0	136	16	0	0	100
fixed	5	2	5	861351	5	3	3	1	0	765	1	4	0	152	17	0	0	100
fixed	5	2	6	862671	6	4	4	1	0	678	1	4	0	160	18	0	0	100
fixed	5	2	7	864309	3	1	1	1	0	1216	1	4	0	136	19	0	0	100
fixed	5	2	8	866484	2	3	3	1	0	1091	1	4	0	152	20	0	0	100
fixed	5	2	9	868496	3	2	2	2	0	935	2	4	0	144	21	0	0	100
fixed	5	2	10	869719	1	4	4	1	0	643	1	4	0	160	22	0	0	100
fixed	5	2	11	871077	5	2	2	1	0	889	1	4	0	144	23	0	0	100
fixed	5	2	12	872433	4	3	3	1	0	984	1	4	0	152	24	0	0	100
fixed	5	3	1	874639	4	1	1	1	0	610	1	4	0	136	25	0	0	100
fixed	5	3	2	875897	1	2	2	1	0	1389	1	4	0	144	26	0	0	100
fixed	5	3	3	877635	6	4	4	1	0	579	1	4	0	160	27	0	0	100
fixed	5	3	4	878892	2	1	1	1	0	830	1	4	0	136	28	0	0	100
fixed	5	3	5	880061	5	3	3	1	0	685	1	4	0	152	29	0	0	100
fixed	5	3	6	881786	6	4	4	1	0	684	1	4	0	160	30	0	0	100
fixed	5	3	7	883297	3	1	1	1	0	724	1	4	0	136	31	0	0	100
fixed	5	3	8	884993	2	3	3	1	0	692	1	4	0	152	32	0	0	100
fixed	5	3	9	886710	3	2	2	1	0	483	1	4	0	144	33	0	0	100
fixed	5	3	10	888156	1	4	4	1	0	822	1	4	0	160	34	0	0	100
fixed	5	3	11	889550	5	2	2	1	0	699	1	4	0	144	35	0	0	100
fixed	5	3	12	891187	4	3	3	1	0	926	1	4	0	152	36	0	0	100
fixed	5	4	1	892817	4	1	1	1	0	632	1	4	0	136	37	0	0	100
fixed	5	4	2	893843	1	2	2	2	0	1141	2	4	0	144	38	0	0	100
fixed	5	4	3	895574	6	4	4	1	0	683	1	4	0	160	39	0	0	100
fixed	5	4	4	896605	2	1	1	1	0	952	1	4	0	136	40	0	0	100
fixed	5	4	5	898515	5	3	3	1	0	959	1	4	0	152	41	0	0	100
fixed	5	4	6	900128	6	4	4	1	0	723	1	4	0	160	42	0	0	100
fixed	5	4	7	901246	3	1	1	1	0	924	1	4	0	136	43	0	0	100
fixed	5	4	8	902689	2	3	3	1	0	742	1	4	0	152	44	0	0	100
fixed	5	4	9	903841	3	2	2	1	0	989	1	4	0	144	45	0	0	100
fixed	5	4	10	905231	1	4	4	1	0	1322	1	4	0	160	46	0	0	100
fixed	5	4	11	907328	5	2	2	1	0	954	1	4	0	144	47	0	0	100
fixed	5	4	12	909121	4	3	3	1	0	550	1	4	0	152	48	0	0	100
fixed	5	5	1	910944	4	1	1	1	0	568	1	4	0	136	49	0	0	100
fixed	5	5	2	912108	1	2	2	2	0	744	2	4	0	144	50	0	0	100
fixed	5	5	3	913836	6	4	4	1	0	630	1	4	0	160	51	0	0	100
fixed	5	5	4	915256	2	1	1	1	0	946	1	4	0	136	52	0	0	100
fixed	5	5	5	917151	5	3	3	1	0	1154	1	4	0	152	53	0	0	100
fixed	5	5	6	919279	6	4	4	1	0	567	1	4	0	160	54	0	0	100
fixed	5	5	7	920512	3	1	1	1	0	692	1	4	0	136	55	0	0	100
fixed	5	5	8	922044	2	3	3	1	0	883	1	4	0	152	56	0	0	100
fixed	5	5	9	923941	3	2	2	1	0	450	1	4	0	144	57	0	0	100
fixed	5	5	10	924873	1	4	4	1	0	731	1	4	0	160	58	0	0	100
fixed	5	5	11	926096	5	2	2	1	0	895	1	4	0	144	59	0	0	100
fixed	5	5	12	927850	4	3	3	1	0	796	1	4	0	152	60	0	0	100
fixed	5	6	1	929523	4	1	1	1	0	677	1	4	0	136	61	0	0	100
fixed	5	6	2	931236	1	2	2	1	0	1293	1	4	0	144	62	0	0	100
fixed	5	6	3	933043	6	4	4	1	0	817	1	4	0	160	63	0	0	100
fixed	5	6	4	934292	2	1	1	1	0	756	1	4	0	136	64	0	0	100
fixed	5	6	5	935969	5	3	3	1	0	1436	1	4	0	152	65	0	0	100
fixed	5	6	6	937734	6	4	4	1	0	730	1	4	0	160	66	0	0	100
fixed	5	6	7	939387	3	1	1	1	0	884	1	4	0	136	67	0	0	100
fixed	5	6	8	940666	2	3	3	1	0	861	1	4	0	152	68	0	0	100
fixed	5	6	9	942200	3	2	2	1	0	877	1	4	0	144	69	0	0	100
fixed	5	6	10	943424	1	4	4	1	0	721	1	4	0	160	70	0	0	100
fixed	5	6	11	945092	5	2	2	1	0	1010	1	4	0	144	71	0	0	100
fixed	5	6	12	946565	4	3	3	1	0	772	1	4	0	152	72	0	0	100
fixed	5	7	1	948603	4	1	1	1	0	525	1	4	0	136	73	0	0	100
fixed	5	7	2	949821	1	2	2	1	0	938	1	4	0	144	74	0	0	100
fixed	5	7	3	951500	6	4	4	1	0	691	1	4	0	160	75	0	0	100
fixed	5	7	4	952603	2	1	1	1	0	828	1	4	0	136	76	0	0	100
fixed	5	7	5	953856	5	3	3	1	0	695	1	4	0	152	77	0	0	100
fixed	5	7	6	955478	6	4	4	1	0	699	1	4	0	160	78	0	0	100
fixed	5	7	7	957013	3	1	1	1	0	825	1	4	0	136	79	0	0	100
fixed	5	7	8	958254	2	3	3	1	0	933	1	4	0	152	80	0	0	100
fixed	5	7	9	959631	3	2	2	1	0	882	1	4	0	144	81	0	0	100
fixed	5	7	10	961368	1	4	4	1	0	809	1	4	0	160	82	0	0	100
fixed	5	7	11	962564	5	2	2	1	0	862	1	4	0	144	83	0	0	100
fixed	5	7	12	964076	4	3	3	1	0	734	1	4	0	152	84	0	0	100
fixed	5	8	1	965612	4	1	1	1	0	701	1	4	0	136	85	0	0	100
fixed	5	8	2	966622	1	2	2	1	0	922	1	4	0	144	86	0	0	100
fixed	5	8	3	968280	6	4	4	1	0	500	1	4	0	160	87	0	0	100
fixed	5	8	4	969125	2	1	1	1	0	784	1	4	0	136	88	0	0	100
fixed	5	8	5	970244	5	3	3	1	0	937	1	4	0	152	89	0	0	100
fixed	5	8	6	972223	6	4	4	1	0	621	1	4	0	160	90	0	0	100
fixed	5	8	7	973645	3	1	1	1	0	929	1	4	0	136	91	0	0	100
fixed	5	8	8	975471	2	3	3	1	0	675	1	4	0	152	92	0	0	100
fixed	5	8	9	976926	3	2	2	1	0	606	1	4	0	144	93	0	0	100
fixed	5	8	10	978466	1	4	4	1	0	989	1	4	0	160	94	0	0	100
fixed	5	8	11	980158	5	2	2	1	0	1141	1	4	0	144	95	0	0	100
fixed	5	8	12	982087	4	3	3	1	0	843	1	4	0	152	96	0	0	100
fixed	5	9	1	983823	4	1	1	1	0	842	1	4	0	136	97	0	0	100
fixed	5	9	2	985104	1	2	2	2	0	1164	2	4	0	144	98	0	0	100
fixed	5	9	3	986587	6	4	4	1	0	629	1	4	0	160	99	0	0	100
fixed	5	9	4	987720	2	1	1	1	0	749	1	4	0	136	100	0	0	100
fixed	5	9	5	989367	5	3	3	1	0	911	1	4	0	152	101	0	0	100
fixed	5	9	6	991099	6	4	4	1	0	702	1	4	0	160	102	0	0	100
fixed	5	9	7	992098	3	1	1	1	0	1411	1	4	0	136	103	0	0	100
fixed	5	9	8	993989	2	3	3	1	0	931	1	4	0	152	104	0	0	100
fixed	5	9	9	995947	3	2	2	1	0	457	1	4	0	144	105	0	0	100
fixed	5	9	10	997336	1	4	4	1	0	790	1	4	0	160	106	0	0	100
fixed	5	9	11	999079	5	2	2	1	0	972	1	4	0	144	107	0	0	100
fixed	5	9	12	1000488	4	3	3	1	0	1040	1	4	0	152	108	0	0	100
fixed	5	10	1	1002202	4	1	1	1	0	511	1	4	0	136	109	0	0	100
fixed	5	10	2	1003021	1	2	0	1	2	0	3	4	0	144	109	0	1	99
fixed	5	10	3	1006021	6	4	4	1	0	966	1	4	0	160	110	0	1	99
fixed	5	10	4	1007585	2	1	1	1	0	811	1	4	0	136	111	0	1	99
fixed	5	10	5	1009106	5	3	3	1	0	875	1	4	0	152	112	0	1	99
fixed	5	10	6	1010404	6	4	4	1	0	668	1	4	0	160	113	0	1	99
fixed	5	10	7	1011448	3	1	1	1	0	808	1	4	0	136	114	0	1	99
fixed	5	10	8	1013231	2	3	3	1	0	916	1	4	0	152	115	0	1	99
fixed	5	10	9	1015069	3	2	2	1	0	470	1	4	0	144	116	0	1	99
fixed	5	10	10	1016285	1	4	4	1	0	795	1	4	0	160	117	0	1	99
fixed	5	10	11	1018089	5	2	2	1	0	2094	1	4	0	144	118	0	1	99
fixed	5	10	12	1021025	4	3	3	1	0	818	1	4	0	152	119	0	1	99
random	6	1	1	1111133	6	1	1	1	0	1025	1	4	0	168	1	0	0	100
random	6	1	2	1112556	4	4	4	1	0	709	1	4	0	192	2	0	0	100
random	6	1	3	1113971	2	2	2	2	0	1138	2	4	0	176	3	0	0	100
random	6	1	4	1115989	3	3	3	1	0	692	1	4	0	184	4	0	0	100
random	6	1	5	1117694	5	2	2	1	0	772	1	4	0	176	5	0	0	100
random	6	1	6	1119109	1	4	4	1	0	752	1	4	0	192	6	0	0	100
random	6	1	7	1120512	6	1	1	1	0	732	1	4	0	168	7	0	0	100
random	6	1	8	1122198	2	3	3	1	0	965	1	4	0	184	8	0	0	100
random	6	1	9	1123595	4	2	2	1	0	602	1	4	0	176	9	0	0	100
random	6	1	10	1124864	1	1	1	1	0	1012	1	4	0	168	10	0	0	100
random	6	1	11	1126506	5	4	4	1	0	662	1	4	0	192	11	0	0	100
random	6	1	12	1127692	3	3	3	2	0	2084	2	4	0	184	12	0	0	100
random	6	1	13	1130349	5	2	2	1	0	699	1	4	0	176	13	0	0	100
random	6	1	14	1131349	1	4	4	1	0	681	1	4	0	192	14	0	0	100
random	6	1	15	1133012	3	1	1	1	0	819	1	4	0	168	15	0	0	100
random	6	1	16	1134326	4	3	3	1	0	723	1	4	0	184	16	0	0	100
random	6	1	17	1135456	6	4	4	1	0	724	1	4	0	192	17	0	0	100
random	6	1	18	1136985	2	1	1	1	0	707	1	4	0	168	18	0	0	100
random	6	1	19	1138687	5	3	3	1	0	826	1	4	0	184	19	0	0	100
random	6	1	20	1140025	2	2	2	1	0	882	1	4	0	176	20	0	0	100
random	6	1	21	1141634	3	3	3	1	0	998	1	4	0	184	21	0	0	100
random	6	1	22	1143337	6	1	1	1	0	670	1	4	0	168	22	0	0	100
random	6	1	23	1144945	4	2	2	1	0	842	1	4	0	176	23	0	0	100
random	6	1	24	1146620	1	4	4	1	0	650	1	4	0	192	24	0	0	100
random	6	1	25	1148260	4	3	3	2	0	1093	2	4	0	184	25	0	0	100
random	6	1	26	1149852	2	1	1	1	0	914	1	4	0	168	26	0	0	100
random	6	1	27	1151695	5	2	0	1	2	0	3	4	0	176	26	0	1	96
random	6	1	28	1154560	6	4	4	1	0	682	1	4	0	192	27	0	1	96
random	6	1	29	1155885	1	3	3	1	0	658	1	4	0	184	28	0	1	97
random	6	1	30	1157023	5	2	2	3	0	1962	2	4	0	176	29	0	1	97
random	6	1	31	1159653	2	1	1	1	0	1242	1	4	0	168	30	0	1	97
random	6	1	32	1161260	3	3	3	2	0	1254	2	4	0	184	31	0	1	97
random	6	1	33	1162959	6	4	4	1	0	679	1	4	0	192	32	0	1	97
random	6	1	34	1164453	4	2	2	1	0	951	1	4	0	176	33	0	1	97
random	6	1	35	1165938	3	4	4	1	0	776	1	4	0	192	34	0	1	97
random	6	1	36	1167100	1	1	1	1	0	663	1	4	0	168	35	0	1	97
random	6	1	37	1168643	3	4	4	1	0	694	1	4	0	192	36	0	1	97
random	6	1	38	1169929	5	3	3	1	0	1055	1	4	0	184	37	0	1	97
random	6	1	39	1171294	6	1	1	1	0	710	1	4	0	168	38	0	1	97
random	6	1	40	1172446	1	2	2	1	0	1005	1	4	0	176	39	0	1	98
random	6	1	41	1174007	2	3	3	1	0	898	1	4	0	184	40	0	1	98
random	6	1	42	1175318	4	4	4	1	0	851	1	4	0	192	41	0	1	98
random	6	1	43	1176609	1	2	0	1	2	0	3	4	0	176	41	0	2	95
random	6	1	44	1179620	6	3	3	1	0	765	1	4	0	184	42	0	2	95
random	6	1	45	1181378	3	1	1	2	0	1626	2	4	0	168	43	0	2	96
random	6	1	46	1183329	4	4	4	1	0	719	1	4	0	192	44	0	2	96
random	6	1	47	1184966	2	2	2	1	0	938	1	4	0	176	45	0	2	96
random	6	1	48	1186480	5	1	1	2	0	1082	2	4	0	168	46	0	2	96
random	6	1	49	1188375	2	3	3	1	0	1586	1	4	0	184	47	0	2	96
random	6	1	50	1190837	3	1	1	1	0	794	1	4	0	168	48	0	2	96
random	6	1	51	1192277	1	4	4	1	0	925	1	4	0	192	49	0	2	96
random	6	1	52	1193515	5	3	3	1	0	1297	1	4	0	184	50	0	2	96
random	6	1	53	1195533	3	2	2	1	0	803	1	4	0	176	51	0	2	96
random	6	1	54	1197207	6	4	4	1	0	972	1	4	0	192	52	0	2	96
random	6	1	55	1199103	4	2	2	1	0	1467	1	4	0	176	53	0	2	96
random	6	1	56	1200990	1	1	1	1	0	851	1	4	0	168	54	0	2	96
random	6	1	57	1202555	5	4	4	1	0	722	1	4	0	192	55	0	2	96
random	6	1	58	1204023	2	1	1	1	0	771	1	4	0	168	56	0	2	97
random	6	1	59	1205178	6	2	2	2	0	1787	2	4	0	176	57	0	2	97
random	6	1	60	1207666	4	3	3	1	0	665	1	4	0	184	58	0	2	97
random	6	1	61	1209260	1	2	2	1	0	901	1	4	0	176	59	0	2	97
random	6	1	62	1210719	6	4	4	1	0	760	1	4	0	192	60	0	2	97
random	6	1	63	1212397	4	1	1	1	0	769	1	4	0	168	61	0	2	97
random	6	1	64	1213885	2	2	2	1	0	1025	1	4	0	176	62	0	2	97
random	6	1	65	1215370	4	3	3	1	0	771	1	4	0	184	63	0	2	97
random	6	1	66	1217119	3	1	1	1	0	809	1	4	0	168	64	0	2	97
random	6	1	67	1218604	1	3	3	1	0	722	1	4	0	184	65	0	2	97
random	6	1	68	1220323	5	4	4	1	0	689	1	4	0	192	66	0	2	97
random	6	1	69	1221422	2	2	2	1	0	922	1	4	0	176	67	0	2	97
random	6	1	70	1222974	3	1	1	2	0	1081	2	4	0	168	68	0	2	97
random	6	1	71	1224552	5	4	4	1	0	742	1	4	0	192	69	0	2	97
random	6	1	72	1225673	6	3	3	1	0	942	1	4	0	184	70	0	2	97
random	6	1	73	1227857	2	1	1	1	0	898	1	4	0	168	71	0	2	97
random	6	1	74	1229402	5	3	3	1	0	752	1	4	0	184	72	0	2	97
random	6	1	75	1231091	1	4	4	1	0	689	1	4	0	192	73	0	2	97
random	6	1	76	1232258	6	2	2	2	0	1879	2	4	0	176	74	0	2	97
random	6	1	77	1234888	2	1	0	1	2	0	3	4	0	168	74	0	3	96
random	6	1	78	1238213	4	4	4	1	0	835	1	4	0	192	75	0	3	96
random	6	1	79	1239884	3	2	2	1	0	1124	1	4	0	176	76	0	3	96
random	6	1	80	1241427	4	3	3	2	0	1371	2	4	0	184	77	0	3	96
random	6	1	81	1243772	1	4	4	1	0	752	1	4	0	192	78	0	3	96
random	6	1	82	1245125	5	1	1	1	0	775	1	4	0	168	79	0	3	96
random	6	1	83	1246909	3	2	2	1	0	1523	1	4	0	176	80	0	3	96
random	6	1	84	1249145	6	3	3	1	0	708	1	4	0	184	81	0	3	96
random	6	1	85	1250477	3	2	2	1	0	1139	1	4	0	176	82	0	3	96
random	6	1	86	1252219	1	3	3	1	0	634	1	4	0	184	83	0	3	97
random	6	1	87	1253390	4	4	4	1	0	776	1	4	0	192	84	0	3	97
random	6	1	88	1254615	2	1	1	1	0	581	1	4	0	168	85	0	3	97
random	6	1	89	1255992	6	4	4	1	0	738	1	4	0	192	86	0	3	97
random	6	1	90	1257433	3	3	3	1	0	765	1	4	0	184	87	0	3	97
random	6	1	91	1259160	5	4	4	1	0	820	1	4	0	192	88	0	3	97
random	6	1	92	1260804	1	2	2	1	0	1038	1	4	0	176	89	0	3	97
random	6	1	93	1262724	5	1	1	1	0	957	1	4	0	168	90	0	3	97
random	6	1	94	1264352	4	3	3	1	0	760	1	4	0	184	91	0	3	97
random	6	1	95	1265409	6	1	1	1	0	915	1	4	0	168	92	0	3	97
random	6	1	96	1266888	2	2	2	1	0	1012	1	4	0	176	93	0	3	97
random	6	1	97	1268505	4	3	3	1	0	856	1	4	0	184	94	0	3	97
random	6	1	98	1269826	3	2	2	1	0	984	1	4	0	176	95	0	3	97
random	6	1	99	1271341	6	3	3	1	0	704	1	4	0	184	96	0	3	97
random	6	1	100	1272909	1	4	4	1	0	782	1	4	0	192	97	0	3	97
random	6	1	101	1274586	4	1	1	1	0	822	1	4	0	168	98	0	3	97
random	6	1	102	1275875	5	2	2	1	0	1016	1	4	0	176	99	0	3	97
random	6	1	103	1277470	2	4	4	1	0	757	1	4	0	192	100	0	3	97
random	6	1	104	1278700	3	1	1	1	0	944	1	4	0	168	101	0	3	97
random	6	1	105	1280666	1	3	3	1	0	717	1	4	0	184	102	0	3	97
random	6	1	106	1282207	2	2	2	1	0	732	1	4	0	176	103	0	3	97
random	6	1	107	1283458	5	4	4	1	0	718	1	4	0	192	104	0	3	97
random	6	1	108	1285150	6	1	1	2	0	927	2	4	0	168	105	0	3	97
random	6	1	109	1286917	5	4	4	1	0	1084	1	4	0	192	106	0	3	97
random	6	1	110	1288320	6	3	3	1	0	1121	1	4	0	184	107	0	3	97
random	6	1	111	1289997	2	2	2	1	0	826	1	4	0	176	108	0	3	97
random	6	1	112	1291842	3	1	1	1	0	748	1	4	0	168	109	0	3	97
random	6	1	113	1293409	1	2	2	1	0	985	1	4	0	176	110	0	3	97
random	6	1	114	1295215	2	3	3	1	0	749	1	4	0	184	111	0	3	97
random	6	1	115	1296758	3	1	1	1	0	1011	1	4	0	168	112	0	3	97
random	6	1	116	1298371	4	4	4	1	0	671	1	4	0	192	113	0	3	97
random	6	1	117	1299552	6	1	0	1	2	0	3	4	0	168	113	0	4	97
random	6	1	118	1302607	5	3	3	1	0	732	1	4	0	184	114	0	4	97
random	6	1	119	1304206	1	4	4	1	0	920	1	4	0	192	115	0	4	97
random	6	1	120	1305757	4	2	2	1	0	879	1	4	0	176	116	0	4	97
fixed	7	1	1	1307732	4	1	1	1	0	754	1	4	0	200	1	0	0	100
fixed	7	1	2	1309117	1	2	2	1	0	928	1	4	0	208	2	0	0	100
fixed	7	1	3	1310786	6	4	4	1	0	666	1	4	0	224	3	0	0	100
fixed	7	1	4	1311822	2	1	1	1	0	718	1	4	0	200	4	0	0	100
fixed	7	1	5	1313134	5	3	3	1	0	766	1	4	0	216	5	0	0	100
fixed	7	1	6	1314702	6	4	4	1	0	803	1	4	0	224	6	0	0	100
fixed	7	1	7	1316406	3	1	1	1	0	683	1	4	0	200	7	0	0	100
fixed	7	1	8	1317815	2	3	3	1	0	672	1	4	0	216	8	0	0	100
fixed	7	1	9	1319106	3	2	2	1	0	417	1	4	0	208	9	0	0	100
fixed	7	1	10	1320368	1	4	4	1	0	803	1	4	0	224	10	0	0	100
fixed	7	1	11	1321580	5	2	2	2	0	1224	2	4	0	208	11	0	0	100
fixed	7	1	12	1323388	4	3	3	1	0	803	1	4	0	216	12	0	0	100
fixed	7	2	1	1325461	4	1	1	1	0	803	1	4	0	200	1	0	0	8
fixed	7	2	2	1326579	1	2	2	1	0	1092	1	4	0	208	2	0	0	14
fixed	7	2	3	1328547	6	4	4	1	0	633	1	4	0	224	3	0	0	20
fixed	7	2	4	1329489	2	1	1	1	0	713	1	4	0	200	4	0	0	25
fixed	7	2	5	1330813	5	3	3	1	0	801	1	4	0	216	5	0	0	29
fixed	7	2	6	1332085	6	4	4	1	0	755	1	4	0	224	6	0	0	33
fixed	7	2	7	1333804	3	1	1	1	0	722	1	4	0	200	7	0	0	37
fixed	7	2	8	1334846	2	3	3	1	0	1087	1	4	0	216	8	0	0	40
fixed	7	2	9	1336955	3	2	2	1	0	485	1	4	0	208	9	0	0	43
fixed	7	2	10	1337819	1	4	4	1	0	832	1	4	0	224	10	0	0	45
fixed	7	2	11	1339084	5	2	2	1	0	1139	1	4	0	208	11	0	0	48
fixed	7	2	12	1340717	4	3	3	1	0	629	1	4	0	216	12	0	0	50
fixed	7	3	1	1342436	4	1	1	1	0	692	1	4	0	200	1	0	0	4
fixed	7	3	2	1344016	1	2	2	1	0	1658	1	4	0	208	2	0	0	8
fixed	7	3	3	1346663	6	4	4	1	0	658	1	4	0	224	3	0	0	11
fixed	7	3	4	1347738	2	1	1	1	0	772	1	4	0	200	4	0	0	14
fixed	7	3	5	1349325	5	3	3	1	0	649	1	4	0	216	5	0	0	17
fixed	7	3	6	1350769	6	4	4	1	0	676	1	4	0	224	6	0	0	20
fixed	7	3	7	1352101	3	1	1	1	0	788	1	4	0	200	7	0	0	23
fixed	7	3	8	1353490	2	3	3	2	0	809	2	4	0	216	8	0	0	25
fixed	7	3	9	1354709	3	2	2	1	0	645	1	4	0	208	9	0	0	27
fixed	7	3	10	1356377	1	4	4	1	0	726	1	4	0	224	10	0	0	29
fixed	7	3	11	1358111	5	2	2	1	0	1021	1	4	0	208	11	0	0	31
fixed	7	3	12	1360083	4	3	3	1	0	841	1	4	0	216	12	0	0	33
fixed	7	4	1	1361600	4	1	1	1	0	1097	1	4	0	200	1	0	0	3
fixed	7	4	2	1363064	1	2	2	2	0	1331	2	4	0	208	2	0	0	5
fixed	7	4	3	1365282	6	4	4	1	0	725	1	4	0	224	3	0	0	8
fixed	7	4	4	1366983	2	1	1	1	0	765	1	4	0	200	4	0	0	10
fixed	7	4	5	1368250	5	3	3	1	0	743	1	4	0	216	5	0	0	12
fixed	7	4	6	1369740	6	4	4	1	0	840	1	4	0	224	6	0	0	14
fixed	7	4	7	1371519	3	1	1	1	0	861	1	4	0	200	7	0	0	16
fixed	7	4	8	1372693	2	3	3	1	0	995	1	4	0	216	8	0	0	18
fixed	7	4	9	1374182	3	2	2	1	0	852	1	4	0	208	9	0	0	20
fixed	7	4	10	1376035	1	4	4	1	0	677	1	4	0	224	10	0	0	22
fixed	7	4	11	1377473	5	2	2	2	0	944	2	4	0	208	11	0	0	23
fixed	7	4	12	1378823	4	3	3	1	0	679	1	4	0	216	12	0	0	25
fixed	7	5	1	1380229	4	1	1	1	0	820	1	4	0	200	1	0	0	2
fixed	7	5	2	1381592	1	2	2	1	0	1363	1	4	0	208	2	0	0	4
fixed	7	5	3	1383320	6	4	4	1	0	713	1	4	0	224	3	0	0	6
fixed	7	5	4	1384403	2	1	1	1	0	1707	1	4	0	200	4	0	0	8
fixed	7	5	5	1387097	5	3	3	1	0	777	1	4	0	216	5	0	0	9
fixed	7	5	6	1388428	6	4	4	1	0	793	1	4	0	224	6	0	0	11
fixed	7	5	7	1390107	3	1	1	1	0	802	1	4	0	200	7	0	0	13
fixed	7	5	8	1391891	2	3	3	1	0	702	1	4	0	216	8	0	0	14
fixed	7	5	9	1393358	3	2	2	2	0	944	2	4	0	208	9	0	0	16
fixed	7	5	10	1395279	1	4	4	1	0	1191	1	4	0	224	10	0	0	17
fixed	7	5	11	1397052	5	2	2	1	0	963	1	4	0	208	11	0	0	19
fixed	7	5	12	1398648	4	3	3	1	0	960	1	4	0	216	12	0	0	20
fixed	7	6	1	1400646	4	1	1	1	0	427	1	4	0	200	1	0	0	2
fixed	7	6	2	1401600	1	2	2	1	0	1011	1	4	0	208	2	0	0	3
fixed	7	6	3	1403073	6	4	4	1	0	644	1	4	0	224	3	0	0	5
fixed	7	6	4	1404494	2	1	1	1	0	752	1	4	0	200	4	0	0	6
fixed	7	6	5	1406073	5	3	3	1	0	693	1	4	0	216	5	0	0	8
fixed	7	6	6	1407360	6	4	4	1	0	751	1	4	0	224	6	0	0	9
fixed	7	6	7	1409058	3	1	1	1	0	799	1	4	0	200	7	0	0	10
fixed	7	6	8	1410685	2	3	3	1	0	898	1	4	0	216	8	0	0	12
fixed	7	6	9	1412121	3	2	2	1	0	517	1	4	0	208	9	0	0	13
fixed	7	6	10	1413405	1	4	4	1	0	719	1	4	0	224	10	0	0	14
fixed	7	6	11	1415142	5	2	2	1	0	846	1	4	0	208	11	0	0	15
fixed	7	6	12	1416798	4	3	3	1	0	679	1	4	0	216	12	0	0	17
fixed	7	7	1	1418423	4	1	1	1	0	722	1	4	0	200	1	0	0	1
fixed	7	7	2	1419921	1	2	2	1	0	1371	1	4	0	208	2	0	0	3
fixed	7	7	3	1421947	6	4	4	2	0	1229	2	4	0	224	3	0	0	4
fixed	7	7	4	1423976	2	1	1	1	0	695	1	4	0	200	4	0	0	5
fixed	7	7	5	1425297	5	3	3	1	0	903	1	4	0	216	5	0	0	6
fixed	7	7	6	1426515	6	4	4	1	0	828	1	4	0	224	6	0	0	8
fixed	7	7	7	1428007	3	1	1	1	0	829	1	4	0	200	7	0	0	9
fixed	7	7	8	1429421	2	3	3	1	0	880	1	4	0	216	8	0	0	10
fixed	7	7	9	1431019	3	2	2	1	0	1365	1	4	0	208	9	0	0	11
fixed	7	7	10	1432985	1	4	4	1	0	682	1	4	0	224	10	0	0	12
fixed	7	7	11	1434549	5	2	2	1	0	679	1	4	0	208	11	0	0	13
fixed	7	7	12	1436016	4	3	3	1	0	857	1	4	0	216	12	0	0	14
fixed	7	8	1	1437436	4	1	1	1	0	709	1	4	0	200	1	0	0	1
fixed	7	8	2	1438635	1	2	2	1	0	1115	1	4	0	208	2	0	0	2
fixed	7	8	3	1440488	6	4	4	1	0	660	1	4	0	224	3	0	0	3
fixed	7	8	4	1441529	2	1	1	1	0	639	1	4	0	200	4	0	0	5
fixed	7	8	5	1442745	5	3	3	1	0	788	1	4	0	216	5	0	0	6
fixed	7	8	6	1444067	6	4	4	1	0	644	1	4	0	224	6	0	0	7
fixed	7	8	7	1445451	3	1	1	1	0	698	1	4	0	200	7	0	0	8
fixed	7	8	8	1446937	2	3	3	1	0	1035	1	4	0	216	8	0	0	9
fixed	7	8	9	1448463	3	2	2	1	0	722	1	4	0	208	9	0	0	10
fixed	7	8	10	1449597	1	4	4	1	0	626	1	4	0	224	10	0	0	11
fixed	7	8	11	1451251	5	2	2	1	0	644	1	4	0	208	11	0	0	12
fixed	7	8	12	1452922	4	3	3	1	0	373	1	4	0	216	12	0	0	13
fixed	7	9	1	1453860	4	1	1	1	0	565	1	4	0	200	1	0	0	1
fixed	7	9	2	1455080	1	2	2	2	0	1826	2	4	0	208	2	0	0	2
fixed	7	9	3	1457947	6	4	4	1	0	785	1	4	0	224	3	0	0	3
fixed	7	9	4	1459160	2	1	1	1	0	869	1	4	0	200	4	0	0	4
fixed	7	9	5	1460449	5	3	3	2	0	1062	2	4	0	216	5	0	0	5
fixed	7	9	6	1461829	6	4	4	1	0	876	1	4	0	224	6	0	0	6
fixed	7	9	7	1463542	3	1	1	1	0	875	1	4	0	200	7	0	0	7
fixed	7	9	8	1465285	2	3	3	1	0	1169	1	4	0	216	8	0	0	8
fixed	7	9	9	1467420	3	2	2	1	0	823	1	4	0	208	9	0	0	9
fixed	7	9	10	1468675	1	4	4	1	0	754	1	4	0	224	10	0	0	9
fixed	7	9	11	1470399	5	2	2	1	0	889	1	4	0	208	11	0	0	10
fixed	7	9	12	1471982	4	3	3	1	0	358	1	4	0	216	12	0	0	11
fixed	7	10	1	1473057	4	1	1	1	0	976	1	4	0	200	1	0	0	1
fixed	7	10	2	1474801	1	2	2	1	0	1198	1	4	0	208	2	0	0	2
fixed	7	10	3	1476756	6	4	4	1	0	684	1	4	0	224	3	0	0	3
fixed	7	10	4	1477837	2	1	1	1	0	926	1	4	0	200	4	0	0	4
fixed	7	10	5	1479782	5	3	3	1	0	868	1	4	0	216	5	0	0	4
fixed	7	10	6	1481528	6	4	4	1	0	825	1	4	0	224	6	0	0	5
fixed	7	10	7	1482690	3	1	1	1	0	800	1	4	0	200	7	0	0	6
fixed	7	10	8	1484466	2	3	3	1	0	789	1	4	0	216	8	0	0	7
fixed	7	10	9	1486055	3	2	2	1	0	866	1	4	0	208	9	0	0	8
fixed	7	10	10	1487520	1	4	4	1	0	668	1	4	0	224	10	0	0	8
fixed	7	10	11	1488711	5	2	2	1	0	705	1	4	0	208	11	0	0	9
fixed	7	10	12	1489792	4	3	3	1	0	852	1	4	0	216	12	0	0	10
