type	block	sequ.	trial	time	Pos.	Color	Button	NumRsp	Resp_1	RT_1	R_Code	Resp_2	RT_2	Trigg.	n_hit	n_inc	n_miss	score_%

random	1	1	1	3873	6	1	1	1	0	677	1	4	0	8	1	0	0	100
random	1	1	2	4990	4	4	4	1	0	806	1	4	0	32	2	0	0	100
random	1	1	3	6418	2	2	2	1	0	953	1	4	0	16	3	0	0	100
random	1	1	4	7666	3	3	3	1	0	684	1	4	0	24	4	0	0	100
random	1	1	5	8898	5	2	2	1	0	961	1	4	0	16	5	0	0	100
random	1	1	6	10510	1	4	4	1	0	612	1	4	0	32	6	0	0	100
random	1	1	7	11708	6	1	1	1	0	570	1	4	0	8	7	0	0	100
random	1	1	8	12780	2	3	3	1	0	812	1	4	0	24	8	0	0	100
random	1	1	9	14329	4	2	2	1	0	851	1	4	0	16	9	0	0	100
random	1	1	10	16121	1	1	1	1	0	790	1	4	0	8	10	0	0	100
random	1	1	11	17312	5	4	4	1	0	580	1	4	0	32	11	0	0	100
random	1	1	12	18768	3	3	3	2	0	1030	2	4	0	24	12	0	0	100
random	1	1	13	20899	5	2	2	1	0	1124	1	4	0	16	13	0	0	100
random	1	1	14	22666	1	4	4	1	0	978	1	4	0	32	14	0	0	100
random	1	1	15	24612	3	1	1	1	0	551	1	4	0	8	15	0	0	100
random	1	1	16	26185	4	3	3	1	0	1028	1	4	0	24	16	0	0	100
random	1	1	17	28229	6	4	4	1	0	718	1	4	0	32	17	0	0	100
random	1	1	18	29518	2	1	1	1	0	543	1	4	0	8	18	0	0	100
random	1	1	19	30999	5	3	3	1	0	816	1	4	0	24	19	0	0	100
random	1	1	20	32239	2	2	2	1	0	796	1	4	0	16	20	0	0	100
random	1	1	21	33610	3	3	3	1	0	866	1	4	0	24	21	0	0	100
random	1	1	22	34782	6	1	1	1	0	656	1	4	0	8	22	0	0	100
random	1	1	23	36010	4	2	2	1	0	1404	1	4	0	16	23	0	0	100
random	1	1	24	38458	1	4	4	1	0	652	1	4	0	32	24	0	0	100
random	1	1	25	40415	4	3	3	1	0	1249	1	4	0	24	25	0	0	100
random	1	1	26	42155	2	1	1	1	0	648	1	4	0	8	26	0	0	100
random	1	1	27	43202	5	2	2	1	0	899	1	4	0	16	27	0	0	100
random	1	1	28	45105	6	4	4	1	0	451	1	4	0	32	28	0	0	100
random	1	1	29	46023	1	3	3	2	0	1860	2	4	0	24	29	0	0	100
random	1	1	30	48816	5	2	2	1	0	821	1	4	0	16	30	0	0	100
random	1	1	31	50044	2	1	1	1	0	618	1	4	0	8	31	0	0	100
random	1	1	32	50979	3	3	3	1	0	762	1	4	0	24	32	0	0	100
random	1	1	33	52328	6	4	4	1	0	865	1	4	0	32	33	0	0	100
random	1	1	34	53607	4	2	2	1	0	963	1	4	0	16	34	0	0	100
random	1	1	35	55308	3	4	4	1	0	707	1	4	0	32	35	0	0	100
random	1	1	36	56784	1	1	1	1	0	685	1	4	0	8	36	0	0	100
random	1	1	37	58225	3	4	4	1	0	743	1	4	0	32	37	0	0	100
random	1	1	38	59730	5	3	3	1	0	1183	1	4	0	24	38	0	0	100
random	1	1	39	61665	6	1	1	1	0	725	1	4	0	8	39	0	0	100
random	1	1	40	63324	1	2	2	1	0	719	1	4	0	16	40	0	0	100
random	1	1	41	64821	2	3	3	1	0	896	1	4	0	24	41	0	0	100
random	1	1	42	66130	4	4	4	1	0	704	1	4	0	32	42	0	0	100
random	1	1	43	67808	1	2	2	1	0	1129	1	4	0	16	43	0	0	100
random	1	1	44	69535	6	3	3	1	0	848	1	4	0	24	44	0	0	100
random	1	1	45	71054	3	1	1	1	0	728	1	4	0	8	45	0	0	100
random	1	1	46	72383	4	4	4	1	0	584	1	4	0	32	46	0	0	100
random	1	1	47	73633	2	2	2	1	0	1091	1	4	0	16	47	0	0	100
random	1	1	48	75021	5	1	1	1	0	936	1	4	0	8	48	0	0	100
random	1	1	49	77188	2	3	3	1	0	1156	1	4	0	24	49	0	0	100
random	1	1	50	79254	3	1	1	1	0	877	1	4	0	8	50	0	0	100
random	1	1	51	80932	1	4	4	1	0	773	1	4	0	32	51	0	0	100
random	1	1	52	82338	5	3	3	1	0	1194	1	4	0	24	52	0	0	100
random	1	1	53	84416	3	2	2	1	0	802	1	4	0	16	53	0	0	100
random	1	1	54	86176	6	4	4	1	0	639	1	4	0	32	54	0	0	100
random	1	1	55	87270	4	2	2	1	0	809	1	4	0	16	55	0	0	100
random	1	1	56	88720	1	1	1	1	0	836	1	4	0	8	56	0	0	100
random	1	1	57	89979	5	4	4	1	0	566	1	4	0	32	57	0	0	100
random	1	1	58	90829	2	1	1	1	0	930	1	4	0	8	58	0	0	100
random	1	1	59	92566	6	2	2	1	0	825	1	4	0	16	59	0	0	100
random	1	1	60	94316	4	3	3	1	0	446	1	4	0	24	60	0	0	100
random	1	1	61	95801	1	2	2	1	0	919	1	4	0	16	61	0	0	100
random	1	1	62	97602	6	4	4	1	0	676	1	4	0	32	62	0	0	100
random	1	1	63	99158	4	1	1	1	0	585	1	4	0	8	63	0	0	100
random	1	1	64	100426	2	2	2	1	0	876	1	4	0	16	64	0	0	100
random	1	1	65	101711	4	3	3	1	0	902	1	4	0	24	65	0	0	100
random	1	1	66	103496	3	1	1	1	0	666	1	4	0	8	66	0	0	100
random	1	1	67	104849	1	3	3	1	0	825	1	4	0	24	67	0	0	100
random	1	1	68	106391	5	4	4	1	0	799	1	4	0	32	68	0	0	100
random	1	1	69	107824	2	2	2	1	0	747	1	4	0	16	69	0	0	100
random	1	1	70	109006	3	1	1	1	0	640	1	4	0	8	70	0	0	100
random	1	1	71	110295	5	4	4	1	0	706	1	4	0	32	71	0	0	100
random	1	1	72	111991	6	3	3	1	0	1010	1	4	0	24	72	0	0	100
random	1	1	73	113645	2	1	1	1	0	708	1	4	0	8	73	0	0	100
random	1	1	74	114911	5	3	3	1	0	887	1	4	0	24	74	0	0	100
random	1	1	75	116674	1	4	4	1	0	652	1	4	0	32	75	0	0	100
random	1	1	76	118189	6	2	2	1	0	819	1	4	0	16	76	0	0	100
random	1	1	77	119989	2	1	1	1	0	679	1	4	0	8	77	0	0	100
random	1	1	78	120991	4	4	4	1	0	749	1	4	0	32	78	0	0	100
random	1	1	79	122134	3	2	2	1	0	740	1	4	0	16	79	0	0	100
random	1	1	80	123440	4	3	3	1	0	1125	1	4	0	24	80	0	0	100
random	1	1	81	125386	1	4	4	1	0	731	1	4	0	32	81	0	0	100
random	1	1	82	126961	5	1	1	1	0	640	1	4	0	8	82	0	0	100
random	1	1	83	128305	3	2	2	1	0	839	1	4	0	16	83	0	0	100
random	1	1	84	129968	6	3	3	1	0	752	1	4	0	24	84	0	0	100
random	1	1	85	131889	3	2	2	1	0	799	1	4	0	16	85	0	0	100
random	1	1	86	133407	1	3	3	1	0	895	1	4	0	24	86	0	0	100
random	1	1	87	134861	4	4	4	1	0	793	1	4	0	32	87	0	0	100
random	1	1	88	136017	2	1	1	1	0	544	1	4	0	8	88	0	0	100
random	1	1	89	137321	6	4	4	1	0	705	1	4	0	32	89	0	0	100
random	1	1	90	138483	3	3	3	1	0	1152	1	4	0	24	90	0	0	100
random	1	1	91	139980	5	4	4	1	0	888	1	4	0	32	91	0	0	100
random	1	1	92	141168	1	2	2	1	0	918	1	4	0	16	92	0	0	100
random	1	1	93	142571	5	1	1	1	0	731	1	4	0	8	93	0	0	100
random	1	1	94	144301	4	3	3	1	0	857	1	4	0	24	94	0	0	100
random	1	1	95	145834	6	1	1	1	0	745	1	4	0	8	95	0	0	100
random	1	1	96	147491	2	2	2	1	0	1130	1	4	0	16	96	0	0	100
random	1	1	97	149700	4	3	3	1	0	973	1	4	0	24	97	0	0	100
random	1	1	98	151137	3	2	2	1	0	888	1	4	0	16	98	0	0	100
random	1	1	99	152848	6	3	0	1	2	0	3	4	0	24	98	0	1	99
random	1	1	100	155802	1	4	4	1	0	626	1	4	0	32	99	0	1	99
random	1	1	101	157333	4	1	1	1	0	713	1	4	0	8	100	0	1	99
random	1	1	102	158524	5	2	2	1	0	855	1	4	0	16	101	0	1	99
random	1	1	103	160318	2	4	4	1	0	667	1	4	0	32	102	0	1	99
random	1	1	104	161790	3	1	1	1	0	765	1	4	0	8	103	0	1	99
random	1	1	105	163098	1	3	3	1	0	1365	1	4	0	24	104	0	1	99
random	1	1	106	165494	2	2	2	1	0	920	1	4	0	16	105	0	1	99
random	1	1	107	167102	5	4	4	1	0	828	1	4	0	32	106	0	1	99
random	1	1	108	168219	6	1	1	1	0	692	1	4	0	8	107	0	1	99
random	1	1	109	169832	5	4	4	1	0	792	1	4	0	32	108	0	1	99
random	1	1	110	171147	6	3	3	1	0	833	1	4	0	24	109	0	1	99
random	1	1	111	172835	2	2	2	1	0	713	1	4	0	16	110	0	1	99
random	1	1	112	174023	3	1	1	1	0	719	1	4	0	8	111	0	1	99
random	1	1	113	175095	1	2	2	1	0	1225	1	4	0	16	112	0	1	99
random	1	1	114	176868	2	3	3	1	0	806	1	4	0	24	113	0	1	99
random	1	1	115	178589	3	1	1	1	0	805	1	4	0	8	114	0	1	99
random	1	1	116	180179	4	4	4	1	0	618	1	4	0	32	115	0	1	99
random	1	1	117	181841	6	1	1	1	0	708	1	4	0	8	116	0	1	99
random	1	1	118	182838	5	3	3	1	0	977	1	4	0	24	117	0	1	99
random	1	1	119	184367	1	4	4	1	0	688	1	4	0	32	118	0	1	99
random	1	1	120	185418	4	2	2	1	0	740	1	4	0	16	119	0	1	99
fixed	2	1	1	187707	4	1	1	1	0	651	1	4	0	40	1	0	0	100
fixed	2	1	2	188841	1	2	2	1	0	1171	1	4	0	48	2	0	0	100
fixed	2	1	3	190571	6	4	4	1	0	618	1	4	0	64	3	0	0	100
fixed	2	1	4	191800	2	1	1	1	0	757	1	4	0	40	4	0	0	100
fixed	2	1	5	193459	5	3	3	1	0	1015	1	4	0	56	5	0	0	100
fixed	2	1	6	194849	6	4	4	1	0	684	1	4	0	64	6	0	0	100
fixed	2	1	7	195908	3	1	1	1	0	736	1	4	0	40	7	0	0	100
fixed	2	1	8	197626	2	3	3	1	0	1087	1	4	0	56	8	0	0	100
fixed	2	1	9	199472	3	2	2	1	0	664	1	4	0	48	9	0	0	100
fixed	2	1	10	201091	1	4	4	1	0	668	1	4	0	64	10	0	0	100
fixed	2	1	11	202728	5	2	2	1	0	766	1	4	0	48	11	0	0	100
fixed	2	1	12	204410	4	3	3	1	0	920	1	4	0	56	12	0	0	100
fixed	2	2	1	206172	4	1	1	1	0	701	1	4	0	40	13	0	0	100
fixed	2	2	2	207342	1	2	2	1	0	827	1	4	0	48	14	0	0	100
fixed	2	2	3	208547	6	4	4	1	0	680	1	4	0	64	15	0	0	100
fixed	2	2	4	209564	2	1	1	1	0	845	1	4	0	40	16	0	0	100
fixed	2	2	5	211184	5	3	3	1	0	944	1	4	0	56	17	0	0	100
fixed	2	2	6	212835	6	4	4	1	0	826	1	4	0	64	18	0	0	100
fixed	2	2	7	214290	3	1	1	1	0	949	1	4	0	40	19	0	0	100
fixed	2	2	8	215727	2	3	3	1	0	1008	1	4	0	56	20	0	0	100
fixed	2	2	9	217138	3	2	2	1	0	740	1	4	0	48	21	0	0	100
fixed	2	2	10	218363	1	4	4	1	0	689	1	4	0	64	22	0	0	100
fixed	2	2	11	219423	5	2	2	1	0	820	1	4	0	48	23	0	0	100
fixed	2	2	12	220694	4	3	3	1	0	846	1	4	0	56	24	0	0	100
fixed	2	3	1	222361	4	1	1	1	0	703	1	4	0	40	25	0	0	100
fixed	2	3	2	223849	1	2	2	1	0	736	1	4	0	48	26	0	0	100
fixed	2	3	3	225051	6	4	4	1	0	629	1	4	0	64	27	0	0	100
fixed	2	3	4	226533	2	1	1	1	0	703	1	4	0	40	28	0	0	100
fixed	2	3	5	228002	5	3	3	1	0	960	1	4	0	56	29	0	0	100
fixed	2	3	6	229482	6	4	4	1	0	666	1	4	0	64	30	0	0	100
fixed	2	3	7	230901	3	1	1	1	0	677	1	4	0	40	31	0	0	100
fixed	2	3	8	232366	2	3	3	1	0	864	1	4	0	56	32	0	0	100
fixed	2	3	9	233785	3	2	2	1	0	1052	1	4	0	48	33	0	0	100
fixed	2	3	10	235270	1	4	4	1	0	717	1	4	0	64	34	0	0	100
fixed	2	3	11	236630	5	2	2	1	0	739	1	4	0	48	35	0	0	100
fixed	2	3	12	238278	4	3	3	1	0	981	1	4	0	56	36	0	0	100
fixed	2	4	1	240322	4	1	1	1	0	734	1	4	0	40	37	0	0	100
fixed	2	4	2	241840	1	2	2	1	0	870	1	4	0	48	38	0	0	100
fixed	2	4	3	243662	6	4	4	1	0	617	1	4	0	64	39	0	0	100
fixed	2	4	4	244587	2	1	1	1	0	842	1	4	0	40	40	0	0	100
fixed	2	4	5	246246	5	3	3	1	0	932	1	4	0	56	41	0	0	100
fixed	2	4	6	247594	6	4	4	1	0	706	1	4	0	64	42	0	0	100
fixed	2	4	7	249044	3	1	1	1	0	709	1	4	0	40	43	0	0	100
fixed	2	4	8	250751	2	3	3	1	0	925	1	4	0	56	44	0	0	100
fixed	2	4	9	252704	3	2	2	1	0	666	1	4	0	48	45	0	0	100
fixed	2	4	10	253799	1	4	4	1	0	588	1	4	0	64	46	0	0	100
fixed	2	4	11	255143	5	2	2	1	0	851	1	4	0	48	47	0	0	100
fixed	2	4	12	256688	4	3	3	1	0	1057	1	4	0	56	48	0	0	100
fixed	2	5	1	258617	4	1	1	1	0	687	1	4	0	40	49	0	0	100
fixed	2	5	2	260202	1	2	2	1	0	988	1	4	0	48	50	0	0	100
fixed	2	5	3	261890	6	4	4	1	0	605	1	4	0	64	51	0	0	100
fixed	2	5	4	263131	2	1	1	1	0	680	1	4	0	40	52	0	0	100
fixed	2	5	5	264319	5	3	3	2	0	926	2	4	0	56	53	0	0	100
fixed	2	5	6	265647	6	4	4	1	0	822	1	4	0	64	54	0	0	100
fixed	2	5	7	267275	3	1	1	1	0	873	1	4	0	40	55	0	0	100
fixed	2	5	8	268988	2	3	3	1	0	865	1	4	0	56	56	0	0	100
fixed	2	5	9	270232	3	2	2	1	0	916	1	4	0	48	57	0	0	100
fixed	2	5	10	271587	1	4	4	1	0	698	1	4	0	64	58	0	0	100
fixed	2	5	11	273125	5	2	2	1	0	785	1	4	0	48	59	0	0	100
fixed	2	5	12	274227	4	3	3	1	0	826	1	4	0	56	60	0	0	100
fixed	2	6	1	275609	4	1	1	1	0	720	1	4	0	40	61	0	0	100
fixed	2	6	2	277287	1	2	2	1	0	945	1	4	0	48	62	0	0	100
fixed	2	6	3	278584	6	4	4	1	0	626	1	4	0	64	63	0	0	100
fixed	2	6	4	279743	2	1	1	1	0	697	1	4	0	40	64	0	0	100
fixed	2	6	5	280906	5	3	3	1	0	839	1	4	0	56	65	0	0	100
fixed	2	6	6	282652	6	4	4	1	0	702	1	4	0	64	66	0	0	100
fixed	2	6	7	283933	3	1	1	1	0	887	1	4	0	40	67	0	0	100
fixed	2	6	8	285128	2	3	3	1	0	1397	1	4	0	56	68	0	0	100
fixed	2	6	9	287290	3	2	2	1	0	825	1	4	0	48	69	0	0	100
fixed	2	6	10	288919	1	4	4	1	0	644	1	4	0	64	70	0	0	100
fixed	2	6	11	289913	5	2	2	1	0	802	1	4	0	48	71	0	0	100
fixed	2	6	12	291110	4	3	3	1	0	960	1	4	0	56	72	0	0	100
fixed	2	7	1	292901	4	1	1	1	0	731	1	4	0	40	73	0	0	100
fixed	2	7	2	294034	1	2	2	1	0	939	1	4	0	48	74	0	0	100
fixed	2	7	3	295793	6	4	4	1	0	577	1	4	0	64	75	0	0	100
fixed	2	7	4	296665	2	1	1	1	0	772	1	4	0	40	76	0	0	100
fixed	2	7	5	298009	5	3	3	1	0	1115	1	4	0	56	77	0	0	100
fixed	2	7	6	299958	6	4	4	1	0	657	1	4	0	64	78	0	0	100
fixed	2	7	7	301449	3	1	1	1	0	674	1	4	0	40	79	0	0	100
fixed	2	7	8	303072	2	3	3	1	0	853	1	4	0	56	80	0	0	100
fixed	2	7	9	304405	3	2	2	1	0	1012	1	4	0	48	81	0	0	100
fixed	2	7	10	305987	1	4	4	1	0	593	1	4	0	64	82	0	0	100
fixed	2	7	11	307205	5	2	2	1	0	853	1	4	0	48	83	0	0	100
fixed	2	7	12	308828	4	3	3	1	0	881	1	4	0	56	84	0	0	100
fixed	2	8	1	310411	4	1	1	1	0	710	1	4	0	40	85	0	0	100
fixed	2	8	2	311819	1	2	2	1	0	834	1	4	0	48	86	0	0	100
fixed	2	8	3	313208	6	4	4	1	0	599	1	4	0	64	87	0	0	100
fixed	2	8	4	314126	2	1	1	1	0	745	1	4	0	40	88	0	0	100
fixed	2	8	5	315308	5	3	3	1	0	1198	1	4	0	56	89	0	0	100
fixed	2	8	6	316810	6	4	4	1	0	847	1	4	0	64	90	0	0	100
fixed	2	8	7	318684	3	1	1	1	0	647	1	4	0	40	91	0	0	100
fixed	2	8	8	320019	2	3	3	1	0	863	1	4	0	56	92	0	0	100
fixed	2	8	9	321555	3	2	2	1	0	694	1	4	0	48	93	0	0	100
fixed	2	8	10	323079	1	4	4	1	0	613	1	4	0	64	94	0	0	100
fixed	2	8	11	324698	5	2	2	1	0	745	1	4	0	48	95	0	0	100
fixed	2	8	12	325796	4	3	3	1	0	842	1	4	0	56	96	0	0	100
fixed	2	9	1	327503	4	1	1	1	0	698	1	4	0	40	97	0	0	100
fixed	2	9	2	328611	1	2	2	1	0	867	1	4	0	48	98	0	0	100
fixed	2	9	3	329916	6	4	4	1	0	628	1	4	0	64	99	0	0	100
fixed	2	9	4	331436	2	1	1	1	0	667	1	4	0	40	100	0	0	100
fixed	2	9	5	332869	5	3	3	1	0	863	1	4	0	56	101	0	0	100
fixed	2	9	6	334662	6	4	4	1	0	723	1	4	0	64	102	0	0	100
fixed	2	9	7	335798	3	1	1	1	0	907	1	4	0	40	103	0	0	100
fixed	2	9	8	337420	2	3	3	1	0	854	1	4	0	56	104	0	0	100
fixed	2	9	9	339207	3	2	2	2	0	1922	2	4	0	48	105	0	0	100
fixed	2	9	10	341837	1	4	4	1	0	699	1	4	0	64	106	0	0	100
fixed	2	9	11	343289	5	2	2	1	0	765	1	4	0	48	107	0	0	100
fixed	2	9	12	344495	4	3	3	1	0	930	1	4	0	56	108	0	0	100
fixed	2	10	1	346182	4	1	1	1	0	715	1	4	0	40	109	0	0	100
fixed	2	10	2	347309	1	2	2	1	0	1019	1	4	0	48	110	0	0	100
fixed	2	10	3	349190	6	4	4	1	0	667	1	4	0	64	111	0	0	100
fixed	2	10	4	350278	2	1	1	1	0	733	1	4	0	40	112	0	0	100
fixed	2	10	5	351334	5	3	3	1	0	841	1	4	0	56	113	0	0	100
fixed	2	10	6	352918	6	4	4	1	0	661	1	4	0	64	114	0	0	100
fixed	2	10	7	353899	3	1	1	1	0	836	1	4	0	40	115	0	0	100
fixed	2	10	8	355176	2	3	3	1	0	1070	1	4	0	56	116	0	0	100
fixed	2	10	9	356642	3	2	2	1	0	800	1	4	0	48	117	0	0	100
fixed	2	10	10	358244	1	4	4	1	0	668	1	4	0	64	118	0	0	100
fixed	2	10	11	359947	5	2	2	1	0	779	1	4	0	48	119	0	0	100
fixed	2	10	12	361183	4	3	3	1	0	1015	1	4	0	56	120	0	0	100
fixed	3	1	1	363505	4	1	1	1	0	869	1	4	0	72	1	0	0	100
fixed	3	1	2	365326	1	2	2	1	0	912	1	4	0	80	2	0	0	100
fixed	3	1	3	366876	6	4	4	1	0	694	1	4	0	96	3	0	0	100
fixed	3	1	4	367902	2	1	1	1	0	1123	1	4	0	72	4	0	0	100
fixed	3	1	5	369675	5	3	3	1	0	824	1	4	0	88	5	0	0	100
fixed	3	1	6	371279	6	4	4	1	0	772	1	4	0	96	6	0	0	100
fixed	3	1	7	372496	3	1	1	1	0	760	1	4	0	72	7	0	0	100
fixed	3	1	8	374027	2	3	3	1	0	920	1	4	0	88	8	0	0	100
fixed	3	1	9	375298	3	2	2	1	0	706	1	4	0	80	9	0	0	100
fixed	3	1	10	376389	1	4	4	1	0	627	1	4	0	96	10	0	0	100
fixed	3	1	11	377394	5	2	2	1	0	849	1	4	0	80	11	0	0	100
fixed	3	1	12	378711	4	3	3	1	0	921	1	4	0	88	12	0	0	100
fixed	3	2	1	380265	4	1	1	1	0	719	1	4	0	72	13	0	0	100
fixed	3	2	2	382011	1	2	2	1	0	1077	1	4	0	80	14	0	0	100
fixed	3	2	3	383815	6	4	4	1	0	657	1	4	0	96	15	0	0	100
fixed	3	2	4	385150	2	1	1	1	0	704	1	4	0	72	16	0	0	100
fixed	3	2	5	386160	5	3	3	1	0	797	1	4	0	88	17	0	0	100
fixed	3	2	6	387695	6	4	4	1	0	677	1	4	0	96	18	0	0	100
fixed	3	2	7	389371	3	1	1	1	0	685	1	4	0	72	19	0	0	100
fixed	3	2	8	390591	2	3	3	1	0	1074	1	4	0	88	20	0	0	100
fixed	3	2	9	391982	3	2	2	1	0	807	1	4	0	80	21	0	0	100
fixed	3	2	10	393340	1	4	4	1	0	670	1	4	0	96	22	0	0	100
fixed	3	2	11	394934	5	2	2	1	0	730	1	4	0	80	23	0	0	100
fixed	3	2	12	396384	4	3	3	1	0	917	1	4	0	88	24	0	0	100
fixed	3	3	1	398410	4	1	1	1	0	702	1	4	0	72	25	0	0	100
fixed	3	3	2	399987	1	2	2	1	0	892	1	4	0	80	26	0	0	100
fixed	3	3	3	401524	6	4	4	1	0	683	1	4	0	96	27	0	0	100
fixed	3	3	4	403082	2	1	1	1	0	673	1	4	0	72	28	0	0	100
fixed	3	3	5	404686	5	3	3	1	0	1029	1	4	0	88	29	0	0	100
fixed	3	3	6	406205	6	4	4	1	0	717	1	4	0	96	30	0	0	100
fixed	3	3	7	407763	3	1	1	1	0	834	1	4	0	72	31	0	0	100
fixed	3	3	8	409575	2	3	3	1	0	1381	1	4	0	88	32	0	0	100
fixed	3	3	9	411653	3	2	2	1	0	926	1	4	0	80	33	0	0	100
fixed	3	3	10	413582	1	4	4	1	0	764	1	4	0	96	34	0	0	100
fixed	3	3	11	415082	5	2	2	1	0	788	1	4	0	80	35	0	0	100
fixed	3	3	12	416326	4	3	3	2	0	1048	2	4	0	88	36	0	0	100
fixed	3	4	1	418409	4	1	1	1	0	799	1	4	0	72	37	0	0	100
fixed	3	4	2	420202	1	2	2	1	0	1108	1	4	0	80	38	0	0	100
fixed	3	4	3	422137	6	4	4	1	0	634	1	4	0	96	39	0	0	100
fixed	3	4	4	423225	2	1	1	1	0	940	1	4	0	72	40	0	0	100
fixed	3	4	5	425026	5	3	3	1	0	831	1	4	0	88	41	0	0	100
fixed	3	4	6	426334	6	4	4	1	0	744	1	4	0	96	42	0	0	100
fixed	3	4	7	427964	3	1	1	1	0	619	1	4	0	72	43	0	0	100
fixed	3	4	8	429361	2	3	3	1	0	896	1	4	0	88	44	0	0	100
fixed	3	4	9	430882	3	2	2	1	0	1119	1	4	0	80	45	0	0	100
fixed	3	4	10	432373	1	4	4	1	0	680	1	4	0	96	46	0	0	100
fixed	3	4	11	433519	5	2	2	1	0	912	1	4	0	80	47	0	0	100
fixed	3	4	12	435253	4	3	3	1	0	814	1	4	0	88	48	0	0	100
fixed	3	5	1	436771	4	1	1	1	0	702	1	4	0	72	49	0	0	100
fixed	3	5	2	438041	1	2	2	1	0	984	1	4	0	80	50	0	0	100
fixed	3	5	3	439516	6	4	4	1	0	674	1	4	0	96	51	0	0	100
fixed	3	5	4	440769	2	1	1	1	0	700	1	4	0	72	52	0	0	100
fixed	3	5	5	442272	5	3	3	1	0	845	1	4	0	88	53	0	0	100
fixed	3	5	6	444089	6	4	4	1	0	720	1	4	0	96	54	0	0	100
fixed	3	5	7	445502	3	1	1	1	0	692	1	4	0	72	55	0	0	100
fixed	3	5	8	446991	2	3	3	1	0	925	1	4	0	88	56	0	0	100
fixed	3	5	9	448850	3	2	2	1	0	990	1	4	0	80	57	0	0	100
fixed	3	5	10	450365	1	4	4	1	0	622	1	4	0	96	58	0	0	100
fixed	3	5	11	451801	5	2	2	1	0	1057	1	4	0	80	59	0	0	100
fixed	3	5	12	453540	4	3	3	1	0	904	1	4	0	88	60	0	0	100
fixed	3	6	1	455182	4	1	1	1	0	762	1	4	0	72	61	0	0	100
fixed	3	6	2	456581	1	2	2	1	0	1007	1	4	0	80	62	0	0	100
fixed	3	6	3	457957	6	4	4	1	0	780	1	4	0	96	63	0	0	100
fixed	3	6	4	459543	2	1	1	1	0	753	1	4	0	72	64	0	0	100
fixed	3	6	5	461219	5	3	3	1	0	938	1	4	0	88	65	0	0	100
fixed	3	6	6	462632	6	4	4	1	0	694	1	4	0	96	66	0	0	100
fixed	3	6	7	464317	3	1	1	1	0	887	1	4	0	72	67	0	0	100
fixed	3	6	8	466148	2	3	3	1	0	938	1	4	0	88	68	0	0	100
fixed	3	6	9	468008	3	2	2	1	0	1659	1	4	0	80	69	0	0	100
fixed	3	6	10	470666	1	4	4	1	0	722	1	4	0	96	70	0	0	100
fixed	3	6	11	471963	5	2	2	1	0	923	1	4	0	80	71	0	0	100
fixed	3	6	12	473252	4	3	3	1	0	869	1	4	0	88	72	0	0	100
fixed	3	7	1	475299	4	1	1	1	0	854	1	4	0	72	73	0	0	100
fixed	3	7	2	477009	1	2	2	1	0	1134	1	4	0	80	74	0	0	100
fixed	3	7	3	478810	6	4	4	1	0	593	1	4	0	96	75	0	0	100
fixed	3	7	4	480150	2	1	1	1	0	649	1	4	0	72	76	0	0	100
fixed	3	7	5	481489	5	3	3	2	0	1024	2	4	0	88	77	0	0	100
fixed	3	7	6	483029	6	4	4	1	0	663	1	4	0	96	78	0	0	100
fixed	3	7	7	484359	3	1	1	1	0	774	1	4	0	72	79	0	0	100
fixed	3	7	8	485650	2	3	3	1	0	1200	1	4	0	88	80	0	0	100
fixed	3	7	9	487225	3	2	2	1	0	717	1	4	0	80	81	0	0	100
fixed	3	7	10	488308	1	4	4	1	0	647	1	4	0	96	82	0	0	100
fixed	3	7	11	489467	5	2	2	1	0	814	1	4	0	80	83	0	0	100
fixed	3	7	12	491208	4	3	3	1	0	1108	1	4	0	88	84	0	0	100
fixed	3	8	1	493142	4	1	1	1	0	722	1	4	0	72	85	0	0	100
fixed	3	8	2	494711	1	2	2	1	0	1223	1	4	0	80	86	0	0	100
fixed	3	8	3	496654	6	4	4	1	0	693	1	4	0	96	87	0	0	100
fixed	3	8	4	498133	2	1	1	1	0	1247	1	4	0	72	88	0	0	100
fixed	3	8	5	499755	5	3	3	1	0	818	1	4	0	88	89	0	0	100
fixed	3	8	6	501497	6	4	4	1	0	688	1	4	0	96	90	0	0	100
fixed	3	8	7	502531	3	1	1	1	0	1060	1	4	0	72	91	0	0	100
fixed	3	8	8	504436	2	3	3	1	0	948	1	4	0	88	92	0	0	100
fixed	3	8	9	506088	3	2	2	1	0	846	1	4	0	80	93	0	0	100
fixed	3	8	10	507687	1	4	4	1	0	642	1	4	0	96	94	0	0	100
fixed	3	8	11	509176	5	2	2	1	0	835	1	4	0	80	95	0	0	100
fixed	3	8	12	510635	4	3	3	1	0	845	1	4	0	88	96	0	0	100
fixed	3	9	1	512423	4	1	1	1	0	729	1	4	0	72	97	0	0	100
fixed	3	9	2	513995	1	2	2	1	0	935	1	4	0	80	98	0	0	100
fixed	3	9	3	515475	6	4	4	1	0	657	1	4	0	96	99	0	0	100
fixed	3	9	4	516567	2	1	1	1	0	1018	1	4	0	72	100	0	0	100
fixed	3	9	5	517982	5	3	3	1	0	790	1	4	0	88	101	0	0	100
fixed	3	9	6	519735	6	4	4	1	0	652	1	4	0	96	102	0	0	100
fixed	3	9	7	521059	3	1	1	1	0	667	1	4	0	72	103	0	0	100
fixed	3	9	8	522091	2	3	3	1	0	960	1	4	0	88	104	0	0	100
fixed	3	9	9	523540	3	2	2	1	0	715	1	4	0	80	105	0	0	100
fixed	3	9	10	524743	1	4	4	1	0	640	1	4	0	96	106	0	0	100
fixed	3	9	11	526162	5	2	2	1	0	836	1	4	0	80	107	0	0	100
fixed	3	9	12	527386	4	3	3	1	0	904	1	4	0	88	108	0	0	100
fixed	3	10	1	529498	4	1	1	1	0	726	1	4	0	72	109	0	0	100
fixed	3	10	2	530667	1	2	2	1	0	1013	1	4	0	80	110	0	0	100
fixed	3	10	3	532675	6	4	4	1	0	672	1	4	0	96	111	0	0	100
fixed	3	10	4	533833	2	1	1	1	0	775	1	4	0	72	112	0	0	100
fixed	3	10	5	535368	5	3	3	1	0	910	1	4	0	88	113	0	0	100
fixed	3	10	6	537172	6	4	4	1	0	721	1	4	0	96	114	0	0	100
fixed	3	10	7	538698	3	1	1	1	0	489	1	4	0	72	115	0	0	100
fixed	3	10	8	539743	2	3	3	1	0	1148	1	4	0	88	116	0	0	100
fixed	3	10	9	541661	3	2	2	1	0	491	1	4	0	80	117	0	0	100
fixed	3	10	10	542548	1	4	4	1	0	686	1	4	0	96	118	0	0	100
fixed	3	10	11	544057	5	2	2	1	0	766	1	4	0	80	119	0	0	100
fixed	3	10	12	545257	4	3	3	1	0	995	1	4	0	88	120	0	0	100
fixed	4	1	1	672948	4	1	1	1	0	1090	1	4	0	104	1	0	0	100
fixed	4	1	2	674714	1	2	2	1	0	976	1	4	0	112	2	0	0	100
fixed	4	1	3	676604	6	4	4	1	0	736	1	4	0	128	3	0	0	100
fixed	4	1	4	678346	2	1	1	1	0	750	1	4	0	104	4	0	0	100
fixed	4	1	5	679978	5	3	3	1	0	897	1	4	0	120	5	0	0	100
fixed	4	1	6	681780	6	4	4	1	0	701	1	4	0	128	6	0	0	100
fixed	4	1	7	683226	3	1	1	1	0	759	1	4	0	104	7	0	0	100
fixed	4	1	8	684636	2	3	3	1	0	1252	1	4	0	120	8	0	0	100
fixed	4	1	9	686385	3	2	2	1	0	729	1	4	0	112	9	0	0	100
fixed	4	1	10	687495	1	4	4	1	0	627	1	4	0	128	10	0	0	100
fixed	4	1	11	689038	5	2	2	1	0	849	1	4	0	112	11	0	0	100
fixed	4	1	12	690836	4	3	3	1	0	997	1	4	0	120	12	0	0	100
fixed	4	2	1	692749	4	1	1	1	0	708	1	4	0	104	13	0	0	100
fixed	4	2	2	694319	1	2	2	1	0	937	1	4	0	112	14	0	0	100
fixed	4	2	3	695885	6	4	4	1	0	647	1	4	0	128	15	0	0	100
fixed	4	2	4	697122	2	1	1	1	0	819	1	4	0	104	16	0	0	100
fixed	4	2	5	698829	5	3	3	1	0	866	1	4	0	120	17	0	0	100
fixed	4	2	6	700151	6	4	4	1	0	690	1	4	0	128	18	0	0	100
fixed	4	2	7	701349	3	1	1	1	0	808	1	4	0	104	19	0	0	100
fixed	4	2	8	702786	2	3	3	1	0	1035	1	4	0	120	20	0	0	100
fixed	4	2	9	704819	3	2	2	1	0	789	1	4	0	112	21	0	0	100
fixed	4	2	10	706193	1	4	4	1	0	715	1	4	0	128	22	0	0	100
fixed	4	2	11	707710	5	2	2	1	0	810	1	4	0	112	23	0	0	100
fixed	4	2	12	709035	4	3	3	1	0	882	1	4	0	120	24	0	0	100
fixed	4	3	1	710876	4	1	1	1	0	708	1	4	0	104	25	0	0	100
fixed	4	3	2	712053	1	2	2	1	0	1002	1	4	0	112	26	0	0	100
fixed	4	3	3	713458	6	4	4	1	0	679	1	4	0	128	27	0	0	100
fixed	4	3	4	715080	2	1	1	1	0	706	1	4	0	104	28	0	0	100
fixed	4	3	5	716803	5	3	3	1	0	889	1	4	0	120	29	0	0	100
fixed	4	3	6	718508	6	4	4	1	0	721	1	4	0	128	30	0	0	100
fixed	4	3	7	719877	3	1	1	1	0	671	1	4	0	104	31	0	0	100
fixed	4	3	8	721307	2	3	3	1	0	898	1	4	0	120	32	0	0	100
fixed	4	3	9	722748	3	2	2	1	0	653	1	4	0	112	33	0	0	100
fixed	4	3	10	724008	1	4	4	1	0	704	1	4	0	128	34	0	0	100
fixed	4	3	11	725275	5	2	2	1	0	755	1	4	0	112	35	0	0	100
fixed	4	3	12	726979	4	3	3	1	0	1114	1	4	0	120	36	0	0	100
fixed	4	4	1	728937	4	1	1	1	0	687	1	4	0	104	37	0	0	100
fixed	4	4	2	730010	1	2	2	1	0	858	1	4	0	112	38	0	0	100
fixed	4	4	3	731335	6	4	4	1	0	706	1	4	0	128	39	0	0	100
fixed	4	4	4	732441	2	1	1	1	0	763	1	4	0	104	40	0	0	100
fixed	4	4	5	733638	5	3	3	1	0	976	1	4	0	120	41	0	0	100
fixed	4	4	6	735045	6	4	4	1	0	805	1	4	0	128	42	0	0	100
fixed	4	4	7	736845	3	1	1	1	0	864	1	4	0	104	43	0	0	100
fixed	4	4	8	738710	2	3	3	1	0	1177	1	4	0	120	44	0	0	100
fixed	4	4	9	740784	3	2	2	1	0	793	1	4	0	112	45	0	0	100
fixed	4	4	10	742612	1	4	4	1	0	796	1	4	0	128	46	0	0	100
fixed	4	4	11	743801	5	2	2	1	0	770	1	4	0	112	47	0	0	100
fixed	4	4	12	745097	4	3	3	1	0	867	1	4	0	120	48	0	0	100
fixed	4	5	1	746514	4	1	1	1	0	742	1	4	0	104	49	0	0	100
fixed	4	5	2	748237	1	2	2	1	0	1086	1	4	0	112	50	0	0	100
fixed	4	5	3	749812	6	4	4	1	0	651	1	4	0	128	51	0	0	100
fixed	4	5	4	751279	2	1	1	1	0	693	1	4	0	104	52	0	0	100
fixed	4	5	5	752903	5	3	3	1	0	776	1	4	0	120	53	0	0	100
fixed	4	5	6	754054	6	4	4	1	0	759	1	4	0	128	54	0	0	100
fixed	4	5	7	755434	3	1	1	1	0	789	1	4	0	104	55	0	0	100
fixed	4	5	8	757135	2	3	3	1	0	1077	1	4	0	120	56	0	0	100
fixed	4	5	9	758888	3	2	2	1	0	1083	1	4	0	112	57	0	0	100
fixed	4	5	10	760929	1	4	4	1	0	668	1	4	0	128	58	0	0	100
fixed	4	5	11	762083	5	2	2	1	0	899	1	4	0	112	59	0	0	100
fixed	4	5	12	763738	4	3	3	1	0	941	1	4	0	120	60	0	0	100
fixed	4	6	1	765377	4	1	1	1	0	600	1	4	0	104	61	0	0	100
fixed	4	6	2	766452	1	2	2	1	0	1034	1	4	0	112	62	0	0	100
fixed	4	6	3	768080	6	4	4	1	0	678	1	4	0	128	63	0	0	100
fixed	4	6	4	769572	2	1	1	1	0	646	1	4	0	104	64	0	0	100
fixed	4	6	5	770739	5	3	3	1	0	964	1	4	0	120	65	0	0	100
fixed	4	6	6	772613	6	4	4	1	0	677	1	4	0	128	66	0	0	100
fixed	4	6	7	774146	3	1	1	1	0	692	1	4	0	104	67	0	0	100
fixed	4	6	8	775764	2	3	3	1	0	976	1	4	0	120	68	0	0	100
fixed	4	6	9	777626	3	2	0	0	2	0	3	4	0	112	68	0	1	99
fixed	4	6	10	780446	1	4	4	1	0	1057	1	4	0	128	69	0	1	99
fixed	4	6	11	782221	5	2	2	1	0	894	1	4	0	112	70	0	1	99
fixed	4	6	12	783783	4	3	3	1	0	1396	1	4	0	120	71	0	1	99
fixed	4	7	1	786161	4	1	1	1	0	727	1	4	0	104	72	0	1	99
fixed	4	7	2	787643	1	2	2	1	0	761	1	4	0	112	73	0	1	99
fixed	4	7	3	789334	6	4	4	1	0	889	1	4	0	128	74	0	1	99
fixed	4	7	4	790578	2	1	1	1	0	932	1	4	0	104	75	0	1	99
fixed	4	7	5	792064	5	3	3	1	0	813	1	4	0	120	76	0	1	99
fixed	4	7	6	793506	6	4	4	1	0	673	1	4	0	128	77	0	1	99
fixed	4	7	7	794822	3	1	1	1	0	729	1	4	0	104	78	0	1	99
fixed	4	7	8	795892	2	3	3	1	0	1067	1	4	0	120	79	0	1	99
fixed	4	7	9	797314	3	2	0	1	2	0	3	4	0	112	79	0	2	98
fixed	4	7	10	800808	1	4	4	1	0	723	1	4	0	128	80	0	2	98
fixed	4	7	11	802244	5	2	2	1	0	822	1	4	0	112	81	0	2	98
fixed	4	7	12	803791	4	3	3	1	0	885	1	4	0	120	82	0	2	98
fixed	4	8	1	805826	4	1	1	1	0	766	1	4	0	104	83	0	2	98
fixed	4	8	2	806954	1	2	2	1	0	1087	1	4	0	112	84	0	2	98
fixed	4	8	3	808665	6	4	4	1	0	790	1	4	0	128	85	0	2	98
fixed	4	8	4	810358	2	1	1	1	0	695	1	4	0	104	86	0	2	98
fixed	4	8	5	811429	5	3	3	1	0	969	1	4	0	120	87	0	2	98
fixed	4	8	6	812896	6	4	4	1	0	835	1	4	0	128	88	0	2	98
fixed	4	8	7	814693	3	1	1	1	0	807	1	4	0	104	89	0	2	98
fixed	4	8	8	816422	2	3	3	1	0	1070	1	4	0	120	90	0	2	98
fixed	4	8	9	818014	3	2	2	1	0	1066	1	4	0	112	91	0	2	98
fixed	4	8	10	819860	1	4	4	1	0	676	1	4	0	128	92	0	2	98
fixed	4	8	11	821484	5	2	2	1	0	1191	1	4	0	112	93	0	2	98
fixed	4	8	12	823656	4	3	3	1	0	1051	1	4	0	120	94	0	2	98
fixed	4	9	1	825909	4	1	1	1	0	940	1	4	0	104	95	0	2	98
fixed	4	9	2	827813	1	2	2	1	0	843	1	4	0	112	96	0	2	98
fixed	4	9	3	829283	6	4	4	1	0	653	1	4	0	128	97	0	2	98
fixed	4	9	4	830291	2	1	1	1	0	770	1	4	0	104	98	0	2	98
fixed	4	9	5	831480	5	3	3	1	0	896	1	4	0	120	99	0	2	98
fixed	4	9	6	833100	6	4	4	1	0	723	1	4	0	128	100	0	2	98
fixed	4	9	7	834762	3	1	1	1	0	773	1	4	0	104	101	0	2	98
fixed	4	9	8	835910	2	3	3	1	0	1108	1	4	0	120	102	0	2	98
fixed	4	9	9	837683	3	2	2	1	0	625	1	4	0	112	103	0	2	98
fixed	4	9	10	839015	1	4	4	1	0	617	1	4	0	128	104	0	2	98
fixed	4	9	11	840207	5	2	2	1	0	751	1	4	0	112	105	0	2	98
fixed	4	9	12	841291	4	3	3	1	0	881	1	4	0	120	106	0	2	98
fixed	4	10	1	842934	4	1	1	1	0	739	1	4	0	104	107	0	2	98
fixed	4	10	2	844560	1	2	2	1	0	806	1	4	0	112	108	0	2	98
fixed	4	10	3	846395	6	4	4	1	0	872	1	4	0	128	109	0	2	98
fixed	4	10	4	847697	2	1	1	1	0	881	1	4	0	104	110	0	2	98
fixed	4	10	5	849581	5	3	3	1	0	849	1	4	0	120	111	0	2	98
fixed	4	10	6	850931	6	4	4	1	0	872	1	4	0	128	112	0	2	98
fixed	4	10	7	852367	3	1	1	1	0	1323	1	4	0	104	113	0	2	98
fixed	4	10	8	854211	2	3	3	1	0	1189	1	4	0	120	114	0	2	98
fixed	4	10	9	856326	3	2	2	1	0	692	1	4	0	112	115	0	2	98
fixed	4	10	10	857857	1	4	4	1	0	643	1	4	0	128	116	0	2	98
fixed	4	10	11	859264	5	2	2	1	0	735	1	4	0	112	117	0	2	98
fixed	4	10	12	860564	4	3	3	1	0	952	1	4	0	120	118	0	2	98
fixed	5	1	1	862446	4	1	1	1	0	520	1	4	0	136	1	0	0	100
fixed	5	1	2	863910	1	2	2	1	0	866	1	4	0	144	2	0	0	100
fixed	5	1	3	865134	6	4	4	1	0	623	1	4	0	160	3	0	0	100
fixed	5	1	4	866412	2	1	1	1	0	760	1	4	0	136	4	0	0	100
fixed	5	1	5	867926	5	3	3	1	0	912	1	4	0	152	5	0	0	100
fixed	5	1	6	869145	6	4	4	1	0	749	1	4	0	160	6	0	0	100
fixed	5	1	7	870773	3	1	1	1	0	728	1	4	0	136	7	0	0	100
fixed	5	1	8	872508	2	3	3	1	0	1230	1	4	0	152	8	0	0	100
fixed	5	1	9	874772	3	2	2	1	0	590	1	4	0	144	9	0	0	100
fixed	5	1	10	876281	1	4	4	1	0	662	1	4	0	160	10	0	0	100
fixed	5	1	11	877573	5	2	2	1	0	1088	1	4	0	144	11	0	0	100
fixed	5	1	12	879528	4	3	3	2	0	829	2	4	0	152	12	0	0	100
fixed	5	2	1	881412	4	1	1	1	0	669	1	4	0	136	13	0	0	100
fixed	5	2	2	882781	1	2	2	1	0	875	1	4	0	144	14	0	0	100
fixed	5	2	3	884241	6	4	4	1	0	653	1	4	0	160	15	0	0	100
fixed	5	2	4	885369	2	1	1	1	0	733	1	4	0	136	16	0	0	100
fixed	5	2	5	886463	5	3	3	1	0	999	1	4	0	152	17	0	0	100
fixed	5	2	6	887944	6	4	4	1	0	864	1	4	0	160	18	0	0	100
fixed	5	2	7	889187	3	1	1	1	0	1004	1	4	0	136	19	0	0	100
fixed	5	2	8	890755	2	3	3	1	0	1001	1	4	0	152	20	0	0	100
fixed	5	2	9	892276	3	2	2	1	0	953	1	4	0	144	21	0	0	100
fixed	5	2	10	893557	1	4	4	1	0	642	1	4	0	160	22	0	0	100
fixed	5	2	11	894890	5	2	2	1	0	890	1	4	0	144	23	0	0	100
fixed	5	2	12	896108	4	3	3	1	0	703	1	4	0	152	24	0	0	100
fixed	5	3	1	897367	4	1	1	1	0	697	1	4	0	136	25	0	0	100
fixed	5	3	2	898983	1	2	2	1	0	853	1	4	0	144	26	0	0	100
fixed	5	3	3	900431	6	4	4	1	0	656	1	4	0	160	27	0	0	100
fixed	5	3	4	902015	2	1	1	1	0	716	1	4	0	136	28	0	0	100
fixed	5	3	5	903392	5	3	3	1	0	722	1	4	0	152	29	0	0	100
fixed	5	3	6	905143	6	4	4	1	0	688	1	4	0	160	30	0	0	100
fixed	5	3	7	906569	3	1	1	1	0	708	1	4	0	136	31	0	0	100
fixed	5	3	8	907656	2	3	3	1	0	958	1	4	0	152	32	0	0	100
fixed	5	3	9	909397	3	2	2	1	0	660	1	4	0	144	33	0	0	100
fixed	5	3	10	910491	1	4	4	1	0	630	1	4	0	160	34	0	0	100
fixed	5	3	11	911975	5	2	2	1	0	775	1	4	0	144	35	0	0	100
fixed	5	3	12	913319	4	3	3	1	0	1222	1	4	0	152	36	0	0	100
fixed	5	4	1	915445	4	1	1	1	0	763	1	4	0	136	37	0	0	100
fixed	5	4	2	916657	1	2	2	1	0	1040	1	4	0	144	38	0	0	100
fixed	5	4	3	918379	6	4	4	1	0	679	1	4	0	160	39	0	0	100
fixed	5	4	4	920021	2	1	1	1	0	737	1	4	0	136	40	0	0	100
fixed	5	4	5	921323	5	3	3	1	0	835	1	4	0	152	41	0	0	100
fixed	5	4	6	923015	6	4	4	1	0	731	1	4	0	160	42	0	0	100
fixed	5	4	7	924461	3	1	1	1	0	822	1	4	0	136	43	0	0	100
fixed	5	4	8	926305	2	3	3	1	0	967	1	4	0	152	44	0	0	100
fixed	5	4	9	928092	3	2	2	1	0	868	1	4	0	144	45	0	0	100
fixed	5	4	10	929287	1	4	4	1	0	649	1	4	0	160	46	0	0	100
fixed	5	4	11	930468	5	2	2	1	0	1263	1	4	0	144	47	0	0	100
fixed	5	4	12	932564	4	3	3	1	0	959	1	4	0	152	48	0	0	100
fixed	5	5	1	934592	4	1	1	1	0	664	1	4	0	136	49	0	0	100
fixed	5	5	2	936246	1	2	2	1	0	1282	1	4	0	144	50	0	0	100
fixed	5	5	3	938198	6	4	4	1	0	824	1	4	0	160	51	0	0	100
fixed	5	5	4	939542	2	1	1	1	0	911	1	4	0	136	52	0	0	100
fixed	5	5	5	941112	5	3	3	1	0	940	1	4	0	152	53	0	0	100
fixed	5	5	6	942419	6	4	4	1	0	1661	1	4	0	160	54	0	0	100
fixed	5	5	7	944400	3	1	1	1	0	1001	1	4	0	136	55	0	0	100
fixed	5	5	8	945937	2	3	3	1	0	1152	1	4	0	152	56	0	0	100
fixed	5	5	9	948038	3	2	2	1	0	783	1	4	0	144	57	0	0	100
fixed	5	5	10	949451	1	4	4	1	0	683	1	4	0	160	58	0	0	100
fixed	5	5	11	950825	5	2	2	1	0	873	1	4	0	144	59	0	0	100
fixed	5	5	12	952345	4	3	3	1	0	857	1	4	0	152	60	0	0	100
fixed	5	6	1	954207	4	1	1	1	0	770	1	4	0	136	61	0	0	100
fixed	5	6	2	955601	1	2	2	1	0	951	1	4	0	144	62	0	0	100
fixed	5	6	3	956847	6	4	4	1	0	666	1	4	0	160	63	0	0	100
fixed	5	6	4	958485	2	1	1	1	0	996	1	4	0	136	64	0	0	100
fixed	5	6	5	960069	5	3	3	1	0	737	1	4	0	152	65	0	0	100
fixed	5	6	6	961439	6	4	4	1	0	735	1	4	0	160	66	0	0	100
fixed	5	6	7	962564	3	1	1	1	0	832	1	4	0	136	67	0	0	100
fixed	5	6	8	964222	2	3	3	1	0	1218	1	4	0	152	68	0	0	100
fixed	5	6	9	966048	3	2	2	1	0	653	1	4	0	144	69	0	0	100
fixed	5	6	10	967147	1	4	4	1	0	694	1	4	0	160	70	0	0	100
fixed	5	6	11	968690	5	2	2	1	0	764	1	4	0	144	71	0	0	100
fixed	5	6	12	970486	4	3	3	1	0	984	1	4	0	152	72	0	0	100
fixed	5	7	1	972234	4	1	1	1	0	694	1	4	0	136	73	0	0	100
fixed	5	7	2	973775	1	2	2	1	0	749	1	4	0	144	74	0	0	100
fixed	5	7	3	975311	6	4	4	1	0	692	1	4	0	160	75	0	0	100
fixed	5	7	4	976764	2	1	1	1	0	670	1	4	0	136	76	0	0	100
fixed	5	7	5	978324	5	3	3	1	0	916	1	4	0	152	77	0	0	100
fixed	5	7	6	979587	6	4	4	1	0	719	1	4	0	160	78	0	0	100
fixed	5	7	7	980668	3	1	1	1	0	713	1	4	0	136	79	0	0	100
fixed	5	7	8	982374	2	3	3	1	0	872	1	4	0	152	80	0	0	100
fixed	5	7	9	983941	3	2	2	1	0	927	1	4	0	144	81	0	0	100
fixed	5	7	10	985404	1	4	4	1	0	712	1	4	0	160	82	0	0	100
fixed	5	7	11	986580	5	2	2	1	0	1047	1	4	0	144	83	0	0	100
fixed	5	7	12	987964	4	3	3	1	0	764	1	4	0	152	84	0	0	100
fixed	5	8	1	989293	4	1	1	1	0	627	1	4	0	136	85	0	0	100
fixed	5	8	2	990839	1	2	2	1	0	770	1	4	0	144	86	0	0	100
fixed	5	8	3	991934	6	4	4	1	0	684	1	4	0	160	87	0	0	100
fixed	5	8	4	993385	2	1	1	1	0	662	1	4	0	136	88	0	0	100
fixed	5	8	5	994372	5	3	3	1	0	1172	1	4	0	152	89	0	0	100
fixed	5	8	6	996092	6	4	4	1	0	667	1	4	0	160	90	0	0	100
fixed	5	8	7	997166	3	1	1	1	0	662	1	4	0	136	91	0	0	100
fixed	5	8	8	998554	2	3	3	1	0	891	1	4	0	152	92	0	0	100
fixed	5	8	9	1000155	3	2	2	1	0	768	1	4	0	144	93	0	0	100
fixed	5	8	10	1001916	1	4	4	1	0	653	1	4	0	160	94	0	0	100
fixed	5	8	11	1003091	5	2	2	1	0	827	1	4	0	144	95	0	0	100
fixed	5	8	12	1004693	4	3	3	1	0	888	1	4	0	152	96	0	0	100
fixed	5	9	1	1006752	4	1	1	1	0	736	1	4	0	136	97	0	0	100
fixed	5	9	2	1008201	1	2	2	1	0	803	1	4	0	144	98	0	0	100
fixed	5	9	3	1009885	6	4	4	1	0	660	1	4	0	160	99	0	0	100
fixed	5	9	4	1011186	2	1	1	1	0	596	1	4	0	136	100	0	0	100
fixed	5	9	5	1012133	5	3	3	2	0	1188	2	4	0	152	101	0	0	100
fixed	5	9	6	1014017	6	4	4	1	0	660	1	4	0	160	102	0	0	100
fixed	5	9	7	1015136	3	1	1	1	0	789	1	4	0	136	103	0	0	100
fixed	5	9	8	1016410	2	3	3	1	0	1039	1	4	0	152	104	0	0	100
fixed	5	9	9	1018394	3	2	2	1	0	803	1	4	0	144	105	0	0	100
fixed	5	9	10	1019611	1	4	4	1	0	744	1	4	0	160	106	0	0	100
fixed	5	9	11	1020688	5	2	2	1	0	1042	1	4	0	144	107	0	0	100
fixed	5	9	12	1022255	4	3	3	1	0	1287	1	4	0	152	108	0	0	100
fixed	5	10	1	1024262	4	1	1	1	0	618	1	4	0	136	109	0	0	100
fixed	5	10	2	1025529	1	2	2	1	0	781	1	4	0	144	110	0	0	100
fixed	5	10	3	1027131	6	4	4	1	0	689	1	4	0	160	111	0	0	100
fixed	5	10	4	1028619	2	1	1	1	0	1058	1	4	0	136	112	0	0	100
fixed	5	10	5	1030204	5	3	3	1	0	1159	1	4	0	152	113	0	0	100
fixed	5	10	6	1031940	6	4	4	1	0	886	1	4	0	160	114	0	0	100
fixed	5	10	7	1033320	3	1	1	1	0	1011	1	4	0	136	115	0	0	100
fixed	5	10	8	1035345	2	3	3	1	0	1157	1	4	0	152	116	0	0	100
fixed	5	10	9	1036905	3	2	2	1	0	1067	1	4	0	144	117	0	0	100
fixed	5	10	10	1038488	1	4	4	1	0	696	1	4	0	160	118	0	0	100
fixed	5	10	11	1039481	5	2	2	1	0	1230	1	4	0	144	119	0	0	100
fixed	5	10	12	1041315	4	3	3	1	0	945	1	4	0	152	120	0	0	100
random	6	1	1	1131991	6	1	1	1	0	943	1	4	0	168	1	0	0	100
random	6	1	2	1133322	4	4	4	1	0	783	1	4	0	192	2	0	0	100
random	6	1	3	1134774	2	2	2	1	0	994	1	4	0	176	3	0	0	100
random	6	1	4	1136687	3	3	3	1	0	601	1	4	0	184	4	0	0	100
random	6	1	5	1137875	5	2	2	1	0	966	1	4	0	176	5	0	0	100
random	6	1	6	1139760	1	4	4	1	0	686	1	4	0	192	6	0	0	100
random	6	1	7	1140817	6	1	1	1	0	786	1	4	0	168	7	0	0	100
random	6	1	8	1142512	2	3	3	1	0	1026	1	4	0	184	8	0	0	100
random	6	1	9	1144097	4	2	2	1	0	775	1	4	0	176	9	0	0	100
random	6	1	10	1145326	1	1	1	1	0	851	1	4	0	168	10	0	0	100
random	6	1	11	1146877	5	4	4	1	0	585	1	4	0	192	11	0	0	100
random	6	1	12	1148499	3	3	3	1	0	892	1	4	0	184	12	0	0	100
random	6	1	13	1150221	5	2	2	1	0	843	1	4	0	176	13	0	0	100
random	6	1	14	1151780	1	4	4	1	0	650	1	4	0	192	14	0	0	100
random	6	1	15	1153160	3	1	1	1	0	743	1	4	0	168	15	0	0	100
random	6	1	16	1154868	4	3	3	1	0	839	1	4	0	184	16	0	0	100
random	6	1	17	1156292	6	4	4	1	0	658	1	4	0	192	17	0	0	100
random	6	1	18	1157913	2	1	1	1	0	646	1	4	0	168	18	0	0	100
random	6	1	19	1158890	5	3	3	1	0	780	1	4	0	184	19	0	0	100
random	6	1	20	1160654	2	2	2	1	0	786	1	4	0	176	20	0	0	100
random	6	1	21	1162043	3	3	3	1	0	879	1	4	0	184	21	0	0	100
random	6	1	22	1163647	6	1	1	1	0	755	1	4	0	168	22	0	0	100
random	6	1	23	1164879	4	2	2	1	0	1095	1	4	0	176	23	0	0	100
random	6	1	24	1167009	1	4	4	1	0	676	1	4	0	192	24	0	0	100
random	6	1	25	1168365	4	3	3	1	0	1155	1	4	0	184	25	0	0	100
random	6	1	26	1170547	2	1	1	1	0	727	1	4	0	168	26	0	0	100
random	6	1	27	1171772	5	2	2	2	0	866	2	4	0	176	27	0	0	100
random	6	1	28	1173106	6	4	4	1	0	643	1	4	0	192	28	0	0	100
random	6	1	29	1174739	1	3	3	1	0	1069	1	4	0	184	29	0	0	100
random	6	1	30	1176388	5	2	2	1	0	903	1	4	0	176	30	0	0	100
random	6	1	31	1178030	2	1	1	1	0	722	1	4	0	168	31	0	0	100
random	6	1	32	1179743	3	3	3	1	0	1033	1	4	0	184	32	0	0	100
random	6	1	33	1181500	6	4	4	1	0	791	1	4	0	192	33	0	0	100
random	6	1	34	1182799	4	2	2	1	0	775	1	4	0	176	34	0	0	100
random	6	1	35	1183875	3	4	4	1	0	826	1	4	0	192	35	0	0	100
random	6	1	36	1185268	1	1	1	1	0	647	1	4	0	168	36	0	0	100
random	6	1	37	1186677	3	4	4	1	0	707	1	4	0	192	37	0	0	100
random	6	1	38	1188203	5	3	3	1	0	931	1	4	0	184	38	0	0	100
random	6	1	39	1189651	6	1	1	1	0	725	1	4	0	168	39	0	0	100
random	6	1	40	1190782	1	2	2	1	0	838	1	4	0	176	40	0	0	100
random	6	1	41	1192515	2	3	3	1	0	684	1	4	0	184	41	0	0	100
random	6	1	42	1193591	4	4	4	1	0	654	1	4	0	192	42	0	0	100
random	6	1	43	1195127	1	2	2	1	0	822	1	4	0	176	43	0	0	100
random	6	1	44	1196552	6	3	3	1	0	833	1	4	0	184	44	0	0	100
random	6	1	45	1198276	3	1	1	1	0	744	1	4	0	168	45	0	0	100
random	6	1	46	1199370	4	4	4	1	0	650	1	4	0	192	46	0	0	100
random	6	1	47	1200957	2	2	2	1	0	943	1	4	0	176	47	0	0	100
random	6	1	48	1202810	5	1	1	1	0	688	1	4	0	168	48	0	0	100
random	6	1	49	1204371	2	3	3	1	0	1030	1	4	0	184	49	0	0	100
random	6	1	50	1206309	3	1	1	1	0	852	1	4	0	168	50	0	0	100
random	6	1	51	1207925	1	4	4	1	0	624	1	4	0	192	51	0	0	100
random	6	1	52	1209104	5	3	3	2	0	1230	2	4	0	184	52	0	0	100
random	6	1	53	1210708	3	2	2	1	0	722	1	4	0	176	53	0	0	100
random	6	1	54	1212296	6	4	4	1	0	670	1	4	0	192	54	0	0	100
random	6	1	55	1213773	4	2	2	1	0	752	1	4	0	176	55	0	0	100
random	6	1	56	1215409	1	1	1	1	0	707	1	4	0	168	56	0	0	100
random	6	1	57	1216735	5	4	4	1	0	730	1	4	0	192	57	0	0	100
random	6	1	58	1218328	2	1	1	1	0	767	1	4	0	168	58	0	0	100
random	6	1	59	1220045	6	2	2	1	0	718	1	4	0	176	59	0	0	100
random	6	1	60	1221792	4	3	3	1	0	684	1	4	0	184	60	0	0	100
random	6	1	61	1223300	1	2	2	1	0	932	1	4	0	176	61	0	0	100
random	6	1	62	1224661	6	4	4	1	0	635	1	4	0	192	62	0	0	100
random	6	1	63	1225773	4	1	1	1	0	611	1	4	0	168	63	0	0	100
random	6	1	64	1226696	2	2	2	1	0	1020	1	4	0	176	64	0	0	100
random	6	1	65	1228546	4	3	3	2	0	1022	2	4	0	184	65	0	0	100
random	6	1	66	1229884	3	1	1	1	0	749	1	4	0	168	66	0	0	100
random	6	1	67	1231428	1	3	3	1	0	852	1	4	0	184	67	0	0	100
random	6	1	68	1233222	5	4	4	1	0	840	1	4	0	192	68	0	0	100
random	6	1	69	1234840	2	2	2	1	0	940	1	4	0	176	69	0	0	100
random	6	1	70	1236069	3	1	1	1	0	919	1	4	0	168	70	0	0	100
random	6	1	71	1237362	5	4	4	1	0	793	1	4	0	192	71	0	0	100
random	6	1	72	1238997	6	3	3	1	0	836	1	4	0	184	72	0	0	100
random	6	1	73	1240643	2	1	1	1	0	789	1	4	0	168	73	0	0	100
random	6	1	74	1242463	5	3	3	1	0	1016	1	4	0	184	74	0	0	100
random	6	1	75	1243852	1	4	4	1	0	798	1	4	0	192	75	0	0	100
random	6	1	76	1245169	6	2	2	1	0	758	1	4	0	176	76	0	0	100
random	6	1	77	1246689	2	1	1	1	0	693	1	4	0	168	77	0	0	100
random	6	1	78	1247829	4	4	4	1	0	749	1	4	0	192	78	0	0	100
random	6	1	79	1248896	3	2	2	1	0	856	1	4	0	176	79	0	0	100
random	6	1	80	1250542	4	3	3	1	0	827	1	4	0	184	80	0	0	100
random	6	1	81	1252223	1	4	4	1	0	659	1	4	0	192	81	0	0	100
random	6	1	82	1253276	5	1	1	1	0	646	1	4	0	168	82	0	0	100
random	6	1	83	1254948	3	2	2	1	0	944	1	4	0	176	83	0	0	100
random	6	1	84	1256569	6	3	3	1	0	475	1	4	0	184	84	0	0	100
random	6	1	85	1257651	3	2	2	1	0	877	1	4	0	176	85	0	0	100
random	6	1	86	1259361	1	3	3	1	0	797	1	4	0	184	86	0	0	100
random	6	1	87	1261158	4	4	4	1	0	785	1	4	0	192	87	0	0	100
random	6	1	88	1262523	2	1	1	1	0	703	1	4	0	168	88	0	0	100
random	6	1	89	1263544	6	4	4	1	0	780	1	4	0	192	89	0	0	100
random	6	1	90	1265052	3	3	3	1	0	820	1	4	0	184	90	0	0	100
random	6	1	91	1266921	5	4	4	1	0	700	1	4	0	192	91	0	0	100
random	6	1	92	1268021	1	2	2	1	0	806	1	4	0	176	92	0	0	100
random	6	1	93	1269507	5	1	1	1	0	831	1	4	0	168	93	0	0	100
random	6	1	94	1270988	4	3	3	1	0	984	1	4	0	184	94	0	0	100
random	6	1	95	1272859	6	1	1	1	0	753	1	4	0	168	95	0	0	100
random	6	1	96	1274545	2	2	2	1	0	738	1	4	0	176	96	0	0	100
random	6	1	97	1276046	4	3	3	1	0	850	1	4	0	184	97	0	0	100
random	6	1	98	1277453	3	2	2	2	0	1231	2	4	0	176	98	0	0	100
random	6	1	99	1279142	6	3	3	1	0	1087	1	4	0	184	99	0	0	100
random	6	1	100	1281186	1	4	4	1	0	641	1	4	0	192	100	0	0	100
random	6	1	101	1282348	4	1	1	1	0	911	1	4	0	168	101	0	0	100
random	6	1	102	1283888	5	2	2	1	0	974	1	4	0	176	102	0	0	100
random	6	1	103	1285840	2	4	4	1	0	643	1	4	0	192	103	0	0	100
random	6	1	104	1287032	3	1	1	1	0	721	1	4	0	168	104	0	0	100
random	6	1	105	1288778	1	3	3	1	0	1031	1	4	0	184	105	0	0	100
random	6	1	106	1290698	2	2	2	1	0	861	1	4	0	176	106	0	0	100
random	6	1	107	1292368	5	4	4	1	0	751	1	4	0	192	107	0	0	100
random	6	1	108	1293612	6	1	1	1	0	642	1	4	0	168	108	0	0	100
random	6	1	109	1295026	5	4	4	1	0	758	1	4	0	192	109	0	0	100
random	6	1	110	1296451	6	3	3	1	0	898	1	4	0	184	110	0	0	100
random	6	1	111	1297955	2	2	2	1	0	674	1	4	0	176	111	0	0	100
random	6	1	112	1299324	3	1	1	1	0	496	1	4	0	168	112	0	0	100
random	6	1	113	1300281	1	2	2	1	0	968	1	4	0	176	113	0	0	100
random	6	1	114	1302241	2	3	3	1	0	1013	1	4	0	184	114	0	0	100
random	6	1	115	1304251	3	1	1	1	0	752	1	4	0	168	115	0	0	100
random	6	1	116	1305697	4	4	4	1	0	691	1	4	0	192	116	0	0	100
random	6	1	117	1307087	6	1	1	1	0	839	1	4	0	168	117	0	0	100
random	6	1	118	1308577	5	3	3	1	0	928	1	4	0	184	118	0	0	100
random	6	1	119	1310383	1	4	4	1	0	716	1	4	0	192	119	0	0	100
random	6	1	120	1311874	4	2	2	1	0	685	1	4	0	176	120	0	0	100
fixed	7	1	1	1313452	4	1	1	1	0	898	1	4	0	200	1	0	0	100
fixed	7	1	2	1315303	1	2	2	1	0	916	1	4	0	208	2	0	0	100
fixed	7	1	3	1316573	6	4	4	1	0	638	1	4	0	224	3	0	0	100
fixed	7	1	4	1318015	2	1	1	1	0	680	1	4	0	200	4	0	0	100
fixed	7	1	5	1319596	5	3	3	1	0	910	1	4	0	216	5	0	0	100
fixed	7	1	6	1320875	6	4	4	1	0	767	1	4	0	224	6	0	0	100
fixed	7	1	7	1322041	3	1	1	1	0	622	1	4	0	200	7	0	0	100
fixed	7	1	8	1323643	2	3	3	1	0	1011	1	4	0	216	8	0	0	100
fixed	7	1	9	1325088	3	2	2	1	0	565	1	4	0	208	9	0	0	100
fixed	7	1	10	1325949	1	4	4	1	0	753	1	4	0	224	10	0	0	100
fixed	7	1	11	1327329	5	2	2	1	0	806	1	4	0	208	11	0	0	100
fixed	7	1	12	1328877	4	3	3	2	0	1012	2	4	0	216	12	0	0	100
fixed	7	2	1	1331165	4	1	1	1	0	1211	1	4	0	200	1	0	0	8
fixed	7	2	2	1333097	1	2	2	1	0	994	1	4	0	208	2	0	0	14
fixed	7	2	3	1334711	6	4	4	1	0	669	1	4	0	224	3	0	0	20
fixed	7	2	4	1335720	2	1	1	1	0	915	1	4	0	200	4	0	0	25
fixed	7	2	5	1336993	5	3	3	1	0	804	1	4	0	216	5	0	0	29
fixed	7	2	6	1338620	6	4	4	1	0	776	1	4	0	224	6	0	0	33
fixed	7	2	7	1340198	3	1	1	1	0	741	1	4	0	200	7	0	0	37
fixed	7	2	8	1341855	2	3	3	1	0	1087	1	4	0	216	8	0	0	40
fixed	7	2	9	1343739	3	2	2	1	0	535	1	4	0	208	9	0	0	43
fixed	7	2	10	1344603	1	4	4	1	0	683	1	4	0	224	10	0	0	45
fixed	7	2	11	1345692	5	2	2	1	0	828	1	4	0	208	11	0	0	48
fixed	7	2	12	1347122	4	3	3	2	0	1144	2	4	0	216	12	0	0	50
fixed	7	3	1	1349493	4	1	1	1	0	803	1	4	0	200	1	0	0	4
fixed	7	3	2	1350982	1	2	2	1	0	884	1	4	0	208	2	0	0	8
fixed	7	3	3	1352301	6	4	4	1	0	716	1	4	0	224	3	0	0	11
fixed	7	3	4	1353991	2	1	1	1	0	757	1	4	0	200	4	0	0	14
fixed	7	3	5	1355283	5	3	3	1	0	910	1	4	0	216	5	0	0	17
fixed	7	3	6	1356829	6	4	4	1	0	716	1	4	0	224	6	0	0	20
fixed	7	3	7	1358140	3	1	1	1	0	773	1	4	0	200	7	0	0	23
fixed	7	3	8	1359899	2	3	3	1	0	866	1	4	0	216	8	0	0	25
fixed	7	3	9	1361551	3	2	2	1	0	669	1	4	0	208	9	0	0	27
fixed	7	3	10	1362845	1	4	4	1	0	670	1	4	0	224	10	0	0	29
fixed	7	3	11	1364191	5	2	2	1	0	757	1	4	0	208	11	0	0	31
fixed	7	3	12	1365575	4	3	3	2	0	882	2	4	0	216	12	0	0	33
fixed	7	4	1	1367454	4	1	1	1	0	714	1	4	0	200	1	0	0	3
fixed	7	4	2	1368467	1	2	2	1	0	920	1	4	0	208	2	0	0	5
fixed	7	4	3	1370146	6	4	4	1	0	656	1	4	0	224	3	0	0	8
fixed	7	4	4	1371688	2	1	1	1	0	711	1	4	0	200	4	0	0	10
fixed	7	4	5	1372960	5	3	3	1	0	946	1	4	0	216	5	0	0	12
fixed	7	4	6	1374673	6	4	4	1	0	673	1	4	0	224	6	0	0	14
fixed	7	4	7	1376044	3	1	1	1	0	743	1	4	0	200	7	0	0	16
fixed	7	4	8	1377275	2	3	3	1	0	827	1	4	0	216	8	0	0	18
fixed	7	4	9	1378646	3	2	2	1	0	664	1	4	0	208	9	0	0	20
fixed	7	4	10	1379761	1	4	4	1	0	658	1	4	0	224	10	0	0	22
fixed	7	4	11	1381088	5	2	2	1	0	817	1	4	0	208	11	0	0	23
fixed	7	4	12	1382541	4	3	3	1	0	851	1	4	0	216	12	0	0	25
fixed	7	5	1	1384011	4	1	1	1	0	637	1	4	0	200	1	0	0	2
fixed	7	5	2	1385403	1	2	2	1	0	954	1	4	0	208	2	0	0	4
fixed	7	5	3	1387197	6	4	4	1	0	647	1	4	0	224	3	0	0	6
fixed	7	5	4	1388203	2	1	1	1	0	748	1	4	0	200	4	0	0	8
fixed	7	5	5	1389450	5	3	3	1	0	879	1	4	0	216	5	0	0	9
fixed	7	5	6	1390647	6	4	4	1	0	756	1	4	0	224	6	0	0	11
fixed	7	5	7	1392134	3	1	1	1	0	669	1	4	0	200	7	0	0	13
fixed	7	5	8	1393633	2	3	3	1	0	805	1	4	0	216	8	0	0	14
fixed	7	5	9	1395304	3	2	2	1	0	695	1	4	0	208	9	0	0	16
fixed	7	5	10	1396963	1	4	4	1	0	697	1	4	0	224	10	0	0	17
fixed	7	5	11	1398038	5	2	2	1	0	947	1	4	0	208	11	0	0	19
fixed	7	5	12	1399735	4	3	3	1	0	947	1	4	0	216	12	0	0	20
fixed	7	6	1	1401421	4	1	1	1	0	652	1	4	0	200	1	0	0	2
fixed	7	6	2	1402833	1	2	2	1	0	776	1	4	0	208	2	0	0	3
fixed	7	6	3	1404548	6	4	4	1	0	671	1	4	0	224	3	0	0	5
fixed	7	6	4	1405935	2	1	1	1	0	773	1	4	0	200	4	0	0	6
fixed	7	6	5	1407180	5	3	3	1	0	928	1	4	0	216	5	0	0	8
fixed	7	6	6	1408807	6	4	4	1	0	683	1	4	0	224	6	0	0	9
fixed	7	6	7	1410307	3	1	1	1	0	867	1	4	0	200	7	0	0	10
fixed	7	6	8	1411640	2	3	3	1	0	939	1	4	0	216	8	0	0	12
fixed	7	6	9	1413217	3	2	2	1	0	752	1	4	0	208	9	0	0	13
fixed	7	6	10	1414347	1	4	4	1	0	777	1	4	0	224	10	0	0	14
fixed	7	6	11	1415436	5	2	2	1	0	794	1	4	0	208	11	0	0	15
fixed	7	6	12	1416739	4	3	3	2	0	955	2	4	0	216	12	0	0	17
fixed	7	7	1	1418746	4	1	1	1	0	750	1	4	0	200	1	0	0	1
fixed	7	7	2	1419818	1	2	2	1	0	945	1	4	0	208	2	0	0	3
fixed	7	7	3	1421550	6	4	4	1	0	712	1	4	0	224	3	0	0	4
fixed	7	7	4	1422778	2	1	1	1	0	779	1	4	0	200	4	0	0	5
fixed	7	7	5	1424131	5	3	3	1	0	962	1	4	0	216	5	0	0	6
fixed	7	7	6	1425609	6	4	4	1	0	676	1	4	0	224	6	0	0	8
fixed	7	7	7	1426868	3	1	1	1	0	774	1	4	0	200	7	0	0	9
fixed	7	7	8	1428109	2	3	3	1	0	938	1	4	0	216	8	0	0	10
fixed	7	7	9	1429594	3	2	2	1	0	859	1	4	0	208	9	0	0	11
fixed	7	7	10	1430962	1	4	4	1	0	649	1	4	0	224	10	0	0	12
fixed	7	7	11	1432341	5	2	2	1	0	935	1	4	0	208	11	0	0	13
fixed	7	7	12	1434120	4	3	3	1	0	963	1	4	0	216	12	0	0	14
fixed	7	8	1	1435688	4	1	1	1	0	712	1	4	0	200	1	0	0	1
fixed	7	8	2	1436987	1	2	2	1	0	930	1	4	0	208	2	0	0	2
fixed	7	8	3	1438762	6	4	4	1	0	678	1	4	0	224	3	0	0	3
fixed	7	8	4	1440478	2	1	1	1	0	806	1	4	0	200	4	0	0	5
fixed	7	8	5	1442108	5	3	3	1	0	849	1	4	0	216	5	0	0	6
fixed	7	8	6	1443556	6	4	4	1	0	739	1	4	0	224	6	0	0	7
fixed	7	8	7	1444733	3	1	1	1	0	961	1	4	0	200	7	0	0	8
fixed	7	8	8	1446070	2	3	3	1	0	1161	1	4	0	216	8	0	0	9
fixed	7	8	9	1447955	3	2	2	1	0	857	1	4	0	208	9	0	0	10
fixed	7	8	10	1449345	1	4	4	1	0	686	1	4	0	224	10	0	0	11
fixed	7	8	11	1450708	5	2	2	1	0	884	1	4	0	208	11	0	0	12
fixed	7	8	12	1452310	4	3	3	1	0	1040	1	4	0	216	12	0	0	13
fixed	7	9	1	1454518	4	1	1	1	0	771	1	4	0	200	1	0	0	1
fixed	7	9	2	1456301	1	2	2	1	0	896	1	4	0	208	2	0	0	2
fixed	7	9	3	1457755	6	4	4	1	0	658	1	4	0	224	3	0	0	3
fixed	7	9	4	1458822	2	1	1	1	0	1165	1	4	0	200	4	0	0	4
fixed	7	9	5	1460935	5	3	3	1	0	955	1	4	0	216	5	0	0	5
fixed	7	9	6	1462528	6	4	4	1	0	640	1	4	0	224	6	0	0	6
fixed	7	9	7	1463904	3	1	1	1	0	813	1	4	0	200	7	0	0	7
fixed	7	9	8	1465704	2	3	3	1	0	865	1	4	0	216	8	0	0	8
fixed	7	9	9	1467566	3	2	2	1	0	706	1	4	0	208	9	0	0	9
fixed	7	9	10	1468875	1	4	4	1	0	683	1	4	0	224	10	0	0	9
fixed	7	9	11	1470549	5	2	2	1	0	740	1	4	0	208	11	0	0	10
fixed	7	9	12	1471680	4	3	3	1	0	1124	1	4	0	216	12	0	0	11
fixed	7	10	1	1473531	4	1	1	1	0	710	1	4	0	200	1	0	0	1
fixed	7	10	2	1474711	1	2	2	1	0	756	1	4	0	208	2	0	0	2
fixed	7	10	3	1476356	6	4	4	1	0	646	1	4	0	224	3	0	0	3
fixed	7	10	4	1477772	2	1	1	1	0	626	1	4	0	200	4	0	0	4
fixed	7	10	5	1479394	5	3	3	1	0	901	1	4	0	216	5	0	0	4
fixed	7	10	6	1480895	6	4	4	1	0	638	1	4	0	224	6	0	0	5
fixed	7	10	7	1482289	3	1	1	1	0	715	1	4	0	200	7	0	0	6
fixed	7	10	8	1483381	2	3	3	1	0	1005	1	4	0	216	8	0	0	7
fixed	7	10	9	1484747	3	2	2	1	0	763	1	4	0	208	9	0	0	8
fixed	7	10	10	1486092	1	4	4	1	0	649	1	4	0	224	10	0	0	8
fixed	7	10	11	1487655	5	2	2	1	0	992	1	4	0	208	11	0	0	9
fixed	7	10	12	1489113	4	3	3	1	0	1034	1	4	0	216	12	0	0	10
