type	block	sequ.	trial	time	Pos.	Color	Button	NumRsp	Resp_1	RT_1	R_Code	Resp_2	RT_2	Trigg.	n_hit	n_inc	n_miss	score_%

random	1	1	1	17954	6	1	1	1	0	1172	1	4	0	8	1	0	0	100
random	1	1	2	19679	4	4	4	1	0	915	1	4	0	32	2	0	0	100
random	1	1	3	21330	2	2	2	2	0	1605	2	4	0	16	3	0	0	100
random	1	1	4	23532	3	3	3	1	0	704	1	4	0	24	4	0	0	100
random	1	1	5	24697	5	2	2	1	0	1174	1	4	0	16	5	0	0	100
random	1	1	6	26275	1	4	4	1	0	771	1	4	0	32	6	0	0	100
random	1	1	7	27394	6	1	1	1	0	876	1	4	0	8	7	0	0	100
random	1	1	8	28889	2	3	3	1	0	1021	1	4	0	24	8	0	0	100
random	1	1	9	30844	4	2	2	2	0	1770	2	4	0	16	9	0	0	100
random	1	1	10	33252	1	1	1	1	0	1364	1	4	0	8	10	0	0	100
random	1	1	11	35548	5	4	4	1	0	730	1	4	0	32	11	0	0	100
random	1	1	12	36581	3	3	3	1	0	1735	1	4	0	24	12	0	0	100
random	1	1	13	39341	5	2	2	1	0	1098	1	4	0	16	13	0	0	100
random	1	1	14	40949	1	4	4	1	0	1326	1	4	0	32	14	0	0	100
random	1	1	15	43111	3	1	1	1	0	811	1	4	0	8	15	0	0	100
random	1	1	16	44497	4	3	3	1	0	1752	1	4	0	24	16	0	0	100
random	1	1	17	46845	6	4	4	1	0	1060	1	4	0	32	17	0	0	100
random	1	1	18	48569	2	1	1	1	0	851	1	4	0	8	18	0	0	100
random	1	1	19	50201	5	3	3	2	0	2430	2	4	0	24	19	0	0	100
random	1	1	20	52995	2	2	2	1	0	1008	1	4	0	16	20	0	0	100
random	1	1	21	54493	3	3	3	2	0	2024	2	4	0	24	21	0	0	100
random	1	1	22	57526	6	1	1	1	0	856	1	4	0	8	22	0	0	100
random	1	1	23	59234	4	2	2	1	0	976	1	4	0	16	23	0	0	100
random	1	1	24	61148	1	4	4	1	0	894	1	4	0	32	24	0	0	100
random	1	1	25	62916	4	3	3	1	0	1267	1	4	0	24	25	0	0	100
random	1	1	26	64677	2	1	1	1	0	761	1	4	0	8	26	0	0	100
random	1	1	27	65960	5	2	2	1	0	1051	1	4	0	16	27	0	0	100
random	1	1	28	67864	6	4	4	1	0	794	1	4	0	32	28	0	0	100
random	1	1	29	69491	1	3	3	1	0	1133	1	4	0	24	29	0	0	100
random	1	1	30	71354	5	2	2	1	0	910	1	4	0	16	30	0	0	100
random	1	1	31	73025	2	1	1	1	0	735	1	4	0	8	31	0	0	100
random	1	1	32	74131	3	3	3	1	0	952	1	4	0	24	32	0	0	100
random	1	1	33	75668	6	4	4	1	0	783	1	4	0	32	33	0	0	100
random	1	1	34	76927	4	2	2	1	0	874	1	4	0	16	34	0	0	100
random	1	1	35	78435	3	4	4	1	0	874	1	4	0	32	35	0	0	100
random	1	1	36	79737	1	1	1	1	0	867	1	4	0	8	36	0	0	100
random	1	1	37	81295	3	4	4	1	0	969	1	4	0	32	37	0	0	100
random	1	1	38	83259	5	3	3	1	0	1150	1	4	0	24	38	0	0	100
random	1	1	39	84795	6	1	1	1	0	773	1	4	0	8	39	0	0	100
random	1	1	40	86039	1	2	2	1	0	840	1	4	0	16	40	0	0	100
random	1	1	41	87906	2	3	3	2	0	1977	2	4	0	24	41	0	0	100
random	1	1	42	90457	4	4	4	1	0	869	1	4	0	32	42	0	0	100
random	1	1	43	92101	1	2	2	1	0	1096	1	4	0	16	43	0	0	100
random	1	1	44	93868	6	3	3	2	0	1797	2	4	0	24	44	0	0	100
random	1	1	45	96697	3	1	1	1	0	724	1	4	0	8	45	0	0	100
random	1	1	46	98162	4	4	4	1	0	807	1	4	0	32	46	0	0	100
random	1	1	47	99804	2	2	2	1	0	898	1	4	0	16	47	0	0	100
random	1	1	48	101145	5	1	1	1	0	792	1	4	0	8	48	0	0	100
random	1	1	49	102833	2	3	3	2	0	1513	2	4	0	24	49	0	0	100
random	1	1	50	104983	3	1	1	1	0	814	1	4	0	8	50	0	0	100
random	1	1	51	106566	1	4	4	1	0	763	1	4	0	32	51	0	0	100
random	1	1	52	108287	5	3	3	1	0	1538	1	4	0	24	52	0	0	100
random	1	1	53	110167	3	2	2	1	0	722	1	4	0	16	53	0	0	100
random	1	1	54	111743	6	4	4	1	0	815	1	4	0	32	54	0	0	100
random	1	1	55	112839	4	2	2	1	0	1177	1	4	0	16	55	0	0	100
random	1	1	56	114899	1	1	1	1	0	698	1	4	0	8	56	0	0	100
random	1	1	57	116340	5	4	4	1	0	845	1	4	0	32	57	0	0	100
random	1	1	58	117757	2	1	1	1	0	753	1	4	0	8	58	0	0	100
random	1	1	59	119499	6	2	2	1	0	1223	1	4	0	16	59	0	0	100
random	1	1	60	121363	4	3	3	1	0	760	1	4	0	24	60	0	0	100
random	1	1	61	123398	1	2	2	2	0	1794	2	4	0	16	61	0	0	100
random	1	1	62	125645	6	4	4	1	0	795	1	4	0	32	62	0	0	100
random	1	1	63	127001	4	1	1	1	0	737	1	4	0	8	63	0	0	100
random	1	1	64	128713	2	2	2	1	0	1089	1	4	0	16	64	0	0	100
random	1	1	65	130123	4	3	3	1	0	837	1	4	0	24	65	0	0	100
random	1	1	66	131371	3	1	1	1	0	688	1	4	0	8	66	0	0	100
random	1	1	67	132706	1	3	3	1	0	1071	1	4	0	24	67	0	0	100
random	1	1	68	134226	5	4	4	1	0	783	1	4	0	32	68	0	0	100
random	1	1	69	135792	2	2	2	1	0	949	1	4	0	16	69	0	0	100
random	1	1	70	137171	3	1	1	1	0	826	1	4	0	8	70	0	0	100
random	1	1	71	138338	5	4	4	1	0	761	1	4	0	32	71	0	0	100
random	1	1	72	140070	6	3	3	2	0	1815	2	4	0	24	72	0	0	100
random	1	1	73	143180	2	1	1	1	0	780	1	4	0	8	73	0	0	100
random	1	1	74	144837	5	3	3	1	0	1070	1	4	0	24	74	0	0	100
random	1	1	75	146489	1	4	4	1	0	688	1	4	0	32	75	0	0	100
random	1	1	76	147971	6	2	2	1	0	913	1	4	0	16	76	0	0	100
random	1	1	77	149338	2	1	1	1	0	775	1	4	0	8	77	0	0	100
random	1	1	78	150742	4	4	4	1	0	756	1	4	0	32	78	0	0	100
random	1	1	79	152067	3	2	2	1	0	1163	1	4	0	16	79	0	0	100
random	1	1	80	154241	4	3	3	1	0	791	1	4	0	24	80	0	0	100
random	1	1	81	155802	1	4	4	1	0	773	1	4	0	32	81	0	0	100
random	1	1	82	156966	5	1	1	1	0	644	1	4	0	8	82	0	0	100
random	1	1	83	158488	3	2	2	1	0	995	1	4	0	16	83	0	0	100
random	1	1	84	159926	6	3	3	1	0	575	1	4	0	24	84	0	0	100
random	1	1	85	161475	3	2	2	1	0	805	1	4	0	16	85	0	0	100
random	1	1	86	163062	1	3	3	1	0	538	1	4	0	24	86	0	0	100
random	1	1	87	163933	4	4	4	1	0	773	1	4	0	32	87	0	0	100
random	1	1	88	165028	2	1	1	1	0	511	1	4	0	8	88	0	0	100
random	1	1	89	166383	6	4	4	1	0	877	1	4	0	32	89	0	0	100
random	1	1	90	168090	3	3	3	1	0	1301	1	4	0	24	90	0	0	100
random	1	1	91	170103	5	4	4	1	0	1128	1	4	0	32	91	0	0	100
random	1	1	92	172149	1	2	2	1	0	1297	1	4	0	16	92	0	0	100
random	1	1	93	173856	5	1	1	1	0	864	1	4	0	8	93	0	0	100
random	1	1	94	175601	4	3	3	1	0	1007	1	4	0	24	94	0	0	100
random	1	1	95	177225	6	1	1	1	0	994	1	4	0	8	95	0	0	100
random	1	1	96	178770	2	2	2	1	0	1208	1	4	0	16	96	0	0	100
random	1	1	97	180973	4	3	3	1	0	1227	1	4	0	24	97	0	0	100
random	1	1	98	182620	3	2	2	1	0	718	1	4	0	16	98	0	0	100
random	1	1	99	184309	6	3	3	1	0	902	1	4	0	24	99	0	0	100
random	1	1	100	185980	1	4	4	1	0	791	1	4	0	32	100	0	0	100
random	1	1	101	187723	4	1	1	1	0	549	1	4	0	8	101	0	0	100
random	1	1	102	188682	5	2	2	2	0	1357	2	4	0	16	102	0	0	100
random	1	1	103	190690	2	4	4	1	0	656	1	4	0	32	103	0	0	100
random	1	1	104	192082	3	1	1	1	0	772	1	4	0	8	104	0	0	100
random	1	1	105	193542	1	3	3	2	0	1383	2	4	0	24	105	0	0	100
random	1	1	106	195784	2	2	2	1	0	1120	1	4	0	16	106	0	0	100
random	1	1	107	197257	5	4	4	1	0	890	1	4	0	32	107	0	0	100
random	1	1	108	199024	6	1	1	1	0	775	1	4	0	8	108	0	0	100
random	1	1	109	200655	5	4	4	1	0	841	1	4	0	32	109	0	0	100
random	1	1	110	202385	6	3	3	1	0	1800	1	4	0	24	110	0	0	100
random	1	1	111	205175	2	2	2	1	0	658	1	4	0	16	111	0	0	100
random	1	1	112	206571	3	1	1	1	0	783	1	4	0	8	112	0	0	100
random	1	1	113	208308	1	2	2	1	0	1037	1	4	0	16	113	0	0	100
random	1	1	114	209670	2	3	3	1	0	660	1	4	0	24	114	0	0	100
random	1	1	115	211077	3	1	1	1	0	664	1	4	0	8	115	0	0	100
random	1	1	116	212132	4	4	4	1	0	659	1	4	0	32	116	0	0	100
random	1	1	117	213712	6	1	1	2	0	1041	2	4	0	8	117	0	0	100
random	1	1	118	215711	5	3	3	1	0	1604	1	4	0	24	118	0	0	100
random	1	1	119	217837	1	4	4	1	0	1130	1	4	0	32	119	0	0	100
random	1	1	120	219401	4	2	2	1	0	1119	1	4	0	16	120	0	0	100
fixed	2	1	1	221621	4	1	1	1	0	873	1	4	0	40	1	0	0	100
fixed	2	1	2	223247	1	2	2	2	0	1341	2	4	0	48	2	0	0	100
fixed	2	1	3	225550	6	4	4	1	0	795	1	4	0	64	3	0	0	100
fixed	2	1	4	227326	2	1	1	1	0	768	1	4	0	40	4	0	0	100
fixed	2	1	5	228460	5	3	3	2	0	1592	2	4	0	56	5	0	0	100
fixed	2	1	6	230858	6	4	4	1	0	827	1	4	0	64	6	0	0	100
fixed	2	1	7	232027	3	1	1	1	0	657	1	4	0	40	7	0	0	100
fixed	2	1	8	233128	2	3	3	1	0	1018	1	4	0	56	8	0	0	100
fixed	2	1	9	234582	3	2	2	1	0	757	1	4	0	48	9	0	0	100
fixed	2	1	10	235642	1	4	4	1	0	712	1	4	0	64	10	0	0	100
fixed	2	1	11	236706	5	2	2	1	0	955	1	4	0	48	11	0	0	100
fixed	2	1	12	238346	4	3	3	1	0	717	1	4	0	56	12	0	0	100
fixed	2	2	1	240235	4	1	1	1	0	781	1	4	0	40	13	0	0	100
fixed	2	2	2	241325	1	2	2	1	0	1111	1	4	0	48	14	0	0	100
fixed	2	2	3	242781	6	4	4	1	0	809	1	4	0	64	15	0	0	100
fixed	2	2	4	244036	2	1	1	1	0	692	1	4	0	40	16	0	0	100
fixed	2	2	5	245577	5	3	3	1	0	1179	1	4	0	56	17	0	0	100
fixed	2	2	6	247046	6	4	4	1	0	829	1	4	0	64	18	0	0	100
fixed	2	2	7	248512	3	1	1	1	0	839	1	4	0	40	19	0	0	100
fixed	2	2	8	250083	2	3	3	2	0	1380	2	4	0	56	20	0	0	100
fixed	2	2	9	252396	3	2	2	1	0	770	1	4	0	48	21	0	0	100
fixed	2	2	10	254138	1	4	4	1	0	792	1	4	0	64	22	0	0	100
fixed	2	2	11	255715	5	2	2	1	0	910	1	4	0	48	23	0	0	100
fixed	2	2	12	257044	4	3	3	1	0	733	1	4	0	56	24	0	0	100
fixed	2	3	1	258814	4	1	1	1	0	794	1	4	0	40	25	0	0	100
fixed	2	3	2	260615	1	2	2	1	0	1038	1	4	0	48	26	0	0	100
fixed	2	3	3	262217	6	4	4	1	0	874	1	4	0	64	27	0	0	100
fixed	2	3	4	263985	2	1	1	1	0	631	1	4	0	40	28	0	0	100
fixed	2	3	5	265452	5	3	3	2	0	985	2	4	0	56	29	0	0	100
fixed	2	3	6	267076	6	4	4	1	0	812	1	4	0	64	30	0	0	100
fixed	2	3	7	268768	3	1	1	1	0	917	1	4	0	40	31	0	0	100
fixed	2	3	8	269965	2	3	3	1	0	1146	1	4	0	56	32	0	0	100
fixed	2	3	9	271495	3	2	2	1	0	689	1	4	0	48	33	0	0	100
fixed	2	3	10	272606	1	4	4	1	0	810	1	4	0	64	34	0	0	100
fixed	2	3	11	274280	5	2	2	1	0	1115	1	4	0	48	35	0	0	100
fixed	2	3	12	276203	4	3	3	1	0	834	1	4	0	56	36	0	0	100
fixed	2	4	1	278045	4	1	1	1	0	795	1	4	0	40	37	0	0	100
fixed	2	4	2	279471	1	2	0	2	2	0	3	4	0	48	37	0	1	97
fixed	2	4	3	282370	6	4	4	1	0	796	1	4	0	64	38	0	1	97
fixed	2	4	4	283631	2	1	1	1	0	751	1	4	0	40	39	0	1	98
fixed	2	4	5	284911	5	3	3	1	0	1081	1	4	0	56	40	0	1	98
fixed	2	4	6	286720	6	4	4	1	0	868	1	4	0	64	41	0	1	98
fixed	2	4	7	288189	3	1	1	1	0	1086	1	4	0	40	42	0	1	98
fixed	2	4	8	289985	2	3	3	1	0	1154	1	4	0	56	43	0	1	98
fixed	2	4	9	292040	3	2	2	1	0	595	1	4	0	48	44	0	1	98
fixed	2	4	10	293208	1	4	4	1	0	946	1	4	0	64	45	0	1	98
fixed	2	4	11	294866	5	2	2	1	0	988	1	4	0	48	46	0	1	98
fixed	2	4	12	296179	4	3	3	1	0	948	1	4	0	56	47	0	1	98
fixed	2	5	1	298294	4	1	1	1	0	802	1	4	0	40	48	0	1	98
fixed	2	5	2	300054	1	2	2	2	0	1512	2	4	0	48	49	0	1	98
fixed	2	5	3	302070	6	4	4	1	0	794	1	4	0	64	50	0	1	98
fixed	2	5	4	303829	2	1	1	1	0	728	1	4	0	40	51	0	1	98
fixed	2	5	5	304907	5	3	3	2	0	1322	2	4	0	56	52	0	1	98
fixed	2	5	6	306650	6	4	4	1	0	728	1	4	0	64	53	0	1	98
fixed	2	5	7	308103	3	1	1	1	0	714	1	4	0	40	54	0	1	98
fixed	2	5	8	309227	2	3	3	1	0	1259	1	4	0	56	55	0	1	98
fixed	2	5	9	310847	3	2	2	1	0	854	1	4	0	48	56	0	1	98
fixed	2	5	10	312328	1	4	4	1	0	935	1	4	0	64	57	0	1	98
fixed	2	5	11	313998	5	2	2	1	0	905	1	4	0	48	58	0	1	98
fixed	2	5	12	315578	4	3	3	1	0	758	1	4	0	56	59	0	1	98
fixed	2	6	1	317558	4	1	1	1	0	762	1	4	0	40	60	0	1	98
fixed	2	6	2	318697	1	2	2	2	0	1858	2	4	0	48	61	0	1	98
fixed	2	6	3	321096	6	4	4	1	0	709	1	4	0	64	62	0	1	98
fixed	2	6	4	322560	2	1	1	1	0	750	1	4	0	40	63	0	1	98
fixed	2	6	5	324234	5	3	3	1	0	1024	1	4	0	56	64	0	1	98
fixed	2	6	6	325670	6	4	4	1	0	819	1	4	0	64	65	0	1	98
fixed	2	6	7	326939	3	1	1	1	0	733	1	4	0	40	66	0	1	99
fixed	2	6	8	328338	2	3	3	1	0	977	1	4	0	56	67	0	1	99
fixed	2	6	9	330093	3	2	2	1	0	519	1	4	0	48	68	0	1	99
fixed	2	6	10	331071	1	4	4	1	0	718	1	4	0	64	69	0	1	99
fixed	2	6	11	332630	5	2	2	1	0	1211	1	4	0	48	70	0	1	99
fixed	2	6	12	334698	4	3	3	1	0	468	1	4	0	56	71	0	1	99
fixed	2	7	1	336288	4	1	1	1	0	761	1	4	0	40	72	0	1	99
fixed	2	7	2	337961	1	2	2	2	0	1714	2	4	0	48	73	0	1	99
fixed	2	7	3	340339	6	4	4	2	0	1021	2	4	0	64	74	0	1	99
fixed	2	7	4	342098	2	1	1	1	0	1195	1	4	0	40	75	0	1	99
fixed	2	7	5	343857	5	3	3	1	0	1392	1	4	0	56	76	0	1	99
fixed	2	7	6	345841	6	4	4	1	0	949	1	4	0	64	77	0	1	99
fixed	2	7	7	347691	3	1	1	1	0	1110	1	4	0	40	78	0	1	99
fixed	2	7	8	349281	2	3	3	1	0	1291	1	4	0	56	79	0	1	99
fixed	2	7	9	351538	3	2	2	1	0	947	1	4	0	48	80	0	1	99
fixed	2	7	10	352898	1	4	4	1	0	977	1	4	0	64	81	0	1	99
fixed	2	7	11	354299	5	2	2	1	0	1022	1	4	0	48	82	0	1	99
fixed	2	7	12	356257	4	3	3	2	0	1587	2	4	0	56	83	0	1	99
fixed	2	8	1	358676	4	1	1	1	0	780	1	4	0	40	84	0	1	99
fixed	2	8	2	360440	1	2	2	1	0	1218	1	4	0	48	85	0	1	99
fixed	2	8	3	362599	6	4	4	1	0	599	1	4	0	64	86	0	1	99
fixed	2	8	4	364121	2	1	1	1	0	654	1	4	0	40	87	0	1	99
fixed	2	8	5	365607	5	3	3	1	0	719	1	4	0	56	88	0	1	99
fixed	2	8	6	366795	6	4	4	1	0	740	1	4	0	64	89	0	1	99
fixed	2	8	7	368137	3	1	1	1	0	636	1	4	0	40	90	0	1	99
fixed	2	8	8	369227	2	3	3	3	0	2414	2	4	0	56	91	0	1	99
fixed	2	8	9	372130	3	2	2	1	0	811	1	4	0	48	92	0	1	99
fixed	2	8	10	373456	1	4	4	1	0	755	1	4	0	64	93	0	1	99
fixed	2	8	11	374555	5	2	2	1	0	1036	1	4	0	48	94	0	1	99
fixed	2	8	12	375945	4	3	3	1	0	857	1	4	0	56	95	0	1	99
fixed	2	9	1	377873	4	1	1	1	0	703	1	4	0	40	96	0	1	99
fixed	2	9	2	379353	1	2	2	1	0	1049	1	4	0	48	97	0	1	99
fixed	2	9	3	381074	6	4	4	1	0	976	1	4	0	64	98	0	1	99
fixed	2	9	4	382976	2	1	1	1	0	679	1	4	0	40	99	0	1	99
fixed	2	9	5	384062	5	3	3	1	0	1129	1	4	0	56	100	0	1	99
fixed	2	9	6	385610	6	4	4	1	0	928	1	4	0	64	101	0	1	99
fixed	2	9	7	387268	3	1	1	1	0	706	1	4	0	40	102	0	1	99
fixed	2	9	8	388826	2	3	3	2	0	1584	2	4	0	56	103	0	1	99
fixed	2	9	9	390942	3	2	2	1	0	718	1	4	0	48	104	0	1	99
fixed	2	9	10	392382	1	4	4	1	0	785	1	4	0	64	105	0	1	99
fixed	2	9	11	393830	5	2	2	1	0	1171	1	4	0	48	106	0	1	99
fixed	2	9	12	395606	4	3	3	1	0	752	1	4	0	56	107	0	1	99
fixed	2	10	1	396936	4	1	1	1	0	592	1	4	0	40	108	0	1	99
fixed	2	10	2	398362	1	2	2	1	0	860	1	4	0	48	109	0	1	99
fixed	2	10	3	400193	6	4	4	1	0	734	1	4	0	64	110	0	1	99
fixed	2	10	4	401329	2	1	1	1	0	726	1	4	0	40	111	0	1	99
fixed	2	10	5	402908	5	3	3	2	0	1227	2	4	0	56	112	0	1	99
fixed	2	10	6	404676	6	4	4	1	0	744	1	4	0	64	113	0	1	99
fixed	2	10	7	405718	3	1	1	1	0	804	1	4	0	40	114	0	1	99
fixed	2	10	8	407442	2	3	3	1	0	1411	1	4	0	56	115	0	1	99
fixed	2	10	9	409294	3	2	2	1	0	749	1	4	0	48	116	0	1	99
fixed	2	10	10	411015	1	4	4	1	0	828	1	4	0	64	117	0	1	99
fixed	2	10	11	412714	5	2	2	1	0	956	1	4	0	48	118	0	1	99
fixed	2	10	12	414306	4	3	3	1	0	833	1	4	0	56	119	0	1	99
fixed	3	1	1	416198	4	1	1	1	0	504	1	4	0	72	1	0	0	100
fixed	3	1	2	417146	1	2	2	1	0	920	1	4	0	80	2	0	0	100
fixed	3	1	3	419076	6	4	4	1	0	798	1	4	0	96	3	0	0	100
fixed	3	1	4	420432	2	1	1	1	0	789	1	4	0	72	4	0	0	100
fixed	3	1	5	422103	5	3	3	2	0	1214	2	4	0	88	5	0	0	100
fixed	3	1	6	423825	6	4	4	1	0	725	1	4	0	96	6	0	0	100
fixed	3	1	7	425378	3	1	1	1	0	715	1	4	0	72	7	0	0	100
fixed	3	1	8	426660	2	3	3	1	0	1101	1	4	0	88	8	0	0	100
fixed	3	1	9	428137	3	2	2	1	0	599	1	4	0	80	9	0	0	100
fixed	3	1	10	429092	1	4	4	1	0	662	1	4	0	96	10	0	0	100
fixed	3	1	11	430647	5	2	2	1	0	980	1	4	0	80	11	0	0	100
fixed	3	1	12	432564	4	3	3	1	0	1011	1	4	0	88	12	0	0	100
fixed	3	2	1	434545	4	1	1	1	0	1071	1	4	0	72	13	0	0	100
fixed	3	2	2	436292	1	2	2	3	0	2149	2	4	0	80	14	0	0	100
fixed	3	2	3	438724	6	4	4	1	0	774	1	4	0	96	15	0	0	100
fixed	3	2	4	440521	2	1	1	1	0	682	1	4	0	72	16	0	0	100
fixed	3	2	5	442117	5	3	3	1	0	1630	1	4	0	88	17	0	0	100
fixed	3	2	6	444691	6	4	4	1	0	689	1	4	0	96	18	0	0	100
fixed	3	2	7	446053	3	1	1	1	0	744	1	4	0	72	19	0	0	100
fixed	3	2	8	447085	2	3	3	1	0	1044	1	4	0	88	20	0	0	100
fixed	3	2	9	448496	3	2	2	1	0	608	1	4	0	80	21	0	0	100
fixed	3	2	10	449499	1	4	4	1	0	742	1	4	0	96	22	0	0	100
fixed	3	2	11	451236	5	2	2	1	0	844	1	4	0	80	23	0	0	100
fixed	3	2	12	452659	4	3	3	1	0	1080	1	4	0	88	24	0	0	100
fixed	3	3	1	454544	4	1	1	1	0	928	1	4	0	72	25	0	0	100
fixed	3	3	2	456190	1	2	2	1	0	970	1	4	0	80	26	0	0	100
fixed	3	3	3	457819	6	4	4	1	0	613	1	4	0	96	27	0	0	100
fixed	3	3	4	459111	2	1	1	1	0	743	1	4	0	72	28	0	0	100
fixed	3	3	5	460858	5	3	3	2	0	1228	2	4	0	88	29	0	0	100
fixed	3	3	6	462401	6	4	4	1	0	763	1	4	0	96	30	0	0	100
fixed	3	3	7	464142	3	1	1	1	0	682	1	4	0	72	31	0	0	100
fixed	3	3	8	465202	2	3	3	1	0	1036	1	4	0	88	32	0	0	100
fixed	3	3	9	466664	3	2	2	1	0	583	1	4	0	80	33	0	0	100
fixed	3	3	10	467690	1	4	4	1	0	700	1	4	0	96	34	0	0	100
fixed	3	3	11	469257	5	2	2	1	0	897	1	4	0	80	35	0	0	100
fixed	3	3	12	471022	4	3	3	1	0	654	1	4	0	88	36	0	0	100
fixed	3	4	1	472472	4	1	1	1	0	896	1	4	0	72	37	0	0	100
fixed	3	4	2	474404	1	2	2	4	0	2103	2	4	0	80	38	0	0	100
fixed	3	4	3	477445	6	4	4	1	0	726	1	4	0	96	39	0	0	100
fixed	3	4	4	479192	2	1	1	1	0	972	1	4	0	72	40	0	0	100
fixed	3	4	5	480744	5	3	3	1	0	1234	1	4	0	88	41	0	0	100
fixed	3	4	6	482407	6	4	4	1	0	796	1	4	0	96	42	0	0	100
fixed	3	4	7	483841	3	1	1	1	0	703	1	4	0	72	43	0	0	100
fixed	3	4	8	484841	2	3	3	1	0	1349	1	4	0	88	44	0	0	100
fixed	3	4	9	487175	3	2	2	1	0	658	1	4	0	80	45	0	0	100
fixed	3	4	10	488188	1	4	4	1	0	719	1	4	0	96	46	0	0	100
fixed	3	4	11	489614	5	2	2	1	0	859	1	4	0	80	47	0	0	100
fixed	3	4	12	490895	4	3	3	1	0	709	1	4	0	88	48	0	0	100
fixed	3	5	1	492572	4	1	1	1	0	909	1	4	0	72	49	0	0	100
fixed	3	5	2	494215	1	2	2	2	0	1960	2	4	0	80	50	0	0	100
fixed	3	5	3	496815	6	4	4	1	0	1418	1	4	0	96	51	0	0	100
fixed	3	5	4	499017	2	1	1	1	0	765	1	4	0	72	52	0	0	100
fixed	3	5	5	500311	5	3	3	1	0	1590	1	4	0	88	53	0	0	100
fixed	3	5	6	502466	6	4	4	1	0	690	1	4	0	96	54	0	0	100
fixed	3	5	7	503779	3	1	1	1	0	643	1	4	0	72	55	0	0	100
fixed	3	5	8	505130	2	3	3	1	0	1122	1	4	0	88	56	0	0	100
fixed	3	5	9	506888	3	2	2	1	0	639	1	4	0	80	57	0	0	100
fixed	3	5	10	507907	1	4	4	1	0	756	1	4	0	96	58	0	0	100
fixed	3	5	11	509491	5	2	2	1	0	1545	1	4	0	80	59	0	0	100
fixed	3	5	12	511427	4	3	3	1	0	783	1	4	0	88	60	0	0	100
fixed	3	6	1	513322	4	1	1	1	0	470	1	4	0	72	61	0	0	100
fixed	3	6	2	514618	1	2	0	2	2	0	3	4	0	80	61	0	1	98
fixed	3	6	3	517659	6	4	4	1	0	783	1	4	0	96	62	0	1	98
fixed	3	6	4	519263	2	1	1	1	0	619	1	4	0	72	63	0	1	98
fixed	3	6	5	520627	5	3	3	1	0	945	1	4	0	88	64	0	1	98
fixed	3	6	6	521918	6	4	4	1	0	803	1	4	0	96	65	0	1	98
fixed	3	6	7	523176	3	1	1	1	0	750	1	4	0	72	66	0	1	99
fixed	3	6	8	524630	2	3	3	1	0	1128	1	4	0	88	67	0	1	99
fixed	3	6	9	526343	3	2	2	1	0	735	1	4	0	80	68	0	1	99
fixed	3	6	10	527641	1	4	4	1	0	768	1	4	0	96	69	0	1	99
fixed	3	6	11	529189	5	2	2	1	0	935	1	4	0	80	70	0	1	99
fixed	3	6	12	530802	4	3	3	1	0	730	1	4	0	88	71	0	1	99
fixed	3	7	1	532486	4	1	1	1	0	907	1	4	0	72	72	0	1	99
fixed	3	7	2	533940	1	2	2	3	0	1445	2	4	0	80	73	0	1	99
fixed	3	7	3	536415	6	4	4	1	0	756	1	4	0	96	74	0	1	99
fixed	3	7	4	537862	2	1	1	1	0	807	1	4	0	72	75	0	1	99
fixed	3	7	5	539070	5	3	3	1	0	1860	1	4	0	88	76	0	1	99
fixed	3	7	6	541759	6	4	4	1	0	786	1	4	0	96	77	0	1	99
fixed	3	7	7	543488	3	1	1	1	0	729	1	4	0	72	78	0	1	99
fixed	3	7	8	544694	2	3	3	2	0	1318	2	4	0	88	79	0	1	99
fixed	3	7	9	546594	3	2	2	1	0	685	1	4	0	80	80	0	1	99
fixed	3	7	10	547770	1	4	4	1	0	1044	1	4	0	96	81	0	1	99
fixed	3	7	11	549476	5	2	2	1	0	1115	1	4	0	80	82	0	1	99
fixed	3	7	12	551025	4	3	3	1	0	586	1	4	0	88	83	0	1	99
fixed	3	8	1	552401	4	1	1	1	0	583	1	4	0	72	84	0	1	99
fixed	3	8	2	553596	1	2	2	1	0	853	1	4	0	80	85	0	1	99
fixed	3	8	3	555231	6	4	4	1	0	696	1	4	0	96	86	0	1	99
fixed	3	8	4	556449	2	1	1	1	0	700	1	4	0	72	87	0	1	99
fixed	3	8	5	557577	5	3	3	1	0	1468	1	4	0	88	88	0	1	99
fixed	3	8	6	560033	6	4	4	1	0	1220	1	4	0	96	89	0	1	99
fixed	3	8	7	561787	3	1	1	1	0	818	1	4	0	72	90	0	1	99
fixed	3	8	8	563009	2	3	3	2	0	1254	2	4	0	88	91	0	1	99
fixed	3	8	9	564746	3	2	2	1	0	804	1	4	0	80	92	0	1	99
fixed	3	8	10	566247	1	4	4	1	0	805	1	4	0	96	93	0	1	99
fixed	3	8	11	567805	5	2	2	1	0	1539	1	4	0	80	94	0	1	99
fixed	3	8	12	570087	4	3	3	1	0	1386	1	4	0	88	95	0	1	99
fixed	3	9	1	572450	4	1	1	1	0	710	1	4	0	72	96	0	1	99
fixed	3	9	2	573514	1	2	2	1	0	1209	1	4	0	80	97	0	1	99
fixed	3	9	3	575446	6	4	4	1	0	927	1	4	0	96	98	0	1	99
fixed	3	9	4	577270	2	1	1	1	0	706	1	4	0	72	99	0	1	99
fixed	3	9	5	578479	5	3	3	1	0	1086	1	4	0	88	100	0	1	99
fixed	3	9	6	580196	6	4	4	1	0	790	1	4	0	96	101	0	1	99
fixed	3	9	7	581666	3	1	1	1	0	952	1	4	0	72	102	0	1	99
fixed	3	9	8	583608	2	3	3	1	0	1109	1	4	0	88	103	0	1	99
fixed	3	9	9	585163	3	2	2	1	0	739	1	4	0	80	104	0	1	99
fixed	3	9	10	586894	1	4	4	1	0	971	1	4	0	96	105	0	1	99
fixed	3	9	11	588269	5	2	2	2	0	1488	2	4	0	80	106	0	1	99
fixed	3	9	12	590060	4	3	3	1	0	732	1	4	0	88	107	0	1	99
fixed	3	10	1	591564	4	1	1	1	0	612	1	4	0	72	108	0	1	99
fixed	3	10	2	592480	1	2	0	2	2	0	3	4	0	80	108	0	2	98
fixed	3	10	3	595292	6	4	4	1	0	742	1	4	0	96	109	0	2	98
fixed	3	10	4	596728	2	1	1	1	0	674	1	4	0	72	110	0	2	98
fixed	3	10	5	597815	5	3	3	1	0	844	1	4	0	88	111	0	2	98
fixed	3	10	6	599293	6	4	4	1	0	685	1	4	0	96	112	0	2	98
fixed	3	10	7	600424	3	1	1	1	0	1093	1	4	0	72	113	0	2	98
fixed	3	10	8	602122	2	3	3	1	0	925	1	4	0	88	114	0	2	98
fixed	3	10	9	603561	3	2	2	1	0	584	1	4	0	80	115	0	2	98
fixed	3	10	10	605141	1	4	4	1	0	774	1	4	0	96	116	0	2	98
fixed	3	10	11	606675	5	2	2	1	0	1165	1	4	0	80	117	0	2	98
fixed	3	10	12	608644	4	3	3	1	0	993	1	4	0	88	118	0	2	98
fixed	4	1	1	725457	4	1	1	1	0	1277	1	4	0	104	1	0	0	100
fixed	4	1	2	727704	1	2	2	1	0	830	1	4	0	112	2	0	0	100
fixed	4	1	3	729357	6	4	4	1	0	688	1	4	0	128	3	0	0	100
fixed	4	1	4	730989	2	1	1	1	0	643	1	4	0	104	4	0	0	100
fixed	4	1	5	732575	5	3	3	1	0	936	1	4	0	120	5	0	0	100
fixed	4	1	6	734110	6	4	4	1	0	663	1	4	0	128	6	0	0	100
fixed	4	1	7	735314	3	1	1	1	0	732	1	4	0	104	7	0	0	100
fixed	4	1	8	736774	2	3	3	1	0	942	1	4	0	120	8	0	0	100
fixed	4	1	9	738400	3	2	2	1	0	489	1	4	0	112	9	0	0	100
fixed	4	1	10	739431	1	4	4	1	0	566	1	4	0	128	10	0	0	100
fixed	4	1	11	740554	5	2	2	1	0	870	1	4	0	112	11	0	0	100
fixed	4	1	12	741786	4	3	3	1	0	706	1	4	0	120	12	0	0	100
fixed	4	2	1	743219	4	1	1	1	0	725	1	4	0	104	13	0	0	100
fixed	4	2	2	744449	1	2	2	2	0	1713	2	4	0	112	14	0	0	100
fixed	4	2	3	746484	6	4	4	1	0	691	1	4	0	128	15	0	0	100
fixed	4	2	4	747570	2	1	1	1	0	893	1	4	0	104	16	0	0	100
fixed	4	2	5	749115	5	3	3	1	0	1523	1	4	0	120	17	0	0	100
fixed	4	2	6	751341	6	4	4	1	0	1573	1	4	0	128	18	0	0	100
fixed	4	2	7	753754	3	1	1	1	0	639	1	4	0	104	19	0	0	100
fixed	4	2	8	755336	2	3	3	1	0	1052	1	4	0	120	20	0	0	100
fixed	4	2	9	756857	3	2	2	1	0	700	1	4	0	112	21	0	0	100
fixed	4	2	10	758450	1	4	4	1	0	856	1	4	0	128	22	0	0	100
fixed	4	2	11	759745	5	2	2	1	0	833	1	4	0	112	23	0	0	100
fixed	4	2	12	761069	4	3	3	1	0	681	1	4	0	120	24	0	0	100
fixed	4	3	1	762366	4	1	1	1	0	522	1	4	0	104	25	0	0	100
fixed	4	3	2	763705	1	2	0	2	2	0	3	4	0	112	25	0	1	96
fixed	4	3	3	766548	6	4	4	1	0	841	1	4	0	128	26	0	1	96
fixed	4	3	4	767740	2	1	1	1	0	751	1	4	0	104	27	0	1	96
fixed	4	3	5	768842	5	3	3	1	0	1024	1	4	0	120	28	0	1	97
fixed	4	3	6	770714	6	4	4	1	0	889	1	4	0	128	29	0	1	97
fixed	4	3	7	772622	3	1	1	1	0	544	1	4	0	104	30	0	1	97
fixed	4	3	8	773766	2	3	3	1	0	847	1	4	0	120	31	0	1	97
fixed	4	3	9	775432	3	2	2	1	0	393	1	4	0	112	32	0	1	97
fixed	4	3	10	776272	1	4	4	1	0	677	1	4	0	128	33	0	1	97
fixed	4	3	11	777652	5	2	2	1	0	811	1	4	0	112	34	0	1	97
fixed	4	3	12	779500	4	3	3	1	0	749	1	4	0	120	35	0	1	97
fixed	4	4	1	781329	4	1	1	1	0	831	1	4	0	104	36	0	1	97
fixed	4	4	2	783180	1	2	0	2	2	0	3	4	0	112	36	0	2	95
fixed	4	4	3	786692	6	4	4	1	0	716	1	4	0	128	37	0	2	95
fixed	4	4	4	788348	2	1	1	2	0	1174	2	4	0	104	38	0	2	95
fixed	4	4	5	790190	5	3	3	1	0	1072	1	4	0	120	39	0	2	95
fixed	4	4	6	791612	6	4	4	1	0	852	1	4	0	128	40	0	2	95
fixed	4	4	7	793071	3	1	1	1	0	878	1	4	0	104	41	0	2	95
fixed	4	4	8	794922	2	3	3	1	0	1007	1	4	0	120	42	0	2	95
fixed	4	4	9	796642	3	2	2	1	0	551	1	4	0	112	43	0	2	96
fixed	4	4	10	797625	1	4	4	1	0	661	1	4	0	128	44	0	2	96
fixed	4	4	11	798968	5	2	2	1	0	804	1	4	0	112	45	0	2	96
fixed	4	4	12	800340	4	3	3	1	0	698	1	4	0	120	46	0	2	96
fixed	4	5	1	802064	4	1	1	1	0	1065	1	4	0	104	47	0	2	96
fixed	4	5	2	804082	1	2	0	3	2	0	3	4	0	112	47	0	3	94
fixed	4	5	3	807535	6	4	4	1	0	913	1	4	0	128	48	0	3	94
fixed	4	5	4	808993	2	1	1	1	0	788	1	4	0	104	49	0	3	94
fixed	4	5	5	810499	5	3	3	1	0	1683	1	4	0	120	50	0	3	94
fixed	4	5	6	812834	6	4	4	1	0	745	1	4	0	128	51	0	3	94
fixed	4	5	7	813924	3	1	1	1	0	538	1	4	0	104	52	0	3	95
fixed	4	5	8	815183	2	3	3	1	0	845	1	4	0	120	53	0	3	95
fixed	4	5	9	816338	3	2	2	1	0	708	1	4	0	112	54	0	3	95
fixed	4	5	10	817509	1	4	4	1	0	731	1	4	0	128	55	0	3	95
fixed	4	5	11	818762	5	2	2	1	0	822	1	4	0	112	56	0	3	95
fixed	4	5	12	820535	4	3	3	1	0	739	1	4	0	120	57	0	3	95
fixed	4	6	1	821912	4	1	1	1	0	752	1	4	0	104	58	0	3	95
fixed	4	6	2	823215	1	2	2	2	0	2441	2	4	0	112	59	0	3	95
fixed	4	6	3	826174	6	4	4	1	0	923	1	4	0	128	60	0	3	95
fixed	4	6	4	827605	2	1	1	1	0	1599	1	4	0	104	61	0	3	95
fixed	4	6	5	830084	5	3	3	1	0	878	1	4	0	120	62	0	3	95
fixed	4	6	6	831980	6	4	4	1	0	974	1	4	0	128	63	0	3	95
fixed	4	6	7	833784	3	1	1	1	0	881	1	4	0	104	64	0	3	96
fixed	4	6	8	835389	2	3	3	1	0	750	1	4	0	120	65	0	3	96
fixed	4	6	9	836679	3	2	2	1	0	767	1	4	0	112	66	0	3	96
fixed	4	6	10	837795	1	4	4	1	0	656	1	4	0	128	67	0	3	96
fixed	4	6	11	838862	5	2	2	1	0	810	1	4	0	112	68	0	3	96
fixed	4	6	12	840636	4	3	3	1	0	887	1	4	0	120	69	0	3	96
fixed	4	7	1	842797	4	1	1	1	0	995	1	4	0	104	70	0	3	96
fixed	4	7	2	844300	1	2	2	3	0	1852	2	4	0	112	71	0	3	96
fixed	4	7	3	846937	6	4	4	1	0	781	1	4	0	128	72	0	3	96
fixed	4	7	4	848739	2	1	1	1	0	1008	1	4	0	104	73	0	3	96
fixed	4	7	5	850235	5	3	3	1	0	976	1	4	0	120	74	0	3	96
fixed	4	7	6	851982	6	4	4	1	0	799	1	4	0	128	75	0	3	96
fixed	4	7	7	853299	3	1	1	1	0	487	1	4	0	104	76	0	3	96
fixed	4	7	8	854420	2	3	3	1	0	712	1	4	0	120	77	0	3	96
fixed	4	7	9	855770	3	2	2	1	0	454	1	4	0	112	78	0	3	96
fixed	4	7	10	856795	1	4	4	2	0	1066	2	4	0	128	79	0	3	96
fixed	4	7	11	858186	5	2	2	1	0	1416	1	4	0	112	80	0	3	96
fixed	4	7	12	860490	4	3	3	1	0	966	1	4	0	120	81	0	3	96
fixed	4	8	1	862596	4	1	1	1	0	725	1	4	0	104	82	0	3	96
fixed	4	8	2	864090	1	2	2	1	0	1062	1	4	0	112	83	0	3	97
fixed	4	8	3	866136	6	4	4	1	0	1375	1	4	0	128	84	0	3	97
fixed	4	8	4	868041	2	1	1	1	0	734	1	4	0	104	85	0	3	97
fixed	4	8	5	869125	5	3	3	1	0	952	1	4	0	120	86	0	3	97
fixed	4	8	6	870509	6	4	4	1	0	894	1	4	0	128	87	0	3	97
fixed	4	8	7	871913	3	1	1	2	0	2043	2	4	0	104	88	0	3	97
fixed	4	8	8	874411	2	3	3	1	0	952	1	4	0	120	89	0	3	97
fixed	4	8	9	876140	3	2	2	1	0	752	1	4	0	112	90	0	3	97
fixed	4	8	10	877925	1	4	4	1	0	860	1	4	0	128	91	0	3	97
fixed	4	8	11	879360	5	2	2	2	0	1367	2	4	0	112	92	0	3	97
fixed	4	8	12	881277	4	3	3	2	0	1102	2	4	0	120	93	0	3	97
fixed	4	9	1	883146	4	1	1	1	0	846	1	4	0	104	94	0	3	97
fixed	4	9	2	884285	1	2	2	1	0	1198	1	4	0	112	95	0	3	97
fixed	4	9	3	886376	6	4	4	1	0	886	1	4	0	128	96	0	3	97
fixed	4	9	4	887867	2	1	1	1	0	1271	1	4	0	104	97	0	3	97
fixed	4	9	5	889536	5	3	3	1	0	904	1	4	0	120	98	0	3	97
fixed	4	9	6	890777	6	4	4	1	0	756	1	4	0	128	99	0	3	97
fixed	4	9	7	892492	3	1	1	1	0	755	1	4	0	104	100	0	3	97
fixed	4	9	8	894262	2	3	3	1	0	816	1	4	0	120	101	0	3	97
fixed	4	9	9	895922	3	2	2	1	0	674	1	4	0	112	102	0	3	97
fixed	4	9	10	897303	1	4	4	1	0	823	1	4	0	128	103	0	3	97
fixed	4	9	11	898827	5	2	2	1	0	831	1	4	0	112	104	0	3	97
fixed	4	9	12	900002	4	3	3	1	0	796	1	4	0	120	105	0	3	97
fixed	4	10	1	901992	4	1	1	1	0	728	1	4	0	104	106	0	3	97
fixed	4	10	2	903611	1	2	2	1	0	883	1	4	0	112	107	0	3	97
fixed	4	10	3	905022	6	4	4	1	0	832	1	4	0	128	108	0	3	97
fixed	4	10	4	906581	2	1	1	1	0	766	1	4	0	104	109	0	3	97
fixed	4	10	5	908340	5	3	3	2	0	1251	2	4	0	120	110	0	3	97
fixed	4	10	6	910482	6	4	4	1	0	817	1	4	0	128	111	0	3	97
fixed	4	10	7	911945	3	1	1	1	0	731	1	4	0	104	112	0	3	97
fixed	4	10	8	913464	2	3	3	1	0	1163	1	4	0	120	113	0	3	97
fixed	4	10	9	914939	3	2	2	1	0	660	1	4	0	112	114	0	3	97
fixed	4	10	10	916534	1	4	4	1	0	792	1	4	0	128	115	0	3	97
fixed	4	10	11	918234	5	2	2	1	0	1208	1	4	0	112	116	0	3	97
fixed	4	10	12	919749	4	3	3	1	0	849	1	4	0	120	117	0	3	98
fixed	5	1	1	921838	4	1	1	1	0	671	1	4	0	136	1	0	0	100
fixed	5	1	2	923111	1	2	2	1	0	842	1	4	0	144	2	0	0	100
fixed	5	1	3	924654	6	4	4	1	0	817	1	4	0	160	3	0	0	100
fixed	5	1	4	925928	2	1	1	1	0	787	1	4	0	136	4	0	0	100
fixed	5	1	5	927561	5	3	3	1	0	1005	1	4	0	152	5	0	0	100
fixed	5	1	6	929187	6	4	4	1	0	881	1	4	0	160	6	0	0	100
fixed	5	1	7	930603	3	1	1	1	0	701	1	4	0	136	7	0	0	100
fixed	5	1	8	932254	2	3	3	1	0	943	1	4	0	152	8	0	0	100
fixed	5	1	9	934024	3	2	2	1	0	492	1	4	0	144	9	0	0	100
fixed	5	1	10	935066	1	4	4	1	0	728	1	4	0	160	10	0	0	100
fixed	5	1	11	936726	5	2	2	1	0	1017	1	4	0	144	11	0	0	100
fixed	5	1	12	938771	4	3	3	1	0	755	1	4	0	152	12	0	0	100
fixed	5	2	1	940420	4	1	1	1	0	861	1	4	0	136	13	0	0	100
fixed	5	2	2	942025	1	2	2	2	0	1753	2	4	0	144	14	0	0	100
fixed	5	2	3	944086	6	4	4	1	0	786	1	4	0	160	15	0	0	100
fixed	5	2	4	945359	2	1	1	1	0	780	1	4	0	136	16	0	0	100
fixed	5	2	5	946696	5	3	3	1	0	1219	1	4	0	152	17	0	0	100
fixed	5	2	6	948495	6	4	4	1	0	847	1	4	0	160	18	0	0	100
fixed	5	2	7	949812	3	1	1	1	0	799	1	4	0	136	19	0	0	100
fixed	5	2	8	951150	2	3	3	1	0	926	1	4	0	152	20	0	0	100
fixed	5	2	9	953027	3	2	2	1	0	695	1	4	0	144	21	0	0	100
fixed	5	2	10	954342	1	4	4	1	0	943	1	4	0	160	22	0	0	100
fixed	5	2	11	955853	5	2	2	1	0	951	1	4	0	144	23	0	0	100
fixed	5	2	12	957580	4	3	3	1	0	726	1	4	0	152	24	0	0	100
fixed	5	3	1	959299	4	1	1	1	0	645	1	4	0	136	25	0	0	100
fixed	5	3	2	960642	1	2	2	2	0	1196	2	4	0	144	26	0	0	100
fixed	5	3	3	962393	6	4	4	1	0	770	1	4	0	160	27	0	0	100
fixed	5	3	4	964197	2	1	1	1	0	758	1	4	0	136	28	0	0	100
fixed	5	3	5	965922	5	3	3	2	0	1301	2	4	0	152	29	0	0	100
fixed	5	3	6	968081	6	4	4	1	0	832	1	4	0	160	30	0	0	100
fixed	5	3	7	969617	3	1	1	1	0	784	1	4	0	136	31	0	0	100
fixed	5	3	8	970976	2	3	3	1	0	1166	1	4	0	152	32	0	0	100
fixed	5	3	9	973046	3	2	2	1	0	783	1	4	0	144	33	0	0	100
fixed	5	3	10	974500	1	4	4	1	0	850	1	4	0	160	34	0	0	100
fixed	5	3	11	976039	5	2	2	1	0	920	1	4	0	144	35	0	0	100
fixed	5	3	12	977766	4	3	3	1	0	783	1	4	0	152	36	0	0	100
fixed	5	4	1	979348	4	1	1	1	0	524	1	4	0	136	37	0	0	100
fixed	5	4	2	980183	1	2	2	1	0	1136	1	4	0	144	38	0	0	100
fixed	5	4	3	981831	6	4	4	1	0	739	1	4	0	160	39	0	0	100
fixed	5	4	4	983360	2	1	1	1	0	1482	1	4	0	136	40	0	0	100
fixed	5	4	5	985740	5	3	3	1	0	917	1	4	0	152	41	0	0	100
fixed	5	4	6	987611	6	4	4	1	0	766	1	4	0	160	42	0	0	100
fixed	5	4	7	989244	3	1	1	1	0	961	1	4	0	136	43	0	0	100
fixed	5	4	8	991095	2	3	3	2	0	1194	2	4	0	152	44	0	0	100
fixed	5	4	9	992796	3	2	2	1	0	826	1	4	0	144	45	0	0	100
fixed	5	4	10	994174	1	4	4	1	0	1080	1	4	0	160	46	0	0	100
fixed	5	4	11	995936	5	2	2	1	0	749	1	4	0	144	47	0	0	100
fixed	5	4	12	997448	4	3	3	1	0	1125	1	4	0	152	48	0	0	100
fixed	5	5	1	999765	4	1	1	1	0	819	1	4	0	136	49	0	0	100
fixed	5	5	2	1000961	1	2	2	1	0	1097	1	4	0	144	50	0	0	100
fixed	5	5	3	1002464	6	4	4	1	0	833	1	4	0	160	51	0	0	100
fixed	5	5	4	1003649	2	1	1	1	0	799	1	4	0	136	52	0	0	100
fixed	5	5	5	1004818	5	3	3	1	0	989	1	4	0	152	53	0	0	100
fixed	5	5	6	1006155	6	4	4	1	0	837	1	4	0	160	54	0	0	100
fixed	5	5	7	1007310	3	1	1	1	0	916	1	4	0	136	55	0	0	100
fixed	5	5	8	1009072	2	3	3	1	0	881	1	4	0	152	56	0	0	100
fixed	5	5	9	1010762	3	2	2	1	0	513	1	4	0	144	57	0	0	100
fixed	5	5	10	1012179	1	4	4	1	0	997	1	4	0	160	58	0	0	100
fixed	5	5	11	1013551	5	2	2	1	0	963	1	4	0	144	59	0	0	100
fixed	5	5	12	1014826	4	3	3	1	0	805	1	4	0	152	60	0	0	100
fixed	5	6	1	1016406	4	1	1	1	0	530	1	4	0	136	61	0	0	100
fixed	5	6	2	1017870	1	2	2	1	0	1093	1	4	0	144	62	0	0	100
fixed	5	6	3	1019709	6	4	4	1	0	759	1	4	0	160	63	0	0	100
fixed	5	6	4	1021314	2	1	1	1	0	1147	1	4	0	136	64	0	0	100
fixed	5	6	5	1023025	5	3	3	1	0	842	1	4	0	152	65	0	0	100
fixed	5	6	6	1024428	6	4	4	1	0	1974	1	4	0	160	66	0	0	100
fixed	5	6	7	1027307	3	1	1	1	0	717	1	4	0	136	67	0	0	100
fixed	5	6	8	1028826	2	3	3	1	0	892	1	4	0	152	68	0	0	100
fixed	5	6	9	1030486	3	2	2	1	0	446	1	4	0	144	69	0	0	100
fixed	5	6	10	1031922	1	4	4	1	0	794	1	4	0	160	70	0	0	100
fixed	5	6	11	1033606	5	2	2	1	0	850	1	4	0	144	71	0	0	100
fixed	5	6	12	1035084	4	3	3	1	0	715	1	4	0	152	72	0	0	100
fixed	5	7	1	1036706	4	1	1	1	0	750	1	4	0	136	73	0	0	100
fixed	5	7	2	1038198	1	2	2	1	0	1631	1	4	0	144	74	0	0	100
fixed	5	7	3	1040538	6	4	4	1	0	836	1	4	0	160	75	0	0	100
fixed	5	7	4	1041689	2	1	1	1	0	715	1	4	0	136	76	0	0	100
fixed	5	7	5	1042856	5	3	3	1	0	866	1	4	0	152	77	0	0	100
fixed	5	7	6	1044045	6	4	4	1	0	800	1	4	0	160	78	0	0	100
fixed	5	7	7	1045675	3	1	1	2	0	1539	2	4	0	136	79	0	0	100
fixed	5	7	8	1048013	2	3	3	1	0	1136	1	4	0	152	80	0	0	100
fixed	5	7	9	1050116	3	2	2	1	0	751	1	4	0	144	81	0	0	100
fixed	5	7	10	1051689	1	4	4	1	0	852	1	4	0	160	82	0	0	100
fixed	5	7	11	1053223	5	2	2	1	0	803	1	4	0	144	83	0	0	100
fixed	5	7	12	1054930	4	3	3	1	0	755	1	4	0	152	84	0	0	100
fixed	5	8	1	1056638	4	1	1	1	0	890	1	4	0	136	85	0	0	100
fixed	5	8	2	1058371	1	2	2	1	0	873	1	4	0	144	86	0	0	100
fixed	5	8	3	1060032	6	4	4	1	0	1058	1	4	0	160	87	0	0	100
fixed	5	8	4	1061663	2	1	1	1	0	710	1	4	0	136	88	0	0	100
fixed	5	8	5	1062878	5	3	3	2	0	2274	2	4	0	152	89	0	0	100
fixed	5	8	6	1065948	6	4	4	1	0	688	1	4	0	160	90	0	0	100
fixed	5	8	7	1066932	3	1	1	1	0	782	1	4	0	136	91	0	0	100
fixed	5	8	8	1068166	2	3	3	2	0	986	2	4	0	152	92	0	0	100
fixed	5	8	9	1070182	3	2	2	1	0	733	1	4	0	144	93	0	0	100
fixed	5	8	10	1071611	1	4	4	1	0	728	1	4	0	160	94	0	0	100
fixed	5	8	11	1072795	5	2	2	1	0	1254	1	4	0	144	95	0	0	100
fixed	5	8	12	1074401	4	3	3	2	0	1298	2	4	0	152	96	0	0	100
fixed	5	9	1	1076587	4	1	1	1	0	741	1	4	0	136	97	0	0	100
fixed	5	9	2	1078248	1	2	2	1	0	1175	1	4	0	144	98	0	0	100
fixed	5	9	3	1080114	6	4	4	1	0	848	1	4	0	160	99	0	0	100
fixed	5	9	4	1081827	2	1	1	1	0	880	1	4	0	136	100	0	0	100
fixed	5	9	5	1083626	5	3	3	1	0	923	1	4	0	152	101	0	0	100
fixed	5	9	6	1085231	6	4	4	1	0	839	1	4	0	160	102	0	0	100
fixed	5	9	7	1086385	3	1	1	1	0	1446	1	4	0	136	103	0	0	100
fixed	5	9	8	1088426	2	3	3	1	0	928	1	4	0	152	104	0	0	100
fixed	5	9	9	1090364	3	2	2	1	0	686	1	4	0	144	105	0	0	100
fixed	5	9	10	1091993	1	4	4	1	0	993	1	4	0	160	106	0	0	100
fixed	5	9	11	1093736	5	2	2	1	0	799	1	4	0	144	107	0	0	100
fixed	5	9	12	1095346	4	3	3	1	0	787	1	4	0	152	108	0	0	100
fixed	5	10	1	1097087	4	1	1	1	0	1241	1	4	0	136	109	0	0	100
fixed	5	10	2	1098660	1	2	2	1	0	1046	1	4	0	144	110	0	0	100
fixed	5	10	3	1100222	6	4	4	1	0	916	1	4	0	160	111	0	0	100
fixed	5	10	4	1101858	2	1	1	1	0	687	1	4	0	136	112	0	0	100
fixed	5	10	5	1103566	5	3	3	1	0	1063	1	4	0	152	113	0	0	100
fixed	5	10	6	1105536	6	4	4	1	0	699	1	4	0	160	114	0	0	100
fixed	5	10	7	1106512	3	1	1	1	0	794	1	4	0	136	115	0	0	100
fixed	5	10	8	1107925	2	3	3	1	0	806	1	4	0	152	116	0	0	100
fixed	5	10	9	1109701	3	2	2	2	0	595	2	4	0	144	117	0	0	100
fixed	5	10	10	1111031	1	4	4	1	0	827	1	4	0	160	118	0	0	100
fixed	5	10	11	1112319	5	2	2	1	0	724	1	4	0	144	119	0	0	100
fixed	5	10	12	1113514	4	3	3	1	0	825	1	4	0	152	120	0	0	100
random	6	1	1	1252032	6	1	1	1	0	1110	1	4	0	168	1	0	0	100
random	6	1	2	1253729	4	4	4	1	0	855	1	4	0	192	2	0	0	100
random	6	1	3	1254917	2	2	2	1	0	780	1	4	0	176	3	0	0	100
random	6	1	4	1256426	3	3	3	1	0	620	1	4	0	184	4	0	0	100
random	6	1	5	1257794	5	2	2	1	0	899	1	4	0	176	5	0	0	100
random	6	1	6	1259004	1	4	4	1	0	855	1	4	0	192	6	0	0	100
random	6	1	7	1260723	6	1	1	1	0	758	1	4	0	168	7	0	0	100
random	6	1	8	1261942	2	3	3	1	0	866	1	4	0	184	8	0	0	100
random	6	1	9	1263286	4	2	2	1	0	706	1	4	0	176	9	0	0	100
random	6	1	10	1264968	1	1	1	1	0	866	1	4	0	168	10	0	0	100
random	6	1	11	1266733	5	4	4	1	0	672	1	4	0	192	11	0	0	100
random	6	1	12	1267750	3	3	3	1	0	853	1	4	0	184	12	0	0	100
random	6	1	13	1269895	5	2	2	1	0	922	1	4	0	176	13	0	0	100
random	6	1	14	1271371	1	4	4	1	0	1267	1	4	0	192	14	0	0	100
random	6	1	15	1272929	3	1	1	1	0	761	1	4	0	168	15	0	0	100
random	6	1	16	1274625	4	3	3	1	0	881	1	4	0	184	16	0	0	100
random	6	1	17	1276102	6	4	4	1	0	787	1	4	0	192	17	0	0	100
random	6	1	18	1277584	2	1	1	1	0	612	1	4	0	168	18	0	0	100
random	6	1	19	1278733	5	3	3	1	0	851	1	4	0	184	19	0	0	100
random	6	1	20	1280138	2	2	2	1	0	1056	1	4	0	176	20	0	0	100
random	6	1	21	1281569	3	3	3	1	0	780	1	4	0	184	21	0	0	100
random	6	1	22	1282728	6	1	1	1	0	874	1	4	0	168	22	0	0	100
random	6	1	23	1284069	4	2	2	1	0	986	1	4	0	176	23	0	0	100
random	6	1	24	1285548	1	4	4	1	0	874	1	4	0	192	24	0	0	100
random	6	1	25	1286987	4	3	3	1	0	990	1	4	0	184	25	0	0	100
random	6	1	26	1288415	2	1	1	1	0	914	1	4	0	168	26	0	0	100
random	6	1	27	1290141	5	2	2	1	0	889	1	4	0	176	27	0	0	100
random	6	1	28	1291713	6	4	4	1	0	925	1	4	0	192	28	0	0	100
random	6	1	29	1293537	1	3	3	1	0	880	1	4	0	184	29	0	0	100
random	6	1	30	1295191	5	2	2	1	0	634	1	4	0	176	30	0	0	100
random	6	1	31	1296410	2	1	1	1	0	839	1	4	0	168	31	0	0	100
random	6	1	32	1297688	3	3	3	1	0	1041	1	4	0	184	32	0	0	100
random	6	1	33	1299694	6	4	4	1	0	804	1	4	0	192	33	0	0	100
random	6	1	34	1301166	4	2	2	1	0	733	1	4	0	176	34	0	0	100
random	6	1	35	1302735	3	4	4	1	0	939	1	4	0	192	35	0	0	100
random	6	1	36	1304285	1	1	1	1	0	697	1	4	0	168	36	0	0	100
random	6	1	37	1305850	3	4	0	0	2	0	3	4	0	192	36	0	1	97
random	6	1	38	1309164	5	3	3	1	0	971	1	4	0	184	37	0	1	97
random	6	1	39	1310825	6	1	1	1	0	868	1	4	0	168	38	0	1	97
random	6	1	40	1312182	1	2	2	2	0	970	2	4	0	176	39	0	1	98
random	6	1	41	1314026	2	3	3	1	0	941	1	4	0	184	40	0	1	98
random	6	1	42	1315258	4	4	4	1	0	984	1	4	0	192	41	0	1	98
random	6	1	43	1316703	1	2	2	1	0	1011	1	4	0	176	42	0	1	98
random	6	1	44	1318669	6	3	3	1	0	624	1	4	0	184	43	0	1	98
random	6	1	45	1319992	3	1	1	1	0	680	1	4	0	168	44	0	1	98
random	6	1	46	1321627	4	4	4	1	0	907	1	4	0	192	45	0	1	98
random	6	1	47	1323403	2	2	2	1	0	720	1	4	0	176	46	0	1	98
random	6	1	48	1324442	5	1	1	1	0	1124	1	4	0	168	47	0	1	98
random	6	1	49	1326784	2	3	3	1	0	976	1	4	0	184	48	0	1	98
random	6	1	50	1328055	3	1	1	1	0	762	1	4	0	168	49	0	1	98
random	6	1	51	1329240	1	4	4	1	0	792	1	4	0	192	50	0	1	98
random	6	1	52	1330384	5	3	3	1	0	896	1	4	0	184	51	0	1	98
random	6	1	53	1331977	3	2	2	1	0	693	1	4	0	176	52	0	1	98
random	6	1	54	1333397	6	4	4	1	0	817	1	4	0	192	53	0	1	98
random	6	1	55	1334907	4	2	2	1	0	744	1	4	0	176	54	0	1	98
random	6	1	56	1336489	1	1	1	1	0	829	1	4	0	168	55	0	1	98
random	6	1	57	1338034	5	4	4	1	0	780	1	4	0	192	56	0	1	98
random	6	1	58	1339385	2	1	1	1	0	818	1	4	0	168	57	0	1	98
random	6	1	59	1340559	6	2	2	1	0	1081	1	4	0	176	58	0	1	98
random	6	1	60	1342420	4	3	3	1	0	666	1	4	0	184	59	0	1	98
random	6	1	61	1343976	1	2	2	1	0	800	1	4	0	176	60	0	1	98
random	6	1	62	1345229	6	4	4	1	0	779	1	4	0	192	61	0	1	98
random	6	1	63	1346482	4	1	1	1	0	830	1	4	0	168	62	0	1	98
random	6	1	64	1347937	2	2	2	1	0	808	1	4	0	176	63	0	1	98
random	6	1	65	1349155	4	3	3	1	0	676	1	4	0	184	64	0	1	98
random	6	1	66	1350667	3	1	1	2	0	1221	2	4	0	168	65	0	1	98
random	6	1	67	1352873	1	3	3	1	0	1151	1	4	0	184	66	0	1	99
random	6	1	68	1354363	5	4	4	1	0	800	1	4	0	192	67	0	1	99
random	6	1	69	1355531	2	2	2	2	0	1063	2	4	0	176	68	0	1	99
random	6	1	70	1357555	3	1	1	1	0	873	1	4	0	168	69	0	1	99
random	6	1	71	1358854	5	4	4	1	0	850	1	4	0	192	70	0	1	99
random	6	1	72	1360292	6	3	3	1	0	821	1	4	0	184	71	0	1	99
random	6	1	73	1362388	2	1	1	1	0	740	1	4	0	168	72	0	1	99
random	6	1	74	1364015	5	3	3	1	0	871	1	4	0	184	73	0	1	99
random	6	1	75	1365923	1	4	4	1	0	719	1	4	0	192	74	0	1	99
random	6	1	76	1367666	6	2	2	1	0	420	1	4	0	176	75	0	1	99
random	6	1	77	1368875	2	1	1	1	0	857	1	4	0	168	76	0	1	99
random	6	1	78	1370371	4	4	4	1	0	778	1	4	0	192	77	0	1	99
random	6	1	79	1372047	3	2	2	1	0	851	1	4	0	176	78	0	1	99
random	6	1	80	1373523	4	3	3	1	0	781	1	4	0	184	79	0	1	99
random	6	1	81	1374669	1	4	4	1	0	884	1	4	0	192	80	0	1	99
random	6	1	82	1376153	5	1	1	1	0	781	1	4	0	168	81	0	1	99
random	6	1	83	1377857	3	2	2	1	0	781	1	4	0	176	82	0	1	99
random	6	1	84	1379635	6	3	3	1	0	762	1	4	0	184	83	0	1	99
random	6	1	85	1381001	3	2	2	1	0	840	1	4	0	176	84	0	1	99
random	6	1	86	1382468	1	3	3	1	0	706	1	4	0	184	85	0	1	99
random	6	1	87	1384094	4	4	4	1	0	669	1	4	0	192	86	0	1	99
random	6	1	88	1385461	2	1	1	1	0	571	1	4	0	168	87	0	1	99
random	6	1	89	1386761	6	4	4	2	0	1612	2	4	0	192	88	0	1	99
random	6	1	90	1389261	3	3	3	1	0	970	1	4	0	184	89	0	1	99
random	6	1	91	1390818	5	4	4	1	0	1120	1	4	0	192	90	0	1	99
random	6	1	92	1392277	1	2	2	1	0	1026	1	4	0	176	91	0	1	99
random	6	1	93	1394147	5	1	1	1	0	1155	1	4	0	168	92	0	1	99
random	6	1	94	1396161	4	3	3	1	0	1542	1	4	0	184	93	0	1	99
random	6	1	95	1398142	6	1	1	1	0	914	1	4	0	168	94	0	1	99
random	6	1	96	1399959	2	2	2	1	0	717	1	4	0	176	95	0	1	99
random	6	1	97	1401852	4	3	3	1	0	1093	1	4	0	184	96	0	1	99
random	6	1	98	1403430	3	2	2	1	0	730	1	4	0	176	97	0	1	99
random	6	1	99	1405110	6	3	3	2	0	1514	2	4	0	184	98	0	1	99
random	6	1	100	1407132	1	4	4	1	0	821	1	4	0	192	99	0	1	99
random	6	1	101	1408412	4	1	1	1	0	855	1	4	0	168	100	0	1	99
random	6	1	102	1410219	5	2	2	1	0	811	1	4	0	176	101	0	1	99
random	6	1	103	1411814	2	4	4	1	0	1103	1	4	0	192	102	0	1	99
random	6	1	104	1413581	3	1	1	1	0	1012	1	4	0	168	103	0	1	99
random	6	1	105	1415044	1	3	3	1	0	886	1	4	0	184	104	0	1	99
random	6	1	106	1416613	2	2	2	1	0	964	1	4	0	176	105	0	1	99
random	6	1	107	1418360	5	4	4	1	0	713	1	4	0	192	106	0	1	99
random	6	1	108	1419794	6	1	1	1	0	1109	1	4	0	168	107	0	1	99
random	6	1	109	1421784	5	4	4	1	0	776	1	4	0	192	108	0	1	99
random	6	1	110	1423142	6	3	3	1	0	1327	1	4	0	184	109	0	1	99
random	6	1	111	1425453	2	2	2	1	0	429	1	4	0	176	110	0	1	99
random	6	1	112	1426851	3	1	1	1	0	738	1	4	0	168	111	0	1	99
random	6	1	113	1428059	1	2	2	1	0	1167	1	4	0	176	112	0	1	99
random	6	1	114	1429975	2	3	3	2	0	862	2	4	0	184	113	0	1	99
random	6	1	115	1431134	3	1	1	1	0	933	1	4	0	168	114	0	1	99
random	6	1	116	1433045	4	4	4	1	0	731	1	4	0	192	115	0	1	99
random	6	1	117	1434349	6	1	1	1	0	940	1	4	0	168	116	0	1	99
random	6	1	118	1436228	5	3	3	1	0	893	1	4	0	184	117	0	1	99
random	6	1	119	1437641	1	4	4	1	0	905	1	4	0	192	118	0	1	99
random	6	1	120	1438930	4	2	2	1	0	690	1	4	0	176	119	0	1	99
fixed	7	1	1	1440611	4	1	1	1	0	715	1	4	0	200	1	0	0	100
fixed	7	1	2	1442284	1	2	2	1	0	1044	1	4	0	208	2	0	0	100
fixed	7	1	3	1444093	6	4	4	1	0	784	1	4	0	224	3	0	0	100
fixed	7	1	4	1445446	2	1	1	1	0	726	1	4	0	200	4	0	0	100
fixed	7	1	5	1447024	5	3	3	2	0	1132	2	4	0	216	5	0	0	100
fixed	7	1	6	1448964	6	4	4	1	0	818	1	4	0	224	6	0	0	100
fixed	7	1	7	1450627	3	1	1	1	0	995	1	4	0	200	7	0	0	100
fixed	7	1	8	1452410	2	3	3	1	0	863	1	4	0	216	8	0	0	100
fixed	7	1	9	1453681	3	2	2	1	0	753	1	4	0	208	9	0	0	100
fixed	7	1	10	1454845	1	4	4	2	0	1632	2	4	0	224	10	0	0	100
fixed	7	1	11	1456967	5	2	2	1	0	887	1	4	0	208	11	0	0	100
fixed	7	1	12	1458217	4	3	3	1	0	786	1	4	0	216	12	0	0	100
fixed	7	2	1	1459677	4	1	1	1	0	859	1	4	0	200	1	0	0	8
fixed	7	2	2	1460942	1	2	2	1	0	870	1	4	0	208	2	0	0	14
fixed	7	2	3	1462710	6	4	4	1	0	867	1	4	0	224	3	0	0	20
fixed	7	2	4	1464555	2	1	1	1	0	733	1	4	0	200	4	0	0	25
fixed	7	2	5	1465733	5	3	3	1	0	971	1	4	0	216	5	0	0	29
fixed	7	2	6	1467726	6	4	4	1	0	903	1	4	0	224	6	0	0	33
fixed	7	2	7	1469405	3	1	1	1	0	815	1	4	0	200	7	0	0	37
fixed	7	2	8	1470719	2	3	3	1	0	784	1	4	0	216	8	0	0	40
fixed	7	2	9	1471827	3	2	2	1	0	681	1	4	0	208	9	0	0	43
fixed	7	2	10	1473343	1	4	4	1	0	712	1	4	0	224	10	0	0	45
fixed	7	2	11	1474500	5	2	2	1	0	944	1	4	0	208	11	0	0	48
fixed	7	2	12	1476056	4	3	3	1	0	790	1	4	0	216	12	0	0	50
fixed	7	3	1	1478005	4	1	1	1	0	715	1	4	0	200	1	0	0	4
fixed	7	3	2	1479057	1	2	2	1	0	1038	1	4	0	208	2	0	0	8
fixed	7	3	3	1480407	6	4	4	1	0	766	1	4	0	224	3	0	0	11
fixed	7	3	4	1481608	2	1	1	1	0	1411	1	4	0	200	4	0	0	14
fixed	7	3	5	1483537	5	3	3	1	0	809	1	4	0	216	5	0	0	17
fixed	7	3	6	1484683	6	4	4	1	0	1241	1	4	0	224	6	0	0	20
fixed	7	3	7	1486449	3	1	1	2	0	1006	2	4	0	200	7	0	0	23
fixed	7	3	8	1488042	2	3	3	1	0	922	1	4	0	216	8	0	0	25
fixed	7	3	9	1489619	3	2	2	1	0	823	1	4	0	208	9	0	0	27
fixed	7	3	10	1490791	1	4	4	1	0	838	1	4	0	224	10	0	0	29
fixed	7	3	11	1492572	5	2	2	1	0	930	1	4	0	208	11	0	0	31
fixed	7	3	12	1493864	4	3	3	1	0	795	1	4	0	216	12	0	0	33
fixed	7	4	1	1495933	4	1	1	1	0	884	1	4	0	200	1	0	0	3
fixed	7	4	2	1497837	1	2	2	1	0	843	1	4	0	208	2	0	0	5
fixed	7	4	3	1499667	6	4	4	1	0	1238	1	4	0	224	3	0	0	8
fixed	7	4	4	1501693	2	1	1	1	0	744	1	4	0	200	4	0	0	10
fixed	7	4	5	1503315	5	3	3	1	0	1051	1	4	0	216	5	0	0	12
fixed	7	4	6	1505250	6	4	4	1	0	786	1	4	0	224	6	0	0	14
fixed	7	4	7	1506475	3	1	1	1	0	773	1	4	0	200	7	0	0	16
fixed	7	4	8	1508095	2	3	3	1	0	1025	1	4	0	216	8	0	0	18
fixed	7	4	9	1509722	3	2	2	1	0	588	1	4	0	208	9	0	0	20
fixed	7	4	10	1511068	1	4	4	1	0	1003	1	4	0	224	10	0	0	22
fixed	7	4	11	1512658	5	2	2	2	0	1631	2	4	0	208	11	0	0	23
fixed	7	4	12	1514749	4	3	3	1	0	863	1	4	0	216	12	0	0	25
fixed	7	5	1	1516299	4	1	1	1	0	789	1	4	0	200	1	0	0	2
fixed	7	5	2	1517842	1	2	2	1	0	1036	1	4	0	208	2	0	0	4
fixed	7	5	3	1519531	6	4	4	1	0	1092	1	4	0	224	3	0	0	6
fixed	7	5	4	1521261	2	1	1	1	0	1019	1	4	0	200	4	0	0	8
fixed	7	5	5	1523097	5	3	3	1	0	1077	1	4	0	216	5	0	0	9
fixed	7	5	6	1524938	6	4	4	1	0	831	1	4	0	224	6	0	0	11
fixed	7	5	7	1526459	3	1	1	2	0	1799	2	4	0	200	7	0	0	13
fixed	7	5	8	1528912	2	3	3	1	0	815	1	4	0	216	8	0	0	14
fixed	7	5	9	1530478	3	2	2	1	0	661	1	4	0	208	9	0	0	16
fixed	7	5	10	1532060	1	4	4	2	0	922	2	4	0	224	10	0	0	17
fixed	7	5	11	1533954	5	2	2	1	0	778	1	4	0	208	11	0	0	19
fixed	7	5	12	1535587	4	3	3	1	0	764	1	4	0	216	12	0	0	20
fixed	7	6	1	1537384	4	1	1	1	0	1088	1	4	0	200	1	0	0	2
fixed	7	6	2	1538824	1	2	2	1	0	891	1	4	0	208	2	0	0	3
fixed	7	6	3	1540264	6	4	4	1	0	686	1	4	0	224	3	0	0	5
fixed	7	6	4	1541673	2	1	1	1	0	763	1	4	0	200	4	0	0	6
fixed	7	6	5	1542945	5	3	3	1	0	972	1	4	0	216	5	0	0	8
fixed	7	6	6	1544394	6	4	4	1	0	1320	1	4	0	224	6	0	0	9
fixed	7	6	7	1546449	3	1	1	1	0	712	1	4	0	200	7	0	0	10
fixed	7	6	8	1547649	2	3	3	1	0	870	1	4	0	216	8	0	0	12
fixed	7	6	9	1549395	3	2	2	1	0	755	1	4	0	208	9	0	0	13
fixed	7	6	10	1550515	1	4	4	1	0	1076	1	4	0	224	10	0	0	14
fixed	7	6	11	1552140	5	2	2	1	0	823	1	4	0	208	11	0	0	15
fixed	7	6	12	1553641	4	3	3	1	0	863	1	4	0	216	12	0	0	17
fixed	7	7	1	1555796	4	1	1	1	0	812	1	4	0	200	1	0	0	1
fixed	7	7	2	1557421	1	2	2	1	0	1024	1	4	0	208	2	0	0	3
fixed	7	7	3	1559139	6	4	4	1	0	695	1	4	0	224	3	0	0	4
fixed	7	7	4	1560493	2	1	1	1	0	1269	1	4	0	200	4	0	0	5
fixed	7	7	5	1562377	5	3	3	2	0	1357	2	4	0	216	5	0	0	6
fixed	7	7	6	1564266	6	4	4	1	0	997	1	4	0	224	6	0	0	8
fixed	7	7	7	1565587	3	1	1	1	0	965	1	4	0	200	7	0	0	9
fixed	7	7	8	1566924	2	3	3	1	0	869	1	4	0	216	8	0	0	10
fixed	7	7	9	1568280	3	2	2	1	0	748	1	4	0	208	9	0	0	11
fixed	7	7	10	1569759	1	4	4	1	0	861	1	4	0	224	10	0	0	12
fixed	7	7	11	1571160	5	2	2	1	0	890	1	4	0	208	11	0	0	13
fixed	7	7	12	1572706	4	3	3	1	0	744	1	4	0	216	12	0	0	14
fixed	7	8	1	1574442	4	1	1	1	0	1166	1	4	0	200	1	0	0	1
fixed	7	8	2	1576552	1	2	2	1	0	765	1	4	0	208	2	0	0	2
fixed	7	8	3	1578005	6	4	4	1	0	1008	1	4	0	224	3	0	0	3
fixed	7	8	4	1579595	2	1	1	1	0	716	1	4	0	200	4	0	0	5
fixed	7	8	5	1581051	5	3	3	1	0	1055	1	4	0	216	5	0	0	6
fixed	7	8	6	1582811	6	4	4	1	0	804	1	4	0	224	6	0	0	7
fixed	7	8	7	1584405	3	1	1	1	0	793	1	4	0	200	7	0	0	8
fixed	7	8	8	1585823	2	3	3	1	0	765	1	4	0	216	8	0	0	9
fixed	7	8	9	1586999	3	2	2	1	0	723	1	4	0	208	9	0	0	10
fixed	7	8	10	1588064	1	4	4	1	0	870	1	4	0	224	10	0	0	11
fixed	7	8	11	1589976	5	2	2	1	0	725	1	4	0	208	11	0	0	12
fixed	7	8	12	1591674	4	3	3	2	0	1125	2	4	0	216	12	0	0	13
fixed	7	9	1	1593639	4	1	1	1	0	769	1	4	0	200	1	0	0	1
fixed	7	9	2	1595015	1	2	2	1	0	959	1	4	0	208	2	0	0	2
fixed	7	9	3	1596609	6	4	4	1	0	844	1	4	0	224	3	0	0	3
fixed	7	9	4	1597785	2	1	1	1	0	1018	1	4	0	200	4	0	0	4
fixed	7	9	5	1599224	5	3	3	1	0	901	1	4	0	216	5	0	0	5
fixed	7	9	6	1600487	6	4	4	1	0	1239	1	4	0	224	6	0	0	6
fixed	7	9	7	1602281	3	1	1	1	0	779	1	4	0	200	7	0	0	7
fixed	7	9	8	1603757	2	3	3	1	0	813	1	4	0	216	8	0	0	8
fixed	7	9	9	1605075	3	2	2	1	0	741	1	4	0	208	9	0	0	9
fixed	7	9	10	1606268	1	4	4	1	0	826	1	4	0	224	10	0	0	9
fixed	7	9	11	1607639	5	2	2	1	0	1064	1	4	0	208	11	0	0	10
fixed	7	9	12	1609001	4	3	3	1	0	759	1	4	0	216	12	0	0	11
fixed	7	10	1	1610898	4	1	1	1	0	734	1	4	0	200	1	0	0	1
fixed	7	10	2	1612348	1	2	2	1	0	849	1	4	0	208	2	0	0	2
fixed	7	10	3	1614124	6	4	4	1	0	870	1	4	0	224	3	0	0	3
fixed	7	10	4	1615457	2	1	1	1	0	1141	1	4	0	200	4	0	0	4
fixed	7	10	5	1617204	5	3	3	1	0	924	1	4	0	216	5	0	0	4
fixed	7	10	6	1618478	6	4	4	1	0	782	1	4	0	224	6	0	0	5
fixed	7	10	7	1620030	3	1	1	1	0	812	1	4	0	200	7	0	0	6
fixed	7	10	8	1621530	2	3	3	1	0	948	1	4	0	216	8	0	0	7
fixed	7	10	9	1623048	3	2	2	1	0	884	1	4	0	208	9	0	0	8
fixed	7	10	10	1624848	1	4	4	1	0	895	1	4	0	224	10	0	0	8
fixed	7	10	11	1626357	5	2	2	1	0	872	1	4	0	208	11	0	0	9
fixed	7	10	12	1628160	4	3	3	1	0	787	1	4	0	216	12	0	0	10
