type	block	sequ.	trial	time	Pos.	Color	Button	NumRsp	Resp_1	RT_1	R_Code	Resp_2	RT_2	Trigg.	n_hit	n_inc	n_miss	score_%

random	1	1	1	2121	6	1	1	1	0	493	1	4	0	8	1	0	0	100
random	1	1	2	3379	4	4	4	1	0	672	1	4	0	32	2	0	0	100
random	1	1	3	4378	2	2	2	1	0	766	1	4	0	16	3	0	0	100
random	1	1	4	6058	3	3	3	1	0	815	1	4	0	24	4	0	0	100
random	1	1	5	7523	5	2	2	1	0	881	1	4	0	16	5	0	0	100
random	1	1	6	9162	1	4	4	1	0	819	1	4	0	32	6	0	0	100
random	1	1	7	10402	6	1	1	1	0	423	1	4	0	8	7	0	0	100
random	1	1	8	11588	2	3	3	1	0	909	1	4	0	24	8	0	0	100
random	1	1	9	13308	4	2	2	1	0	652	1	4	0	16	9	0	0	100
random	1	1	10	14386	1	1	1	1	0	718	1	4	0	8	10	0	0	100
random	1	1	11	15647	5	4	4	1	0	721	1	4	0	32	11	0	0	100
random	1	1	12	17187	3	3	3	1	0	984	1	4	0	24	12	0	0	100
random	1	1	13	19231	5	2	2	1	0	944	1	4	0	16	13	0	0	100
random	1	1	14	20672	1	4	4	1	0	772	1	4	0	32	14	0	0	100
random	1	1	15	22061	3	1	1	1	0	689	1	4	0	8	15	0	0	100
random	1	1	16	23520	4	3	3	1	0	827	1	4	0	24	16	0	0	100
random	1	1	17	24926	6	4	4	1	0	832	1	4	0	32	17	0	0	100
random	1	1	18	26677	2	1	1	1	0	750	1	4	0	8	18	0	0	100
random	1	1	19	27794	5	3	3	1	0	934	1	4	0	24	19	0	0	100
random	1	1	20	29526	2	2	2	1	0	685	1	4	0	16	20	0	0	100
random	1	1	21	31104	3	3	3	1	0	1378	1	4	0	24	21	0	0	100
random	1	1	22	33274	6	1	1	1	0	806	1	4	0	8	22	0	0	100
random	1	1	23	34424	4	2	2	1	0	757	1	4	0	16	23	0	0	100
random	1	1	24	36053	1	4	4	1	0	881	1	4	0	32	24	0	0	100
random	1	1	25	37944	4	3	3	2	0	1168	2	4	0	24	25	0	0	100
random	1	1	26	39491	2	1	1	1	0	751	1	4	0	8	26	0	0	100
random	1	1	27	40627	5	2	2	1	0	799	1	4	0	16	27	0	0	100
random	1	1	28	42144	6	4	4	1	0	718	1	4	0	32	28	0	0	100
random	1	1	29	43330	1	3	3	1	0	788	1	4	0	24	29	0	0	100
random	1	1	30	44615	5	2	2	1	0	621	1	4	0	16	30	0	0	100
random	1	1	31	45864	2	1	1	1	0	640	1	4	0	8	31	0	0	100
random	1	1	32	46994	3	3	3	1	0	689	1	4	0	24	32	0	0	100
random	1	1	33	48195	6	4	4	1	0	790	1	4	0	32	33	0	0	100
random	1	1	34	49644	4	2	2	1	0	816	1	4	0	16	34	0	0	100
random	1	1	35	51385	3	4	4	1	0	823	1	4	0	32	35	0	0	100
random	1	1	36	53146	1	1	1	1	0	636	1	4	0	8	36	0	0	100
random	1	1	37	54870	3	4	4	1	0	915	1	4	0	32	37	0	0	100
random	1	1	38	56654	5	3	3	2	0	1032	2	4	0	24	38	0	0	100
random	1	1	39	58348	6	1	1	1	0	1032	1	4	0	8	39	0	0	100
random	1	1	40	59918	1	2	2	1	0	765	1	4	0	16	40	0	0	100
random	1	1	41	61146	2	3	3	1	0	746	1	4	0	24	41	0	0	100
random	1	1	42	62465	4	4	4	1	0	730	1	4	0	32	42	0	0	100
random	1	1	43	63868	1	2	2	1	0	766	1	4	0	16	43	0	0	100
random	1	1	44	65654	6	3	3	1	0	739	1	4	0	24	44	0	0	100
random	1	1	45	66708	3	1	1	2	0	1142	2	4	0	8	45	0	0	100
random	1	1	46	68155	4	4	4	1	0	728	1	4	0	32	46	0	0	100
random	1	1	47	69233	2	2	2	1	0	947	1	4	0	16	47	0	0	100
random	1	1	48	70652	5	1	1	1	0	815	1	4	0	8	48	0	0	100
random	1	1	49	72747	2	3	3	1	0	1198	1	4	0	24	49	0	0	100
random	1	1	50	74615	3	1	1	1	0	767	1	4	0	8	50	0	0	100
random	1	1	51	76377	1	4	4	1	0	804	1	4	0	32	51	0	0	100
random	1	1	52	77857	5	3	3	1	0	1133	1	4	0	24	52	0	0	100
random	1	1	53	79886	3	2	2	1	0	704	1	4	0	16	53	0	0	100
random	1	1	54	80998	6	4	4	1	0	824	1	4	0	32	54	0	0	100
random	1	1	55	82172	4	2	2	1	0	935	1	4	0	16	55	0	0	100
random	1	1	56	83717	1	1	1	1	0	742	1	4	0	8	56	0	0	100
random	1	1	57	85341	5	4	4	1	0	761	1	4	0	32	57	0	0	100
random	1	1	58	86650	2	1	1	1	0	945	1	4	0	8	58	0	0	100
random	1	1	59	87964	6	2	2	1	0	898	1	4	0	16	59	0	0	100
random	1	1	60	89228	4	3	3	1	0	804	1	4	0	24	60	0	0	100
random	1	1	61	91075	1	2	2	1	0	1133	1	4	0	16	61	0	0	100
random	1	1	62	92909	6	4	4	1	0	800	1	4	0	32	62	0	0	100
random	1	1	63	94090	4	1	1	1	0	590	1	4	0	8	63	0	0	100
random	1	1	64	95602	2	2	2	1	0	718	1	4	0	16	64	0	0	100
random	1	1	65	96944	4	3	3	1	0	693	1	4	0	24	65	0	0	100
random	1	1	66	98232	3	1	1	1	0	727	1	4	0	8	66	0	0	100
random	1	1	67	99311	1	3	3	1	0	881	1	4	0	24	67	0	0	100
random	1	1	68	101171	5	4	4	1	0	922	1	4	0	32	68	0	0	100
random	1	1	69	102745	2	2	2	2	0	2008	2	4	0	16	69	0	0	100
random	1	1	70	105208	3	1	1	1	0	783	1	4	0	8	70	0	0	100
random	1	1	71	106738	5	4	4	1	0	742	1	4	0	32	71	0	0	100
random	1	1	72	107868	6	3	3	1	0	822	1	4	0	24	72	0	0	100
random	1	1	73	109403	2	1	1	1	0	941	1	4	0	8	73	0	0	100
random	1	1	74	111128	5	3	3	1	0	1516	1	4	0	24	74	0	0	100
random	1	1	75	113180	1	4	4	1	0	749	1	4	0	32	75	0	0	100
random	1	1	76	114507	6	2	2	1	0	613	1	4	0	16	76	0	0	100
random	1	1	77	115576	2	1	1	1	0	616	1	4	0	8	77	0	0	100
random	1	1	78	116734	4	4	4	1	0	879	1	4	0	32	78	0	0	100
random	1	1	79	118248	3	2	2	1	0	743	1	4	0	16	79	0	0	100
random	1	1	80	119531	4	3	3	1	0	736	1	4	0	24	80	0	0	100
random	1	1	81	120805	1	4	4	1	0	1163	1	4	0	32	81	0	0	100
random	1	1	82	122412	5	1	1	1	0	519	1	4	0	8	82	0	0	100
random	1	1	83	123826	3	2	2	1	0	763	1	4	0	16	83	0	0	100
random	1	1	84	125244	6	3	3	1	0	702	1	4	0	24	84	0	0	100
random	1	1	85	126763	3	2	2	1	0	1038	1	4	0	16	85	0	0	100
random	1	1	86	128119	1	3	3	1	0	685	1	4	0	24	86	0	0	100
random	1	1	87	129135	4	4	4	1	0	698	1	4	0	32	87	0	0	100
random	1	1	88	130366	2	1	1	1	0	374	1	4	0	8	88	0	0	100
random	1	1	89	131083	6	4	4	1	0	871	1	4	0	32	89	0	0	100
random	1	1	90	132894	3	3	3	1	0	826	1	4	0	24	90	0	0	100
random	1	1	91	134667	5	4	4	1	0	927	1	4	0	32	91	0	0	100
random	1	1	92	136176	1	2	2	1	0	1408	1	4	0	16	92	0	0	100
random	1	1	93	138614	5	1	1	1	0	576	1	4	0	8	93	0	0	100
random	1	1	94	139957	4	3	3	1	0	568	1	4	0	24	94	0	0	100
random	1	1	95	141498	6	1	1	1	0	926	1	4	0	8	95	0	0	100
random	1	1	96	143016	2	2	2	1	0	910	1	4	0	16	96	0	0	100
random	1	1	97	144991	4	3	3	1	0	1074	1	4	0	24	97	0	0	100
random	1	1	98	146588	3	2	2	1	0	663	1	4	0	16	98	0	0	100
random	1	1	99	147621	6	3	3	1	0	915	1	4	0	24	99	0	0	100
random	1	1	100	149105	1	4	4	1	0	788	1	4	0	32	100	0	0	100
random	1	1	101	150458	4	1	1	1	0	675	1	4	0	8	101	0	0	100
random	1	1	102	151507	5	2	2	1	0	974	1	4	0	16	102	0	0	100
random	1	1	103	153298	2	4	4	1	0	746	1	4	0	32	103	0	0	100
random	1	1	104	154336	3	1	1	1	0	934	1	4	0	8	104	0	0	100
random	1	1	105	156209	1	3	3	1	0	791	1	4	0	24	105	0	0	100
random	1	1	106	157353	2	2	2	1	0	838	1	4	0	16	106	0	0	100
random	1	1	107	158926	5	4	4	1	0	700	1	4	0	32	107	0	0	100
random	1	1	108	160077	6	1	1	1	0	723	1	4	0	8	108	0	0	100
random	1	1	109	161464	5	4	4	1	0	1088	1	4	0	32	109	0	0	100
random	1	1	110	163458	6	3	3	1	0	1404	1	4	0	24	110	0	0	100
random	1	1	111	165436	2	2	2	1	0	568	1	4	0	16	111	0	0	100
random	1	1	112	167026	3	1	1	1	0	676	1	4	0	8	112	0	0	100
random	1	1	113	168417	1	2	2	1	0	778	1	4	0	16	113	0	0	100
random	1	1	114	169581	2	3	3	1	0	809	1	4	0	24	114	0	0	100
random	1	1	115	171352	3	1	1	1	0	781	1	4	0	8	115	0	0	100
random	1	1	116	172595	4	4	4	1	0	785	1	4	0	32	116	0	0	100
random	1	1	117	173902	6	1	1	1	0	986	1	4	0	8	117	0	0	100
random	1	1	118	175193	5	3	3	1	0	859	1	4	0	24	118	0	0	100
random	1	1	119	176625	1	4	4	1	0	686	1	4	0	32	119	0	0	100
random	1	1	120	178108	4	2	2	1	0	679	1	4	0	16	120	0	0	100
fixed	2	1	1	179857	4	1	1	1	0	1245	1	4	0	40	1	0	0	100
fixed	2	1	2	182143	1	2	2	1	0	1005	1	4	0	48	2	0	0	100
fixed	2	1	3	183875	6	4	4	1	0	643	1	4	0	64	3	0	0	100
fixed	2	1	4	184896	2	1	1	1	0	784	1	4	0	40	4	0	0	100
fixed	2	1	5	186681	5	3	3	1	0	908	1	4	0	56	5	0	0	100
fixed	2	1	6	188417	6	4	4	1	0	683	1	4	0	64	6	0	0	100
fixed	2	1	7	189842	3	1	1	1	0	735	1	4	0	40	7	0	0	100
fixed	2	1	8	191042	2	3	3	1	0	1092	1	4	0	56	8	0	0	100
fixed	2	1	9	193075	3	2	2	1	0	597	1	4	0	48	9	0	0	100
fixed	2	1	10	194636	1	4	4	1	0	548	1	4	0	64	10	0	0	100
fixed	2	1	11	195895	5	2	2	1	0	686	1	4	0	48	11	0	0	100
fixed	2	1	12	197573	4	3	3	1	0	783	1	4	0	56	12	0	0	100
fixed	2	2	1	199140	4	1	1	1	0	740	1	4	0	40	13	0	0	100
fixed	2	2	2	200416	1	2	2	2	0	1263	2	4	0	48	14	0	0	100
fixed	2	2	3	202479	6	4	4	1	0	703	1	4	0	64	15	0	0	100
fixed	2	2	4	204227	2	1	1	1	0	1141	1	4	0	40	16	0	0	100
fixed	2	2	5	206141	5	3	3	1	0	1108	1	4	0	56	17	0	0	100
fixed	2	2	6	207545	6	4	4	1	0	704	1	4	0	64	18	0	0	100
fixed	2	2	7	208760	3	1	1	1	0	669	1	4	0	40	19	0	0	100
fixed	2	2	8	210214	2	3	3	1	0	736	1	4	0	56	20	0	0	100
fixed	2	2	9	211444	3	2	2	1	0	628	1	4	0	48	21	0	0	100
fixed	2	2	10	212623	1	4	4	1	0	745	1	4	0	64	22	0	0	100
fixed	2	2	11	214102	5	2	2	1	0	771	1	4	0	48	23	0	0	100
fixed	2	2	12	215590	4	3	3	1	0	772	1	4	0	56	24	0	0	100
fixed	2	3	1	216917	4	1	1	1	0	715	1	4	0	40	25	0	0	100
fixed	2	3	2	218276	1	2	2	2	0	1082	2	4	0	48	26	0	0	100
fixed	2	3	3	220000	6	4	4	1	0	801	1	4	0	64	27	0	0	100
fixed	2	3	4	221766	2	1	1	1	0	678	1	4	0	40	28	0	0	100
fixed	2	3	5	223157	5	3	3	1	0	915	1	4	0	56	29	0	0	100
fixed	2	3	6	224656	6	4	4	1	0	1580	1	4	0	64	30	0	0	100
fixed	2	3	7	226944	3	1	1	1	0	635	1	4	0	40	31	0	0	100
fixed	2	3	8	228223	2	3	3	2	0	989	2	4	0	56	32	0	0	100
fixed	2	3	9	229761	3	2	2	1	0	588	1	4	0	48	33	0	0	100
fixed	2	3	10	230924	1	4	4	1	0	698	1	4	0	64	34	0	0	100
fixed	2	3	11	232366	5	2	2	1	0	846	1	4	0	48	35	0	0	100
fixed	2	3	12	234073	4	3	3	1	0	653	1	4	0	56	36	0	0	100
fixed	2	4	1	235880	4	1	1	1	0	744	1	4	0	40	37	0	0	100
fixed	2	4	2	237206	1	2	2	2	0	1296	2	4	0	48	38	0	0	100
fixed	2	4	3	239441	6	4	4	1	0	706	1	4	0	64	39	0	0	100
fixed	2	4	4	240807	2	1	1	1	0	992	1	4	0	40	40	0	0	100
fixed	2	4	5	242249	5	3	3	1	0	779	1	4	0	56	41	0	0	100
fixed	2	4	6	243554	6	4	4	1	0	723	1	4	0	64	42	0	0	100
fixed	2	4	7	244717	3	1	1	1	0	722	1	4	0	40	43	0	0	100
fixed	2	4	8	246302	2	3	3	1	0	951	1	4	0	56	44	0	0	100
fixed	2	4	9	247573	3	2	2	1	0	786	1	4	0	48	45	0	0	100
fixed	2	4	10	249332	1	4	4	1	0	655	1	4	0	64	46	0	0	100
fixed	2	4	11	250563	5	2	2	1	0	883	1	4	0	48	47	0	0	100
fixed	2	4	12	251823	4	3	3	1	0	733	1	4	0	56	48	0	0	100
fixed	2	5	1	253407	4	1	1	1	0	746	1	4	0	40	49	0	0	100
fixed	2	5	2	254923	1	2	2	1	0	1490	1	4	0	48	50	0	0	100
fixed	2	5	3	256711	6	4	4	1	0	694	1	4	0	64	51	0	0	100
fixed	2	5	4	257906	2	1	1	1	0	1020	1	4	0	40	52	0	0	100
fixed	2	5	5	259701	5	3	3	1	0	944	1	4	0	56	53	0	0	100
fixed	2	5	6	260981	6	4	4	1	0	1953	1	4	0	64	54	0	0	100
fixed	2	5	7	263773	3	1	1	1	0	723	1	4	0	40	55	0	0	100
fixed	2	5	8	264882	2	3	3	1	0	1629	1	4	0	56	56	0	0	100
fixed	2	5	9	267489	3	2	2	1	0	653	1	4	0	48	57	0	0	100
fixed	2	5	10	268520	1	4	4	1	0	682	1	4	0	64	58	0	0	100
fixed	2	5	11	269962	5	2	2	1	0	677	1	4	0	48	59	0	0	100
fixed	2	5	12	271239	4	3	3	1	0	615	1	4	0	56	60	0	0	100
fixed	2	6	1	273072	4	1	1	1	0	745	1	4	0	40	61	0	0	100
fixed	2	6	2	274461	1	2	2	1	0	1254	1	4	0	48	62	0	0	100
fixed	2	6	3	276584	6	4	4	1	0	900	1	4	0	64	63	0	0	100
fixed	2	6	4	278151	2	1	1	1	0	762	1	4	0	40	64	0	0	100
fixed	2	6	5	279616	5	3	3	2	0	1708	2	4	0	56	65	0	0	100
fixed	2	6	6	282232	6	4	4	1	0	893	1	4	0	64	66	0	0	100
fixed	2	6	7	283448	3	1	1	1	0	754	1	4	0	40	67	0	0	100
fixed	2	6	8	284661	2	3	3	1	0	927	1	4	0	56	68	0	0	100
fixed	2	6	9	286104	3	2	2	1	0	465	1	4	0	48	69	0	0	100
fixed	2	6	10	287199	1	4	4	1	0	899	1	4	0	64	70	0	0	100
fixed	2	6	11	288882	5	2	2	1	0	692	1	4	0	48	71	0	0	100
fixed	2	6	12	290392	4	3	3	1	0	796	1	4	0	56	72	0	0	100
fixed	2	7	1	292001	4	1	1	1	0	911	1	4	0	40	73	0	0	100
fixed	2	7	2	293848	1	2	2	2	0	1289	2	4	0	48	74	0	0	100
fixed	2	7	3	295573	6	4	4	1	0	657	1	4	0	64	75	0	0	100
fixed	2	7	4	296825	2	1	1	1	0	827	1	4	0	40	76	0	0	100
fixed	2	7	5	297955	5	3	3	1	0	875	1	4	0	56	77	0	0	100
fixed	2	7	6	299261	6	4	4	1	0	884	1	4	0	64	78	0	0	100
fixed	2	7	7	300987	3	1	1	1	0	707	1	4	0	40	79	0	0	100
fixed	2	7	8	302049	2	3	3	1	0	910	1	4	0	56	80	0	0	100
fixed	2	7	9	303491	3	2	2	1	0	505	1	4	0	48	81	0	0	100
fixed	2	7	10	304343	1	4	4	1	0	733	1	4	0	64	82	0	0	100
fixed	2	7	11	306038	5	2	2	1	0	725	1	4	0	48	83	0	0	100
fixed	2	7	12	307628	4	3	3	1	0	746	1	4	0	56	84	0	0	100
fixed	2	8	1	309361	4	1	1	1	0	752	1	4	0	40	85	0	0	100
fixed	2	8	2	310770	1	2	2	1	0	813	1	4	0	48	86	0	0	100
fixed	2	8	3	311944	6	4	4	1	0	763	1	4	0	64	87	0	0	100
fixed	2	8	4	313251	2	1	1	1	0	1163	1	4	0	40	88	0	0	100
fixed	2	8	5	315263	5	3	3	1	0	910	1	4	0	56	89	0	0	100
fixed	2	8	6	316647	6	4	4	1	0	1003	1	4	0	64	90	0	0	100
fixed	2	8	7	318693	3	1	1	1	0	693	1	4	0	40	91	0	0	100
fixed	2	8	8	320371	2	3	3	1	0	814	1	4	0	56	92	0	0	100
fixed	2	8	9	322113	3	2	2	1	0	692	1	4	0	48	93	0	0	100
fixed	2	8	10	323670	1	4	4	1	0	770	1	4	0	64	94	0	0	100
fixed	2	8	11	324856	5	2	2	1	0	960	1	4	0	48	95	0	0	100
fixed	2	8	12	326476	4	3	3	1	0	747	1	4	0	56	96	0	0	100
fixed	2	9	1	328006	4	1	1	1	0	754	1	4	0	40	97	0	0	100
fixed	2	9	2	329657	1	2	2	1	0	709	1	4	0	48	98	0	0	100
fixed	2	9	3	331013	6	4	4	1	0	731	1	4	0	64	99	0	0	100
fixed	2	9	4	332727	2	1	1	1	0	587	1	4	0	40	100	0	0	100
fixed	2	9	5	334072	5	3	3	1	0	737	1	4	0	56	101	0	0	100
fixed	2	9	6	335458	6	4	4	1	0	847	1	4	0	64	102	0	0	100
fixed	2	9	7	336878	3	1	1	1	0	1130	1	4	0	40	103	0	0	100
fixed	2	9	8	338770	2	3	3	1	0	723	1	4	0	56	104	0	0	100
fixed	2	9	9	339979	3	2	2	1	0	552	1	4	0	48	105	0	0	100
fixed	2	9	10	341540	1	4	4	1	0	861	1	4	0	64	106	0	0	100
fixed	2	9	11	342740	5	2	2	1	0	747	1	4	0	48	107	0	0	100
fixed	2	9	12	344360	4	3	3	1	0	670	1	4	0	56	108	0	0	100
fixed	2	10	1	346034	4	1	1	1	0	551	1	4	0	40	109	0	0	100
fixed	2	10	2	347047	1	2	2	1	0	948	1	4	0	48	110	0	0	100
fixed	2	10	3	348995	6	4	4	1	0	705	1	4	0	64	111	0	0	100
fixed	2	10	4	350428	2	1	1	1	0	733	1	4	0	40	112	0	0	100
fixed	2	10	5	351594	5	3	3	1	0	852	1	4	0	56	113	0	0	100
fixed	2	10	6	353218	6	4	4	1	0	838	1	4	0	64	114	0	0	100
fixed	2	10	7	354886	3	1	1	1	0	768	1	4	0	40	115	0	0	100
fixed	2	10	8	356058	2	3	3	1	0	1006	1	4	0	56	116	0	0	100
fixed	2	10	9	358065	3	2	2	1	0	673	1	4	0	48	117	0	0	100
fixed	2	10	10	359694	1	4	4	1	0	765	1	4	0	64	118	0	0	100
fixed	2	10	11	360779	5	2	2	1	0	687	1	4	0	48	119	0	0	100
fixed	2	10	12	361922	4	3	3	1	0	654	1	4	0	56	120	0	0	100
fixed	3	1	1	364043	4	1	1	1	0	452	1	4	0	72	1	0	0	100
fixed	3	1	2	365066	1	2	2	2	0	1033	2	4	0	80	2	0	0	100
fixed	3	1	3	366781	6	4	4	1	0	705	1	4	0	96	3	0	0	100
fixed	3	1	4	368041	2	1	1	1	0	1083	1	4	0	72	4	0	0	100
fixed	3	1	5	370098	5	3	3	1	0	756	1	4	0	88	5	0	0	100
fixed	3	1	6	371771	6	4	4	1	0	965	1	4	0	96	6	0	0	100
fixed	3	1	7	373763	3	1	1	1	0	729	1	4	0	72	7	0	0	100
fixed	3	1	8	374999	2	3	3	2	0	964	2	4	0	88	8	0	0	100
fixed	3	1	9	376247	3	2	2	1	0	695	1	4	0	80	9	0	0	100
fixed	3	1	10	377658	1	4	4	1	0	716	1	4	0	96	10	0	0	100
fixed	3	1	11	379271	5	2	2	1	0	727	1	4	0	80	11	0	0	100
fixed	3	1	12	380592	4	3	3	1	0	623	1	4	0	88	12	0	0	100
fixed	3	2	1	382507	4	1	1	1	0	846	1	4	0	72	13	0	0	100
fixed	3	2	2	384295	1	2	2	1	0	738	1	4	0	80	14	0	0	100
fixed	3	2	3	385802	6	4	4	1	0	722	1	4	0	96	15	0	0	100
fixed	3	2	4	387031	2	1	1	1	0	831	1	4	0	72	16	0	0	100
fixed	3	2	5	388302	5	3	3	2	0	1376	2	4	0	88	17	0	0	100
fixed	3	2	6	390373	6	4	4	1	0	769	1	4	0	96	18	0	0	100
fixed	3	2	7	392100	3	1	1	1	0	848	1	4	0	72	19	0	0	100
fixed	3	2	8	393326	2	3	3	1	0	764	1	4	0	88	20	0	0	100
fixed	3	2	9	394657	3	2	2	1	0	763	1	4	0	80	21	0	0	100
fixed	3	2	10	396246	1	4	4	1	0	808	1	4	0	96	22	0	0	100
fixed	3	2	11	397752	5	2	2	1	0	760	1	4	0	80	23	0	0	100
fixed	3	2	12	399084	4	3	3	1	0	752	1	4	0	88	24	0	0	100
fixed	3	3	1	401102	4	1	1	1	0	1138	1	4	0	72	25	0	0	100
fixed	3	3	2	402700	1	2	2	1	0	839	1	4	0	80	26	0	0	100
fixed	3	3	3	404240	6	4	4	1	0	662	1	4	0	96	27	0	0	100
fixed	3	3	4	405511	2	1	1	1	0	711	1	4	0	72	28	0	0	100
fixed	3	3	5	407245	5	3	3	1	0	839	1	4	0	88	29	0	0	100
fixed	3	3	6	409088	6	4	4	1	0	688	1	4	0	96	30	0	0	100
fixed	3	3	7	410160	3	1	1	1	0	691	1	4	0	72	31	0	0	100
fixed	3	3	8	411814	2	3	3	1	0	901	1	4	0	88	32	0	0	100
fixed	3	3	9	413521	3	2	2	1	0	652	1	4	0	80	33	0	0	100
fixed	3	3	10	414627	1	4	4	1	0	1134	1	4	0	96	34	0	0	100
fixed	3	3	11	416225	5	2	2	1	0	946	1	4	0	80	35	0	0	100
fixed	3	3	12	417526	4	3	3	1	0	747	1	4	0	88	36	0	0	100
fixed	3	4	1	419264	4	1	1	1	0	713	1	4	0	72	37	0	0	100
fixed	3	4	2	420296	1	2	2	2	0	1478	2	4	0	80	38	0	0	100
fixed	3	4	3	422174	6	4	4	1	0	734	1	4	0	96	39	0	0	100
fixed	3	4	4	423291	2	1	1	1	0	718	1	4	0	72	40	0	0	100
fixed	3	4	5	424619	5	3	3	1	0	943	1	4	0	88	41	0	0	100
fixed	3	4	6	426556	6	4	4	1	0	748	1	4	0	96	42	0	0	100
fixed	3	4	7	427932	3	1	1	1	0	762	1	4	0	72	43	0	0	100
fixed	3	4	8	429691	2	3	3	1	0	879	1	4	0	88	44	0	0	100
fixed	3	4	9	431488	3	2	2	1	0	412	1	4	0	80	45	0	0	100
fixed	3	4	10	432352	1	4	4	1	0	783	1	4	0	96	46	0	0	100
fixed	3	4	11	433415	5	2	2	1	0	754	1	4	0	80	47	0	0	100
fixed	3	4	12	434757	4	3	3	2	0	1033	2	4	0	88	48	0	0	100
fixed	3	5	1	436773	4	1	1	1	0	1107	1	4	0	72	49	0	0	100
fixed	3	5	2	438741	1	2	2	1	0	1193	1	4	0	80	50	0	0	100
fixed	3	5	3	440407	6	4	4	1	0	730	1	4	0	96	51	0	0	100
fixed	3	5	4	441913	2	1	1	1	0	722	1	4	0	72	52	0	0	100
fixed	3	5	5	443231	5	3	3	1	0	786	1	4	0	88	53	0	0	100
fixed	3	5	6	444570	6	4	4	1	0	1010	1	4	0	96	54	0	0	100
fixed	3	5	7	446347	3	1	1	1	0	782	1	4	0	72	55	0	0	100
fixed	3	5	8	447429	2	3	3	1	0	865	1	4	0	88	56	0	0	100
fixed	3	5	9	449215	3	2	2	1	0	773	1	4	0	80	57	0	0	100
fixed	3	5	10	450921	1	4	4	1	0	957	1	4	0	96	58	0	0	100
fixed	3	5	11	452286	5	2	2	1	0	755	1	4	0	80	59	0	0	100
fixed	3	5	12	453943	4	3	3	1	0	741	1	4	0	88	60	0	0	100
fixed	3	6	1	455436	4	1	1	1	0	837	1	4	0	72	61	0	0	100
fixed	3	6	2	457155	1	2	2	1	0	1532	1	4	0	80	62	0	0	100
fixed	3	6	3	459513	6	4	4	1	0	824	1	4	0	96	63	0	0	100
fixed	3	6	4	460967	2	1	1	1	0	635	1	4	0	72	64	0	0	100
fixed	3	6	5	462440	5	3	3	1	0	724	1	4	0	88	65	0	0	100
fixed	3	6	6	463963	6	4	4	1	0	1332	1	4	0	96	66	0	0	100
fixed	3	6	7	466250	3	1	1	1	0	659	1	4	0	72	67	0	0	100
fixed	3	6	8	467431	2	3	3	1	0	833	1	4	0	88	68	0	0	100
fixed	3	6	9	468583	3	2	2	1	0	672	1	4	0	80	69	0	0	100
fixed	3	6	10	469749	1	4	4	1	0	799	1	4	0	96	70	0	0	100
fixed	3	6	11	471412	5	2	2	1	0	640	1	4	0	80	71	0	0	100
fixed	3	6	12	472697	4	3	3	1	0	722	1	4	0	88	72	0	0	100
fixed	3	7	1	474416	4	1	1	1	0	817	1	4	0	72	73	0	0	100
fixed	3	7	2	475690	1	2	2	1	0	763	1	4	0	80	74	0	0	100
fixed	3	7	3	477182	6	4	4	1	0	836	1	4	0	96	75	0	0	100
fixed	3	7	4	478555	2	1	1	1	0	762	1	4	0	72	76	0	0	100
fixed	3	7	5	479649	5	3	3	1	0	948	1	4	0	88	77	0	0	100
fixed	3	7	6	481154	6	4	4	1	0	700	1	4	0	96	78	0	0	100
fixed	3	7	7	482749	3	1	1	1	0	673	1	4	0	72	79	0	0	100
fixed	3	7	8	484120	2	3	3	1	0	1214	1	4	0	88	80	0	0	100
fixed	3	7	9	486022	3	2	2	2	0	1118	2	4	0	80	81	0	0	100
fixed	3	7	10	487598	1	4	4	1	0	803	1	4	0	96	82	0	0	100
fixed	3	7	11	488710	5	2	2	1	0	748	1	4	0	80	83	0	0	100
fixed	3	7	12	489794	4	3	3	1	0	798	1	4	0	88	84	0	0	100
fixed	3	8	1	491474	4	1	1	1	0	671	1	4	0	72	85	0	0	100
fixed	3	8	2	493158	1	2	2	1	0	872	1	4	0	80	86	0	0	100
fixed	3	8	3	494709	6	4	4	1	0	1102	1	4	0	96	87	0	0	100
fixed	3	8	4	496661	2	1	1	1	0	707	1	4	0	72	88	0	0	100
fixed	3	8	5	498404	5	3	3	1	0	1186	1	4	0	88	89	0	0	100
fixed	3	8	6	500270	6	4	4	1	0	738	1	4	0	96	90	0	0	100
fixed	3	8	7	501686	3	1	1	1	0	638	1	4	0	72	91	0	0	100
fixed	3	8	8	502765	2	3	3	1	0	977	1	4	0	88	92	0	0	100
fixed	3	8	9	504314	3	2	2	1	0	647	1	4	0	80	93	0	0	100
fixed	3	8	10	505551	1	4	4	1	0	779	1	4	0	96	94	0	0	100
fixed	3	8	11	507318	5	2	2	1	0	744	1	4	0	80	95	0	0	100
fixed	3	8	12	509074	4	3	3	1	0	1405	1	4	0	88	96	0	0	100
fixed	3	9	1	511707	4	1	1	1	0	958	1	4	0	72	97	0	0	100
fixed	3	9	2	513510	1	2	2	1	0	1289	1	4	0	80	98	0	0	100
fixed	3	9	3	515313	6	4	4	1	0	653	1	4	0	96	99	0	0	100
fixed	3	9	4	516933	2	1	1	1	0	1441	1	4	0	72	100	0	0	100
fixed	3	9	5	518945	5	3	3	1	0	891	1	4	0	88	101	0	0	100
fixed	3	9	6	520261	6	4	4	1	0	1083	1	4	0	96	102	0	0	100
fixed	3	9	7	521825	3	1	1	1	0	745	1	4	0	72	103	0	0	100
fixed	3	9	8	523270	2	3	3	1	0	812	1	4	0	88	104	0	0	100
fixed	3	9	9	524378	3	2	2	1	0	829	1	4	0	80	105	0	0	100
fixed	3	9	10	526223	1	4	4	2	0	1583	2	4	0	96	106	0	0	100
fixed	3	9	11	528442	5	2	2	1	0	817	1	4	0	80	107	0	0	100
fixed	3	9	12	530172	4	3	3	1	0	832	1	4	0	88	108	0	0	100
fixed	3	10	1	531790	4	1	1	1	0	803	1	4	0	72	109	0	0	100
fixed	3	10	2	532966	1	2	2	1	0	977	1	4	0	80	110	0	0	100
fixed	3	10	3	534803	6	4	4	1	0	1036	1	4	0	96	111	0	0	100
fixed	3	10	4	536354	2	1	1	1	0	1154	1	4	0	72	112	0	0	100
fixed	3	10	5	538047	5	3	3	1	0	914	1	4	0	88	113	0	0	100
fixed	3	10	6	539742	6	4	4	1	0	850	1	4	0	96	114	0	0	100
fixed	3	10	7	541135	3	1	1	1	0	695	1	4	0	72	115	0	0	100
fixed	3	10	8	542294	2	3	3	1	0	791	1	4	0	88	116	0	0	100
fixed	3	10	9	543774	3	2	2	1	0	616	1	4	0	80	117	0	0	100
fixed	3	10	10	544793	1	4	4	1	0	788	1	4	0	96	118	0	0	100
fixed	3	10	11	546356	5	2	2	1	0	978	1	4	0	80	119	0	0	100
fixed	3	10	12	548315	4	3	3	1	0	703	1	4	0	88	120	0	0	100
fixed	4	1	1	665215	4	1	1	1	0	1600	1	4	0	104	1	0	0	100
fixed	4	1	2	667714	1	2	2	1	0	950	1	4	0	112	2	0	0	100
fixed	4	1	3	669149	6	4	4	1	0	569	1	4	0	128	3	0	0	100
fixed	4	1	4	670080	2	1	1	1	0	658	1	4	0	104	4	0	0	100
fixed	4	1	5	671350	5	3	3	1	0	740	1	4	0	120	5	0	0	100
fixed	4	1	6	672497	6	4	4	1	0	908	1	4	0	128	6	0	0	100
fixed	4	1	7	674313	3	1	1	1	0	887	1	4	0	104	7	0	0	100
fixed	4	1	8	675706	2	3	3	1	0	804	1	4	0	120	8	0	0	100
fixed	4	1	9	677428	3	2	2	1	0	714	1	4	0	112	9	0	0	100
fixed	4	1	10	679092	1	4	4	1	0	772	1	4	0	128	10	0	0	100
fixed	4	1	11	680836	5	2	2	1	0	690	1	4	0	112	11	0	0	100
fixed	4	1	12	681946	4	3	3	1	0	867	1	4	0	120	12	0	0	100
fixed	4	2	1	683378	4	1	1	1	0	854	1	4	0	104	13	0	0	100
fixed	4	2	2	685210	1	2	2	1	0	881	1	4	0	112	14	0	0	100
fixed	4	2	3	686695	6	4	4	1	0	594	1	4	0	128	15	0	0	100
fixed	4	2	4	687776	2	1	1	1	0	668	1	4	0	104	16	0	0	100
fixed	4	2	5	689307	5	3	3	1	0	787	1	4	0	120	17	0	0	100
fixed	4	2	6	690898	6	4	4	1	0	872	1	4	0	128	18	0	0	100
fixed	4	2	7	692540	3	1	1	1	0	619	1	4	0	104	19	0	0	100
fixed	4	2	8	693551	2	3	3	1	0	959	1	4	0	120	20	0	0	100
fixed	4	2	9	695272	3	2	2	1	0	647	1	4	0	112	21	0	0	100
fixed	4	2	10	696295	1	4	4	1	0	939	1	4	0	128	22	0	0	100
fixed	4	2	11	697970	5	2	2	1	0	701	1	4	0	112	23	0	0	100
fixed	4	2	12	699124	4	3	3	1	0	660	1	4	0	120	24	0	0	100
fixed	4	3	1	701038	4	1	1	1	0	898	1	4	0	104	25	0	0	100
fixed	4	3	2	702312	1	2	2	1	0	1053	1	4	0	112	26	0	0	100
fixed	4	3	3	703916	6	4	4	1	0	721	1	4	0	128	27	0	0	100
fixed	4	3	4	705435	2	1	1	1	0	656	1	4	0	104	28	0	0	100
fixed	4	3	5	706696	5	3	3	1	0	771	1	4	0	120	29	0	0	100
fixed	4	3	6	708021	6	4	4	1	0	1555	1	4	0	128	30	0	0	100
fixed	4	3	7	710342	3	1	1	1	0	656	1	4	0	104	31	0	0	100
fixed	4	3	8	711346	2	3	3	1	0	662	1	4	0	120	32	0	0	100
fixed	4	3	9	712877	3	2	2	1	0	709	1	4	0	112	33	0	0	100
fixed	4	3	10	714213	1	4	4	1	0	1045	1	4	0	128	34	0	0	100
fixed	4	3	11	716107	5	2	2	1	0	644	1	4	0	112	35	0	0	100
fixed	4	3	12	717366	4	3	3	1	0	727	1	4	0	120	36	0	0	100
fixed	4	4	1	718732	4	1	1	1	0	693	1	4	0	104	37	0	0	100
fixed	4	4	2	719896	1	2	2	2	0	1164	2	4	0	112	38	0	0	100
fixed	4	4	3	721807	6	4	4	1	0	755	1	4	0	128	39	0	0	100
fixed	4	4	4	723087	2	1	1	1	0	821	1	4	0	104	40	0	0	100
fixed	4	4	5	724760	5	3	3	1	0	1254	1	4	0	120	41	0	0	100
fixed	4	4	6	726426	6	4	4	1	0	711	1	4	0	128	42	0	0	100
fixed	4	4	7	727681	3	1	1	1	0	658	1	4	0	104	43	0	0	100
fixed	4	4	8	729353	2	3	3	1	0	812	1	4	0	120	44	0	0	100
fixed	4	4	9	731028	3	2	2	1	0	644	1	4	0	112	45	0	0	100
fixed	4	4	10	732655	1	4	4	1	0	720	1	4	0	128	46	0	0	100
fixed	4	4	11	734261	5	2	2	1	0	724	1	4	0	112	47	0	0	100
fixed	4	4	12	735710	4	3	3	1	0	686	1	4	0	120	48	0	0	100
fixed	4	5	1	737528	4	1	1	1	0	1041	1	4	0	104	49	0	0	100
fixed	4	5	2	739543	1	2	2	2	0	1148	2	4	0	112	50	0	0	100
fixed	4	5	3	741517	6	4	4	1	0	752	1	4	0	128	51	0	0	100
fixed	4	5	4	743010	2	1	1	1	0	665	1	4	0	104	52	0	0	100
fixed	4	5	5	744351	5	3	3	1	0	784	1	4	0	120	53	0	0	100
fixed	4	5	6	746084	6	4	4	1	0	879	1	4	0	128	54	0	0	100
fixed	4	5	7	747508	3	1	1	1	0	626	1	4	0	104	55	0	0	100
fixed	4	5	8	748989	2	3	3	1	0	763	1	4	0	120	56	0	0	100
fixed	4	5	9	750084	3	2	2	1	0	541	1	4	0	112	57	0	0	100
fixed	4	5	10	751498	1	4	4	1	0	769	1	4	0	128	58	0	0	100
fixed	4	5	11	752638	5	2	2	1	0	865	1	4	0	112	59	0	0	100
fixed	4	5	12	753988	4	3	3	1	0	768	1	4	0	120	60	0	0	100
fixed	4	6	1	755990	4	1	1	1	0	747	1	4	0	104	61	0	0	100
fixed	4	6	2	757666	1	2	2	1	0	1036	1	4	0	112	62	0	0	100
fixed	4	6	3	759401	6	4	4	1	0	1611	1	4	0	128	63	0	0	100
fixed	4	6	4	761483	2	1	1	1	0	635	1	4	0	104	64	0	0	100
fixed	4	6	5	762744	5	3	3	1	0	765	1	4	0	120	65	0	0	100
fixed	4	6	6	764036	6	4	4	1	0	767	1	4	0	128	66	0	0	100
fixed	4	6	7	765108	3	1	1	1	0	825	1	4	0	104	67	0	0	100
fixed	4	6	8	766850	2	3	3	1	0	799	1	4	0	120	68	0	0	100
fixed	4	6	9	768558	3	2	2	1	0	631	1	4	0	112	69	0	0	100
fixed	4	6	10	770065	1	4	4	1	0	919	1	4	0	128	70	0	0	100
fixed	4	6	11	771736	5	2	2	1	0	752	1	4	0	112	71	0	0	100
fixed	4	6	12	773002	4	3	3	1	0	771	1	4	0	120	72	0	0	100
fixed	4	7	1	774335	4	1	1	1	0	1122	1	4	0	104	73	0	0	100
fixed	4	7	2	776249	1	2	2	1	0	857	1	4	0	112	74	0	0	100
fixed	4	7	3	777665	6	4	4	1	0	741	1	4	0	128	75	0	0	100
fixed	4	7	4	779111	2	1	1	1	0	976	1	4	0	104	76	0	0	100
fixed	4	7	5	780636	5	3	3	1	0	1175	1	4	0	120	77	0	0	100
fixed	4	7	6	782737	6	4	4	1	0	790	1	4	0	128	78	0	0	100
fixed	4	7	7	784045	3	1	1	1	0	783	1	4	0	104	79	0	0	100
fixed	4	7	8	785231	2	3	3	1	0	813	1	4	0	120	80	0	0	100
fixed	4	7	9	786764	3	2	2	1	0	675	1	4	0	112	81	0	0	100
fixed	4	7	10	788153	1	4	4	1	0	865	1	4	0	128	82	0	0	100
fixed	4	7	11	789985	5	2	2	1	0	772	1	4	0	112	83	0	0	100
fixed	4	7	12	791173	4	3	3	1	0	1105	1	4	0	120	84	0	0	100
fixed	4	8	1	793315	4	1	1	2	0	1318	2	4	0	104	85	0	0	100
fixed	4	8	2	795575	1	2	2	1	0	926	1	4	0	112	86	0	0	100
fixed	4	8	3	796830	6	4	4	1	0	969	1	4	0	128	87	0	0	100
fixed	4	8	4	798786	2	1	1	1	0	743	1	4	0	104	88	0	0	100
fixed	4	8	5	800523	5	3	3	1	0	709	1	4	0	120	89	0	0	100
fixed	4	8	6	801537	6	4	4	1	0	890	1	4	0	128	90	0	0	100
fixed	4	8	7	803264	3	1	1	1	0	785	1	4	0	104	91	0	0	100
fixed	4	8	8	804504	2	3	3	1	0	1053	1	4	0	120	92	0	0	100
fixed	4	8	9	805916	3	2	2	1	0	608	1	4	0	112	93	0	0	100
fixed	4	8	10	807206	1	4	4	1	0	1114	1	4	0	128	94	0	0	100
fixed	4	8	11	808614	5	2	2	1	0	798	1	4	0	112	95	0	0	100
fixed	4	8	12	809727	4	3	3	1	0	815	1	4	0	120	96	0	0	100
fixed	4	9	1	811576	4	1	1	1	0	849	1	4	0	104	97	0	0	100
fixed	4	9	2	812721	1	2	2	1	0	1208	1	4	0	112	98	0	0	100
fixed	4	9	3	814945	6	4	4	1	0	778	1	4	0	128	99	0	0	100
fixed	4	9	4	816608	2	1	1	1	0	740	1	4	0	104	100	0	0	100
fixed	4	9	5	818226	5	3	3	2	0	1271	2	4	0	120	101	0	0	100
fixed	4	9	6	819850	6	4	4	1	0	754	1	4	0	128	102	0	0	100
fixed	4	9	7	821422	3	1	1	1	0	1344	1	4	0	104	103	0	0	100
fixed	4	9	8	823415	2	3	3	1	0	820	1	4	0	120	104	0	0	100
fixed	4	9	9	825006	3	2	2	1	0	664	1	4	0	112	105	0	0	100
fixed	4	9	10	826033	1	4	4	2	0	1428	2	4	0	128	106	0	0	100
fixed	4	9	11	828382	5	2	2	1	0	905	1	4	0	112	107	0	0	100
fixed	4	9	12	830256	4	3	3	1	0	777	1	4	0	120	108	0	0	100
fixed	4	10	1	832043	4	1	1	1	0	830	1	4	0	104	109	0	0	100
fixed	4	10	2	833662	1	2	2	1	0	1057	1	4	0	112	110	0	0	100
fixed	4	10	3	835667	6	4	4	1	0	828	1	4	0	128	111	0	0	100
fixed	4	10	4	836934	2	1	1	2	0	919	2	4	0	104	112	0	0	100
fixed	4	10	5	838433	5	3	3	2	0	1511	2	4	0	120	113	0	0	100
fixed	4	10	6	840248	6	4	4	1	0	1346	1	4	0	128	114	0	0	100
fixed	4	10	7	842234	3	1	1	1	0	726	1	4	0	104	115	0	0	100
fixed	4	10	8	843782	2	3	3	1	0	813	1	4	0	120	116	0	0	100
fixed	4	10	9	845263	3	2	2	1	0	526	1	4	0	112	117	0	0	100
fixed	4	10	10	846699	1	4	4	1	0	1225	1	4	0	128	118	0	0	100
fixed	4	10	11	848681	5	2	2	1	0	797	1	4	0	112	119	0	0	100
fixed	4	10	12	849888	4	3	3	1	0	754	1	4	0	120	120	0	0	100
fixed	5	1	1	852006	4	1	1	1	0	552	1	4	0	136	1	0	0	100
fixed	5	1	2	852882	1	2	2	1	0	1043	1	4	0	144	2	0	0	100
fixed	5	1	3	854780	6	4	4	1	0	963	1	4	0	160	3	0	0	100
fixed	5	1	4	856363	2	1	1	1	0	1328	1	4	0	136	4	0	0	100
fixed	5	1	5	858512	5	3	3	1	0	789	1	4	0	152	5	0	0	100
fixed	5	1	6	859982	6	4	4	1	0	814	1	4	0	160	6	0	0	100
fixed	5	1	7	861690	3	1	1	1	0	958	1	4	0	136	7	0	0	100
fixed	5	1	8	863624	2	3	3	1	0	868	1	4	0	152	8	0	0	100
fixed	5	1	9	865459	3	2	2	1	0	750	1	4	0	144	9	0	0	100
fixed	5	1	10	866619	1	4	4	1	0	790	1	4	0	160	10	0	0	100
fixed	5	1	11	868069	5	2	2	1	0	792	1	4	0	144	11	0	0	100
fixed	5	1	12	869644	4	3	3	1	0	813	1	4	0	152	12	0	0	100
fixed	5	2	1	871406	4	1	1	1	0	771	1	4	0	136	13	0	0	100
fixed	5	2	2	872748	1	2	2	1	0	866	1	4	0	144	14	0	0	100
fixed	5	2	3	873910	6	4	4	1	0	832	1	4	0	160	15	0	0	100
fixed	5	2	4	875148	2	1	1	1	0	812	1	4	0	136	16	0	0	100
fixed	5	2	5	876573	5	3	3	1	0	792	1	4	0	152	17	0	0	100
fixed	5	2	6	877791	6	4	4	1	0	780	1	4	0	160	18	0	0	100
fixed	5	2	7	879530	3	1	1	2	0	1466	2	4	0	136	19	0	0	100
fixed	5	2	8	881772	2	3	3	1	0	700	1	4	0	152	20	0	0	100
fixed	5	2	9	883240	3	2	2	1	0	717	1	4	0	144	21	0	0	100
fixed	5	2	10	884397	1	4	4	1	0	709	1	4	0	160	22	0	0	100
fixed	5	2	11	885594	5	2	2	1	0	754	1	4	0	144	23	0	0	100
fixed	5	2	12	886877	4	3	3	1	0	699	1	4	0	152	24	0	0	100
fixed	5	3	1	888147	4	1	1	1	0	901	1	4	0	136	25	0	0	100
fixed	5	3	2	889479	1	2	2	1	0	837	1	4	0	144	26	0	0	100
fixed	5	3	3	891218	6	4	4	1	0	1028	1	4	0	160	27	0	0	100
fixed	5	3	4	892559	2	1	1	1	0	1315	1	4	0	136	28	0	0	100
fixed	5	3	5	894512	5	3	3	1	0	936	1	4	0	152	29	0	0	100
fixed	5	3	6	896061	6	4	4	1	0	783	1	4	0	160	30	0	0	100
fixed	5	3	7	897333	3	1	1	1	0	1201	1	4	0	136	31	0	0	100
fixed	5	3	8	899433	2	3	3	1	0	928	1	4	0	152	32	0	0	100
fixed	5	3	9	900748	3	2	2	1	0	616	1	4	0	144	33	0	0	100
fixed	5	3	10	902158	1	4	4	1	0	788	1	4	0	160	34	0	0	100
fixed	5	3	11	903670	5	2	2	1	0	836	1	4	0	144	35	0	0	100
fixed	5	3	12	905091	4	3	3	1	0	800	1	4	0	152	36	0	0	100
fixed	5	4	1	906476	4	1	1	1	0	829	1	4	0	136	37	0	0	100
fixed	5	4	2	908117	1	2	2	1	0	1176	1	4	0	144	38	0	0	100
fixed	5	4	3	909612	6	4	4	1	0	1049	1	4	0	160	39	0	0	100
fixed	5	4	4	911126	2	1	1	1	0	720	1	4	0	136	40	0	0	100
fixed	5	4	5	912734	5	3	3	2	0	2036	2	4	0	152	41	0	0	100
fixed	5	4	6	915117	6	4	4	1	0	759	1	4	0	160	42	0	0	100
fixed	5	4	7	916664	3	1	1	1	0	750	1	4	0	136	43	0	0	100
fixed	5	4	8	917970	2	3	3	1	0	1086	1	4	0	152	44	0	0	100
fixed	5	4	9	919609	3	2	2	1	0	761	1	4	0	144	45	0	0	100
fixed	5	4	10	921273	1	4	4	1	0	771	1	4	0	160	46	0	0	100
fixed	5	4	11	922744	5	2	2	1	0	852	1	4	0	144	47	0	0	100
fixed	5	4	12	924148	4	3	3	1	0	809	1	4	0	152	48	0	0	100
fixed	5	5	1	925573	4	1	1	1	0	700	1	4	0	136	49	0	0	100
fixed	5	5	2	926884	1	2	2	1	0	733	1	4	0	144	50	0	0	100
fixed	5	5	3	928317	6	4	4	2	0	984	2	4	0	160	51	0	0	100
fixed	5	5	4	929618	2	1	1	2	0	1001	2	4	0	136	52	0	0	100
fixed	5	5	5	931614	5	3	3	1	0	1085	1	4	0	152	53	0	0	100
fixed	5	5	6	933634	6	4	4	1	0	1023	1	4	0	160	54	0	0	100
fixed	5	5	7	935578	3	1	1	1	0	740	1	4	0	136	55	0	0	100
fixed	5	5	8	936816	2	3	3	1	0	880	1	4	0	152	56	0	0	100
fixed	5	5	9	938138	3	2	2	1	0	648	1	4	0	144	57	0	0	100
fixed	5	5	10	939121	1	4	4	1	0	830	1	4	0	160	58	0	0	100
fixed	5	5	11	940669	5	2	2	1	0	725	1	4	0	144	59	0	0	100
fixed	5	5	12	942030	4	3	3	1	0	715	1	4	0	152	60	0	0	100
fixed	5	6	1	944018	4	1	1	1	0	743	1	4	0	136	61	0	0	100
fixed	5	6	2	945163	1	2	2	2	0	1471	2	4	0	144	62	0	0	100
fixed	5	6	3	947400	6	4	4	1	0	768	1	4	0	160	63	0	0	100
fixed	5	6	4	948935	2	1	1	1	0	711	1	4	0	136	64	0	0	100
fixed	5	6	5	950342	5	3	3	1	0	907	1	4	0	152	65	0	0	100
fixed	5	6	6	951702	6	4	4	1	0	953	1	4	0	160	66	0	0	100
fixed	5	6	7	953149	3	1	1	1	0	853	1	4	0	136	67	0	0	100
fixed	5	6	8	954373	2	3	3	1	0	1001	1	4	0	152	68	0	0	100
fixed	5	6	9	955908	3	2	2	1	0	760	1	4	0	144	69	0	0	100
fixed	5	6	10	957101	1	4	4	1	0	741	1	4	0	160	70	0	0	100
fixed	5	6	11	958489	5	2	2	1	0	722	1	4	0	144	71	0	0	100
fixed	5	6	12	959539	4	3	3	1	0	654	1	4	0	152	72	0	0	100
fixed	5	7	1	961143	4	1	1	1	0	914	1	4	0	136	73	0	0	100
fixed	5	7	2	963002	1	2	2	1	0	1403	1	4	0	144	74	0	0	100
fixed	5	7	3	964764	6	4	4	1	0	1201	1	4	0	160	75	0	0	100
fixed	5	7	4	966377	2	1	1	1	0	916	1	4	0	136	76	0	0	100
fixed	5	7	5	967749	5	3	3	2	0	1490	2	4	0	152	77	0	0	100
fixed	5	7	6	970162	6	4	4	1	0	787	1	4	0	160	78	0	0	100
fixed	5	7	7	971510	3	1	1	1	0	659	1	4	0	136	79	0	0	100
fixed	5	7	8	972585	2	3	3	1	0	941	1	4	0	152	80	0	0	100
fixed	5	7	9	974087	3	2	2	1	0	646	1	4	0	144	81	0	0	100
fixed	5	7	10	975597	1	4	4	1	0	693	1	4	0	160	82	0	0	100
fixed	5	7	11	977164	5	2	2	1	0	731	1	4	0	144	83	0	0	100
fixed	5	7	12	978818	4	3	3	1	0	877	1	4	0	152	84	0	0	100
fixed	5	8	1	980641	4	1	1	1	0	728	1	4	0	136	85	0	0	100
fixed	5	8	2	982189	1	2	0	1	2	0	3	4	0	144	85	0	1	99
fixed	5	8	3	985626	6	4	4	1	0	901	1	4	0	160	86	0	1	99
fixed	5	8	4	987545	2	1	1	1	0	1604	1	4	0	136	87	0	1	99
fixed	5	8	5	989697	5	3	3	1	0	840	1	4	0	152	88	0	1	99
fixed	5	8	6	991120	6	4	4	1	0	1804	1	4	0	160	89	0	1	99
fixed	5	8	7	993700	3	1	1	1	0	743	1	4	0	136	90	0	1	99
fixed	5	8	8	995464	2	3	3	1	0	796	1	4	0	152	91	0	1	99
fixed	5	8	9	996553	3	2	2	1	0	718	1	4	0	144	92	0	1	99
fixed	5	8	10	997680	1	4	4	1	0	758	1	4	0	160	93	0	1	99
fixed	5	8	11	998778	5	2	2	1	0	768	1	4	0	144	94	0	1	99
fixed	5	8	12	1000424	4	3	3	1	0	994	1	4	0	152	95	0	1	99
fixed	5	9	1	1002227	4	1	1	1	0	710	1	4	0	136	96	0	1	99
fixed	5	9	2	1003436	1	2	2	2	0	2155	2	4	0	144	97	0	1	99
fixed	5	9	3	1005978	6	4	4	1	0	1023	1	4	0	160	98	0	1	99
fixed	5	9	4	1007554	2	1	1	1	0	1525	1	4	0	136	99	0	1	99
fixed	5	9	5	1009853	5	3	3	1	0	971	1	4	0	152	100	0	1	99
fixed	5	9	6	1011172	6	4	4	1	0	1563	1	4	0	160	101	0	1	99
fixed	5	9	7	1013760	3	1	1	2	0	1093	2	4	0	136	102	0	1	99
fixed	5	9	8	1015526	2	3	3	1	0	842	1	4	0	152	103	0	1	99
fixed	5	9	9	1016817	3	2	2	1	0	668	1	4	0	144	104	0	1	99
fixed	5	9	10	1018460	1	4	4	1	0	902	1	4	0	160	105	0	1	99
fixed	5	9	11	1019877	5	2	2	1	0	746	1	4	0	144	106	0	1	99
fixed	5	9	12	1021370	4	3	3	1	0	907	1	4	0	152	107	0	1	99
fixed	5	10	1	1023463	4	1	1	1	0	946	1	4	0	136	108	0	1	99
fixed	5	10	2	1025141	1	2	2	1	0	907	1	4	0	144	109	0	1	99
fixed	5	10	3	1026583	6	4	4	1	0	622	1	4	0	160	110	0	1	99
fixed	5	10	4	1027996	2	1	1	1	0	882	1	4	0	136	111	0	1	99
fixed	5	10	5	1029407	5	3	3	1	0	2199	1	4	0	152	112	0	1	99
fixed	5	10	6	1032174	6	4	4	1	0	1641	1	4	0	160	113	0	1	99
fixed	5	10	7	1034423	3	1	1	1	0	890	1	4	0	136	114	0	1	99
fixed	5	10	8	1036009	2	3	3	1	0	799	1	4	0	152	115	0	1	99
fixed	5	10	9	1037534	3	2	2	1	0	790	1	4	0	144	116	0	1	99
fixed	5	10	10	1038805	1	4	4	1	0	1192	1	4	0	160	117	0	1	99
fixed	5	10	11	1040497	5	2	2	1	0	953	1	4	0	144	118	0	1	99
fixed	5	10	12	1042314	4	3	3	1	0	740	1	4	0	152	119	0	1	99
random	6	1	1	1234027	6	1	1	1	0	1364	1	4	0	168	1	0	0	100
random	6	1	2	1235967	4	4	4	1	0	801	1	4	0	192	2	0	0	100
random	6	1	3	1237766	2	2	2	1	0	838	1	4	0	176	3	0	0	100
random	6	1	4	1239268	3	3	3	1	0	1102	1	4	0	184	4	0	0	100
random	6	1	5	1240833	5	2	2	1	0	884	1	4	0	176	5	0	0	100
random	6	1	6	1242033	1	4	4	1	0	921	1	4	0	192	6	0	0	100
random	6	1	7	1243710	6	1	1	1	0	850	1	4	0	168	7	0	0	100
random	6	1	8	1244891	2	3	3	1	0	840	1	4	0	184	8	0	0	100
random	6	1	9	1246735	4	2	2	1	0	714	1	4	0	176	9	0	0	100
random	6	1	10	1248428	1	1	1	1	0	1250	1	4	0	168	10	0	0	100
random	6	1	11	1250575	5	4	4	1	0	599	1	4	0	192	11	0	0	100
random	6	1	12	1251654	3	3	3	1	0	961	1	4	0	184	12	0	0	100
random	6	1	13	1253677	5	2	2	1	0	763	1	4	0	176	13	0	0	100
random	6	1	14	1255161	1	4	4	1	0	981	1	4	0	192	14	0	0	100
random	6	1	15	1256751	3	1	1	1	0	785	1	4	0	168	15	0	0	100
random	6	1	16	1258468	4	3	3	1	0	905	1	4	0	184	16	0	0	100
random	6	1	17	1260076	6	4	4	1	0	772	1	4	0	192	17	0	0	100
random	6	1	18	1261452	2	1	1	1	0	674	1	4	0	168	18	0	0	100
random	6	1	19	1262795	5	3	3	1	0	938	1	4	0	184	19	0	0	100
random	6	1	20	1264025	2	2	2	1	0	1077	1	4	0	176	20	0	0	100
random	6	1	21	1265937	3	3	3	1	0	941	1	4	0	184	21	0	0	100
random	6	1	22	1267569	6	1	1	1	0	1023	1	4	0	168	22	0	0	100
random	6	1	23	1269114	4	2	2	1	0	885	1	4	0	176	23	0	0	100
random	6	1	24	1270888	1	4	4	1	0	762	1	4	0	192	24	0	0	100
random	6	1	25	1272474	4	3	3	1	0	1039	1	4	0	184	25	0	0	100
random	6	1	26	1274322	2	1	1	1	0	1297	1	4	0	168	26	0	0	100
random	6	1	27	1276435	5	2	2	1	0	1095	1	4	0	176	27	0	0	100
random	6	1	28	1278231	6	4	4	1	0	692	1	4	0	192	28	0	0	100
random	6	1	29	1279922	1	3	3	1	0	764	1	4	0	184	29	0	0	100
random	6	1	30	1281217	5	2	2	1	0	781	1	4	0	176	30	0	0	100
random	6	1	31	1282348	2	1	1	1	0	901	1	4	0	168	31	0	0	100
random	6	1	32	1283933	3	3	3	1	0	898	1	4	0	184	32	0	0	100
random	6	1	33	1285428	6	4	4	1	0	1131	1	4	0	192	33	0	0	100
random	6	1	34	1286856	4	2	2	1	0	822	1	4	0	176	34	0	0	100
random	6	1	35	1288252	3	4	4	1	0	851	1	4	0	192	35	0	0	100
random	6	1	36	1289826	1	1	1	1	0	817	1	4	0	168	36	0	0	100
random	6	1	37	1291637	3	4	4	1	0	1076	1	4	0	192	37	0	0	100
random	6	1	38	1293309	5	3	3	1	0	1325	1	4	0	184	38	0	0	100
random	6	1	39	1295151	6	1	1	1	0	951	1	4	0	168	39	0	0	100
random	6	1	40	1296903	1	2	2	1	0	885	1	4	0	176	40	0	0	100
random	6	1	41	1298243	2	3	3	1	0	668	1	4	0	184	41	0	0	100
random	6	1	42	1299650	4	4	4	1	0	849	1	4	0	192	42	0	0	100
random	6	1	43	1301045	1	2	2	1	0	933	1	4	0	176	43	0	0	100
random	6	1	44	1302572	6	3	3	1	0	693	1	4	0	184	44	0	0	100
random	6	1	45	1303554	3	1	1	1	0	819	1	4	0	168	45	0	0	100
random	6	1	46	1304875	4	4	4	1	0	931	1	4	0	192	46	0	0	100
random	6	1	47	1306630	2	2	2	1	0	969	1	4	0	176	47	0	0	100
random	6	1	48	1308487	5	1	1	1	0	722	1	4	0	168	48	0	0	100
random	6	1	49	1310417	2	3	3	1	0	1160	1	4	0	184	49	0	0	100
random	6	1	50	1312222	3	1	1	1	0	844	1	4	0	168	50	0	0	100
random	6	1	51	1313989	1	4	4	1	0	937	1	4	0	192	51	0	0	100
random	6	1	52	1315757	5	3	3	1	0	958	1	4	0	184	52	0	0	100
random	6	1	53	1317711	3	2	2	1	0	732	1	4	0	176	53	0	0	100
random	6	1	54	1319468	6	4	4	1	0	761	1	4	0	192	54	0	0	100
random	6	1	55	1321119	4	2	2	1	0	851	1	4	0	176	55	0	0	100
random	6	1	56	1322257	1	1	1	1	0	955	1	4	0	168	56	0	0	100
random	6	1	57	1324086	5	4	4	1	0	885	1	4	0	192	57	0	0	100
random	6	1	58	1325515	2	1	1	1	0	1369	1	4	0	168	58	0	0	100
random	6	1	59	1327214	6	2	2	1	0	857	1	4	0	176	59	0	0	100
random	6	1	60	1329081	4	3	3	1	0	682	1	4	0	184	60	0	0	100
random	6	1	61	1331051	1	2	2	1	0	1022	1	4	0	176	61	0	0	100
random	6	1	62	1332872	6	4	4	1	0	817	1	4	0	192	62	0	0	100
random	6	1	63	1334064	4	1	1	1	0	1295	1	4	0	168	63	0	0	100
random	6	1	64	1336079	2	2	2	1	0	857	1	4	0	176	64	0	0	100
random	6	1	65	1337867	4	3	3	1	0	749	1	4	0	184	65	0	0	100
random	6	1	66	1339047	3	1	1	1	0	836	1	4	0	168	66	0	0	100
random	6	1	67	1340182	1	3	3	1	0	924	1	4	0	184	67	0	0	100
random	6	1	68	1341828	5	4	4	1	0	678	1	4	0	192	68	0	0	100
random	6	1	69	1343431	2	2	2	1	0	674	1	4	0	176	69	0	0	100
random	6	1	70	1344802	3	1	1	1	0	872	1	4	0	168	70	0	0	100
random	6	1	71	1346464	5	4	4	1	0	746	1	4	0	192	71	0	0	100
random	6	1	72	1347496	6	3	3	1	0	1046	1	4	0	184	72	0	0	100
random	6	1	73	1349529	2	1	1	1	0	775	1	4	0	168	73	0	0	100
random	6	1	74	1350666	5	3	3	1	0	1503	1	4	0	184	74	0	0	100
random	6	1	75	1352551	1	4	4	1	0	719	1	4	0	192	75	0	0	100
random	6	1	76	1353842	6	2	2	1	0	665	1	4	0	176	76	0	0	100
random	6	1	77	1354840	2	1	1	1	0	678	1	4	0	168	77	0	0	100
random	6	1	78	1356352	4	4	4	1	0	895	1	4	0	192	78	0	0	100
random	6	1	79	1357606	3	2	2	1	0	714	1	4	0	176	79	0	0	100
random	6	1	80	1359056	4	3	3	1	0	708	1	4	0	184	80	0	0	100
random	6	1	81	1360655	1	4	4	2	0	1640	2	4	0	192	81	0	0	100
random	6	1	82	1362843	5	1	1	1	0	979	1	4	0	168	82	0	0	100
random	6	1	83	1364328	3	2	2	1	0	1037	1	4	0	176	83	0	0	100
random	6	1	84	1366382	6	3	3	1	0	718	1	4	0	184	84	0	0	100
random	6	1	85	1367657	3	2	2	1	0	744	1	4	0	176	85	0	0	100
random	6	1	86	1369200	1	3	3	1	0	1207	1	4	0	184	86	0	0	100
random	6	1	87	1370862	4	4	4	1	0	729	1	4	0	192	87	0	0	100
random	6	1	88	1372460	2	1	1	1	0	717	1	4	0	168	88	0	0	100
random	6	1	89	1373798	6	4	4	2	0	1188	2	4	0	192	89	0	0	100
random	6	1	90	1375661	3	3	3	1	0	1053	1	4	0	184	90	0	0	100
random	6	1	91	1377035	5	4	4	1	0	1011	1	4	0	192	91	0	0	100
random	6	1	92	1378921	1	2	2	1	0	851	1	4	0	176	92	0	0	100
random	6	1	93	1380271	5	1	1	1	0	1033	1	4	0	168	93	0	0	100
random	6	1	94	1381844	4	3	3	1	0	871	1	4	0	184	94	0	0	100
random	6	1	95	1383406	6	1	1	1	0	1029	1	4	0	168	95	0	0	100
random	6	1	96	1384909	2	2	2	1	0	797	1	4	0	176	96	0	0	100
random	6	1	97	1386537	4	3	3	1	0	1232	1	4	0	184	97	0	0	100
random	6	1	98	1388512	3	2	2	1	0	757	1	4	0	176	98	0	0	100
random	6	1	99	1389582	6	3	3	1	0	1431	1	4	0	184	99	0	0	100
random	6	1	100	1391619	1	4	4	1	0	753	1	4	0	192	100	0	0	100
random	6	1	101	1392792	4	1	1	1	0	863	1	4	0	168	101	0	0	100
random	6	1	102	1394246	5	2	2	1	0	730	1	4	0	176	102	0	0	100
random	6	1	103	1395725	2	4	4	1	0	1035	1	4	0	192	103	0	0	100
random	6	1	104	1397784	3	1	1	1	0	812	1	4	0	168	104	0	0	100
random	6	1	105	1399417	1	3	3	1	0	830	1	4	0	184	105	0	0	100
random	6	1	106	1400692	2	2	2	1	0	761	1	4	0	176	106	0	0	100
random	6	1	107	1402128	5	4	4	1	0	868	1	4	0	192	107	0	0	100
random	6	1	108	1403470	6	1	1	1	0	1291	1	4	0	168	108	0	0	100
random	6	1	109	1405767	5	4	4	1	0	746	1	4	0	192	109	0	0	100
random	6	1	110	1407379	6	3	3	1	0	830	1	4	0	184	110	0	0	100
random	6	1	111	1409098	2	2	2	1	0	541	1	4	0	176	111	0	0	100
random	6	1	112	1410548	3	1	1	1	0	1247	1	4	0	168	112	0	0	100
random	6	1	113	1412281	1	2	2	1	0	734	1	4	0	176	113	0	0	100
random	6	1	114	1413917	2	3	3	1	0	849	1	4	0	184	114	0	0	100
random	6	1	115	1415405	3	1	1	1	0	865	1	4	0	168	115	0	0	100
random	6	1	116	1416905	4	4	4	1	0	818	1	4	0	192	116	0	0	100
random	6	1	117	1418229	6	1	1	1	0	922	1	4	0	168	117	0	0	100
random	6	1	118	1419868	5	3	3	1	0	1476	1	4	0	184	118	0	0	100
random	6	1	119	1422159	1	4	4	1	0	755	1	4	0	192	119	0	0	100
random	6	1	120	1423769	4	2	2	1	0	711	1	4	0	176	120	0	0	100
fixed	7	1	1	1425547	4	1	1	1	0	844	1	4	0	200	1	0	0	100
fixed	7	1	2	1427287	1	2	2	1	0	922	1	4	0	208	2	0	0	100
fixed	7	1	3	1428605	6	4	4	1	0	746	1	4	0	224	3	0	0	100
fixed	7	1	4	1430327	2	1	1	1	0	761	1	4	0	200	4	0	0	100
fixed	7	1	5	1431682	5	3	3	1	0	928	1	4	0	216	5	0	0	100
fixed	7	1	6	1433199	6	4	4	1	0	744	1	4	0	224	6	0	0	100
fixed	7	1	7	1434602	3	1	1	1	0	1292	1	4	0	200	7	0	0	100
fixed	7	1	8	1436578	2	3	3	1	0	857	1	4	0	216	8	0	0	100
fixed	7	1	9	1438404	3	2	2	1	0	627	1	4	0	208	9	0	0	100
fixed	7	1	10	1439469	1	4	4	1	0	726	1	4	0	224	10	0	0	100
fixed	7	1	11	1441026	5	2	2	1	0	1372	1	4	0	208	11	0	0	100
fixed	7	1	12	1443191	4	3	3	1	0	744	1	4	0	216	12	0	0	100
fixed	7	2	1	1444646	4	1	1	1	0	739	1	4	0	200	1	0	0	8
fixed	7	2	2	1445993	1	2	2	1	0	962	1	4	0	208	2	0	0	14
fixed	7	2	3	1447284	6	4	4	1	0	1179	1	4	0	224	3	0	0	20
fixed	7	2	4	1449491	2	1	1	1	0	734	1	4	0	200	4	0	0	25
fixed	7	2	5	1450838	5	3	3	1	0	781	1	4	0	216	5	0	0	29
fixed	7	2	6	1452215	6	4	4	1	0	842	1	4	0	224	6	0	0	33
fixed	7	2	7	1453460	3	1	1	1	0	894	1	4	0	200	7	0	0	37
fixed	7	2	8	1454895	2	3	3	2	0	1745	2	4	0	216	8	0	0	40
fixed	7	2	9	1457431	3	2	2	1	0	677	1	4	0	208	9	0	0	43
fixed	7	2	10	1458848	1	4	4	1	0	817	1	4	0	224	10	0	0	45
fixed	7	2	11	1460206	5	2	2	1	0	856	1	4	0	208	11	0	0	48
fixed	7	2	12	1461970	4	3	3	1	0	1053	1	4	0	216	12	0	0	50
fixed	7	3	1	1463977	4	1	1	1	0	864	1	4	0	200	1	0	0	4
fixed	7	3	2	1465364	1	2	2	1	0	893	1	4	0	208	2	0	0	8
fixed	7	3	3	1466850	6	4	4	1	0	974	1	4	0	224	3	0	0	11
fixed	7	3	4	1468845	2	1	1	1	0	882	1	4	0	200	4	0	0	14
fixed	7	3	5	1470013	5	3	3	1	0	1169	1	4	0	216	5	0	0	17
fixed	7	3	6	1471628	6	4	4	1	0	772	1	4	0	224	6	0	0	20
fixed	7	3	7	1473354	3	1	1	1	0	851	1	4	0	200	7	0	0	23
fixed	7	3	8	1474813	2	3	3	1	0	789	1	4	0	216	8	0	0	25
fixed	7	3	9	1475942	3	2	2	1	0	805	1	4	0	208	9	0	0	27
fixed	7	3	10	1477512	1	4	4	1	0	1035	1	4	0	224	10	0	0	29
fixed	7	3	11	1479066	5	2	2	1	0	1313	1	4	0	208	11	0	0	31
fixed	7	3	12	1480903	4	3	3	1	0	2243	1	4	0	216	12	0	0	33
fixed	7	4	1	1484427	4	1	1	1	0	846	1	4	0	200	1	0	0	3
fixed	7	4	2	1485893	1	2	2	1	0	784	1	4	0	208	2	0	0	5
fixed	7	4	3	1487521	6	4	4	1	0	779	1	4	0	224	3	0	0	8
fixed	7	4	4	1488735	2	1	1	1	0	1551	1	4	0	200	4	0	0	10
fixed	7	4	5	1490735	5	3	3	1	0	907	1	4	0	216	5	0	0	12
fixed	7	4	6	1492575	6	4	4	1	0	805	1	4	0	224	6	0	0	14
fixed	7	4	7	1494133	3	1	1	1	0	787	1	4	0	200	7	0	0	16
fixed	7	4	8	1495532	2	3	3	1	0	824	1	4	0	216	8	0	0	18
fixed	7	4	9	1496860	3	2	2	1	0	671	1	4	0	208	9	0	0	20
fixed	7	4	10	1498403	1	4	4	1	0	838	1	4	0	224	10	0	0	22
fixed	7	4	11	1499697	5	2	2	1	0	879	1	4	0	208	11	0	0	23
fixed	7	4	12	1501160	4	3	3	1	0	801	1	4	0	216	12	0	0	25
fixed	7	5	1	1502688	4	1	1	1	0	968	1	4	0	200	1	0	0	2
fixed	7	5	2	1504352	1	2	2	1	0	858	1	4	0	208	2	0	0	4
fixed	7	5	3	1505714	6	4	4	1	0	944	1	4	0	224	3	0	0	6
fixed	7	5	4	1507071	2	1	1	1	0	1031	1	4	0	200	4	0	0	8
fixed	7	5	5	1508906	5	3	3	3	0	1313	2	4	0	216	5	0	0	9
fixed	7	5	6	1510944	6	4	4	1	0	787	1	4	0	224	6	0	0	11
fixed	7	5	7	1512250	3	1	1	1	0	1188	1	4	0	200	7	0	0	13
fixed	7	5	8	1514349	2	3	3	1	0	1202	1	4	0	216	8	0	0	14
fixed	7	5	9	1516003	3	2	2	1	0	580	1	4	0	208	9	0	0	16
fixed	7	5	10	1517155	1	4	4	1	0	812	1	4	0	224	10	0	0	17
fixed	7	5	11	1518619	5	2	2	1	0	678	1	4	0	208	11	0	0	19
fixed	7	5	12	1519804	4	3	3	1	0	740	1	4	0	216	12	0	0	20
fixed	7	6	1	1521217	4	1	1	1	0	856	1	4	0	200	1	0	0	2
fixed	7	6	2	1522646	1	2	2	1	0	1099	1	4	0	208	2	0	0	3
fixed	7	6	3	1524628	6	4	4	1	0	383	1	4	0	224	3	0	0	5
fixed	7	6	4	1525486	2	1	1	1	0	699	1	4	0	200	4	0	0	6
fixed	7	6	5	1527021	5	3	3	1	0	1178	1	4	0	216	5	0	0	8
fixed	7	6	6	1528616	6	4	4	2	0	1854	2	4	0	224	6	0	0	9
fixed	7	6	7	1530972	3	1	1	1	0	722	1	4	0	200	7	0	0	10
fixed	7	6	8	1532016	2	3	3	1	0	1006	1	4	0	216	8	0	0	12
fixed	7	6	9	1533843	3	2	2	1	0	753	1	4	0	208	9	0	0	13
fixed	7	6	10	1535135	1	4	4	1	0	794	1	4	0	224	10	0	0	14
fixed	7	6	11	1536518	5	2	2	1	0	880	1	4	0	208	11	0	0	15
fixed	7	6	12	1538117	4	3	3	1	0	724	1	4	0	216	12	0	0	17
fixed	7	7	1	1540114	4	1	1	1	0	807	1	4	0	200	1	0	0	1
fixed	7	7	2	1541546	1	2	2	1	0	1019	1	4	0	208	2	0	0	3
fixed	7	7	3	1543457	6	4	4	1	0	706	1	4	0	224	3	0	0	4
fixed	7	7	4	1544739	2	1	1	1	0	835	1	4	0	200	4	0	0	5
fixed	7	7	5	1546566	5	3	3	1	0	1494	1	4	0	216	5	0	0	6
fixed	7	7	6	1549079	6	4	4	1	0	988	1	4	0	224	6	0	0	8
fixed	7	7	7	1551037	3	1	1	1	0	728	1	4	0	200	7	0	0	9
fixed	7	7	8	1552477	2	3	3	1	0	956	1	4	0	216	8	0	0	10
fixed	7	7	9	1554436	3	2	2	1	0	705	1	4	0	208	9	0	0	11
fixed	7	7	10	1555943	1	4	4	1	0	865	1	4	0	224	10	0	0	12
fixed	7	7	11	1557320	5	2	2	1	0	790	1	4	0	208	11	0	0	13
fixed	7	7	12	1558587	4	3	3	1	0	969	1	4	0	216	12	0	0	14
fixed	7	8	1	1560163	4	1	1	1	0	1014	1	4	0	200	1	0	0	1
fixed	7	8	2	1561814	1	2	2	1	0	880	1	4	0	208	2	0	0	2
fixed	7	8	3	1563676	6	4	4	1	0	977	1	4	0	224	3	0	0	3
fixed	7	8	4	1565104	2	1	1	1	0	1021	1	4	0	200	4	0	0	5
fixed	7	8	5	1566895	5	3	3	1	0	1073	1	4	0	216	5	0	0	6
fixed	7	8	6	1568384	6	4	4	1	0	802	1	4	0	224	6	0	0	7
fixed	7	8	7	1569577	3	1	1	1	0	736	1	4	0	200	7	0	0	8
fixed	7	8	8	1570681	2	3	3	1	0	1025	1	4	0	216	8	0	0	9
fixed	7	8	9	1572708	3	2	2	1	0	691	1	4	0	208	9	0	0	10
fixed	7	8	10	1574357	1	4	4	1	0	765	1	4	0	224	10	0	0	11
fixed	7	8	11	1576041	5	2	2	1	0	758	1	4	0	208	11	0	0	12
fixed	7	8	12	1577679	4	3	3	1	0	792	1	4	0	216	12	0	0	13
fixed	7	9	1	1579143	4	1	1	1	0	762	1	4	0	200	1	0	0	1
fixed	7	9	2	1580716	1	2	2	1	0	824	1	4	0	208	2	0	0	2
fixed	7	9	3	1582513	6	4	4	1	0	780	1	4	0	224	3	0	0	3
fixed	7	9	4	1583751	2	1	1	1	0	1495	1	4	0	200	4	0	0	4
fixed	7	9	5	1586027	5	3	3	2	0	2039	2	4	0	216	5	0	0	5
fixed	7	9	6	1588875	6	4	4	1	0	718	1	4	0	224	6	0	0	6
fixed	7	9	7	1590332	3	1	1	1	0	1009	1	4	0	200	7	0	0	7
fixed	7	9	8	1592222	2	3	3	1	0	744	1	4	0	216	8	0	0	8
fixed	7	9	9	1593433	3	2	2	1	0	677	1	4	0	208	9	0	0	9
fixed	7	9	10	1594429	1	4	4	1	0	683	1	4	0	224	10	0	0	9
fixed	7	9	11	1595924	5	2	2	1	0	756	1	4	0	208	11	0	0	10
fixed	7	9	12	1597077	4	3	3	1	0	787	1	4	0	216	12	0	0	11
fixed	7	10	1	1599125	4	1	1	2	0	1284	2	4	0	200	1	0	0	1
fixed	7	10	2	1601040	1	2	2	2	0	1699	2	4	0	208	2	0	0	2
fixed	7	10	3	1603446	6	4	4	1	0	901	1	4	0	224	3	0	0	3
fixed	7	10	4	1604628	2	1	1	2	0	2195	2	4	0	200	4	0	0	4
fixed	7	10	5	1607274	5	3	3	1	0	1819	1	4	0	216	5	0	0	4
fixed	7	10	6	1609930	6	4	4	1	0	819	1	4	0	224	6	0	0	5
fixed	7	10	7	1611419	3	1	1	1	0	1036	1	4	0	200	7	0	0	6
fixed	7	10	8	1612864	2	3	3	1	0	1062	1	4	0	216	8	0	0	7
fixed	7	10	9	1614591	3	2	2	1	0	805	1	4	0	208	9	0	0	8
fixed	7	10	10	1616253	1	4	4	1	0	998	1	4	0	224	10	0	0	8
fixed	7	10	11	1618246	5	2	2	1	0	842	1	4	0	208	11	0	0	9
fixed	7	10	12	1619389	4	3	3	1	0	1169	1	4	0	216	12	0	0	10
