type	block	sequ.	trial	time	Pos.	Color	Button	NumRsp	Resp_1	RT_1	R_Code	Resp_2	RT_2	Trigg.	n_hit	n_inc	n_miss	score_%

random	1	1	1	1665	6	1	1	1	0	909	1	4	0	8	1	0	0	100
random	1	1	2	3050	4	4	4	1	0	739	1	4	0	32	2	0	0	100
random	1	1	3	4795	2	2	2	1	0	689	1	4	0	16	3	0	0	100
random	1	1	4	5882	3	3	3	1	0	499	1	4	0	24	4	0	0	100
random	1	1	5	7310	5	2	2	1	0	974	1	4	0	16	5	0	0	100
random	1	1	6	8631	1	4	4	1	0	655	1	4	0	32	6	0	0	100
random	1	1	7	10138	6	1	1	1	0	750	1	4	0	8	7	0	0	100
random	1	1	8	11809	2	3	3	1	0	1064	1	4	0	24	8	0	0	100
random	1	1	9	13652	4	2	2	1	0	746	1	4	0	16	9	0	0	100
random	1	1	10	14812	1	1	1	1	0	849	1	4	0	8	10	0	0	100
random	1	1	11	16028	5	4	4	1	0	589	1	4	0	32	11	0	0	100
random	1	1	12	16912	3	3	3	1	0	968	1	4	0	24	12	0	0	100
random	1	1	13	18741	5	2	2	1	0	954	1	4	0	16	13	0	0	100
random	1	1	14	20285	1	4	4	1	0	1265	1	4	0	32	14	0	0	100
random	1	1	15	22419	3	1	1	1	0	638	1	4	0	8	15	0	0	100
random	1	1	16	24078	4	3	3	1	0	792	1	4	0	24	16	0	0	100
random	1	1	17	25227	6	4	4	1	0	839	1	4	0	32	17	0	0	100
random	1	1	18	26721	2	1	1	1	0	712	1	4	0	8	18	0	0	100
random	1	1	19	28130	5	3	3	1	0	740	1	4	0	24	19	0	0	100
random	1	1	20	29483	2	2	2	1	0	739	1	4	0	16	20	0	0	100
random	1	1	21	31044	3	3	3	1	0	761	1	4	0	24	21	0	0	100
random	1	1	22	32516	6	1	1	1	0	915	1	4	0	8	22	0	0	100
random	1	1	23	34370	4	2	2	1	0	700	1	4	0	16	23	0	0	100
random	1	1	24	35494	1	4	4	1	0	725	1	4	0	32	24	0	0	100
random	1	1	25	37021	4	3	3	1	0	1108	1	4	0	24	25	0	0	100
random	1	1	26	38537	2	1	1	1	0	939	1	4	0	8	26	0	0	100
random	1	1	27	39981	5	2	2	1	0	750	1	4	0	16	27	0	0	100
random	1	1	28	41101	6	4	4	1	0	623	1	4	0	32	28	0	0	100
random	1	1	29	42074	1	3	3	1	0	934	1	4	0	24	29	0	0	100
random	1	1	30	43950	5	2	2	1	0	767	1	4	0	16	30	0	0	100
random	1	1	31	45710	2	1	1	1	0	908	1	4	0	8	31	0	0	100
random	1	1	32	47483	3	3	3	1	0	929	1	4	0	24	32	0	0	100
random	1	1	33	48898	6	4	4	1	0	740	1	4	0	32	33	0	0	100
random	1	1	34	50615	4	2	2	1	0	652	1	4	0	16	34	0	0	100
random	1	1	35	52299	3	4	4	1	0	717	1	4	0	32	35	0	0	100
random	1	1	36	53877	1	1	1	1	0	698	1	4	0	8	36	0	0	100
random	1	1	37	55750	3	4	4	1	0	802	1	4	0	32	37	0	0	100
random	1	1	38	57531	5	3	3	1	0	903	1	4	0	24	38	0	0	100
random	1	1	39	58734	6	1	1	1	0	692	1	4	0	8	39	0	0	100
random	1	1	40	60146	1	2	2	1	0	1008	1	4	0	16	40	0	0	100
random	1	1	41	61546	2	3	3	1	0	653	1	4	0	24	41	0	0	100
random	1	1	42	62863	4	4	4	1	0	758	1	4	0	32	42	0	0	100
random	1	1	43	64194	1	2	2	1	0	1069	1	4	0	16	43	0	0	100
random	1	1	44	66129	6	3	3	1	0	667	1	4	0	24	44	0	0	100
random	1	1	45	67772	3	1	1	1	0	685	1	4	0	8	45	0	0	100
random	1	1	46	69285	4	4	4	1	0	589	1	4	0	32	46	0	0	100
random	1	1	47	70393	2	2	2	1	0	670	1	4	0	16	47	0	0	100
random	1	1	48	71500	5	1	1	1	0	904	1	4	0	8	48	0	0	100
random	1	1	49	73661	2	3	3	1	0	1020	1	4	0	24	49	0	0	100
random	1	1	50	75266	3	1	1	1	0	752	1	4	0	8	50	0	0	100
random	1	1	51	76817	1	4	4	1	0	702	1	4	0	32	51	0	0	100
random	1	1	52	77921	5	3	3	1	0	807	1	4	0	24	52	0	0	100
random	1	1	53	79356	3	2	2	1	0	570	1	4	0	16	53	0	0	100
random	1	1	54	80300	6	4	4	1	0	715	1	4	0	32	54	0	0	100
random	1	1	55	81858	4	2	2	1	0	665	1	4	0	16	55	0	0	100
random	1	1	56	83521	1	1	1	1	0	738	1	4	0	8	56	0	0	100
random	1	1	57	84734	5	4	4	1	0	719	1	4	0	32	57	0	0	100
random	1	1	58	86074	2	1	1	1	0	702	1	4	0	8	58	0	0	100
random	1	1	59	87152	6	2	2	1	0	1049	1	4	0	16	59	0	0	100
random	1	1	60	88785	4	3	3	1	0	851	1	4	0	24	60	0	0	100
random	1	1	61	90652	1	2	2	1	0	748	1	4	0	16	61	0	0	100
random	1	1	62	91721	6	4	4	1	0	831	1	4	0	32	62	0	0	100
random	1	1	63	93271	4	1	1	1	0	814	1	4	0	8	63	0	0	100
random	1	1	64	94735	2	2	2	1	0	799	1	4	0	16	64	0	0	100
random	1	1	65	96282	4	3	3	1	0	726	1	4	0	24	65	0	0	100
random	1	1	66	97974	3	1	1	1	0	718	1	4	0	8	66	0	0	100
random	1	1	67	99715	1	3	3	1	0	685	1	4	0	24	67	0	0	100
random	1	1	68	101416	5	4	4	1	0	708	1	4	0	32	68	0	0	100
random	1	1	69	102778	2	2	2	1	0	723	1	4	0	16	69	0	0	100
random	1	1	70	103925	3	1	1	1	0	794	1	4	0	8	70	0	0	100
random	1	1	71	105015	5	4	4	1	0	724	1	4	0	32	71	0	0	100
random	1	1	72	106673	6	3	3	1	0	797	1	4	0	24	72	0	0	100
random	1	1	73	108179	2	1	1	1	0	702	1	4	0	8	73	0	0	100
random	1	1	74	109302	5	3	3	1	0	918	1	4	0	24	74	0	0	100
random	1	1	75	111019	1	4	4	1	0	749	1	4	0	32	75	0	0	100
random	1	1	76	112286	6	2	2	1	0	1160	1	4	0	16	76	0	0	100
random	1	1	77	113895	2	1	1	1	0	772	1	4	0	8	77	0	0	100
random	1	1	78	115458	4	4	4	1	0	794	1	4	0	32	78	0	0	100
random	1	1	79	117278	3	2	2	1	0	789	1	4	0	16	79	0	0	100
random	1	1	80	118987	4	3	3	1	0	612	1	4	0	24	80	0	0	100
random	1	1	81	120638	1	4	4	1	0	783	1	4	0	32	81	0	0	100
random	1	1	82	122432	5	1	1	1	0	682	1	4	0	8	82	0	0	100
random	1	1	83	124115	3	2	2	1	0	603	1	4	0	16	83	0	0	100
random	1	1	84	125464	6	3	3	1	0	594	1	4	0	24	84	0	0	100
random	1	1	85	126774	3	2	2	1	0	754	1	4	0	16	85	0	0	100
random	1	1	86	127961	1	3	3	1	0	688	1	4	0	24	86	0	0	100
random	1	1	87	129318	4	4	4	1	0	599	1	4	0	32	87	0	0	100
random	1	1	88	130380	2	1	1	1	0	489	1	4	0	8	88	0	0	100
random	1	1	89	131257	6	4	4	2	0	1828	2	4	0	32	89	0	0	100
random	1	1	90	133758	3	3	3	1	0	978	1	4	0	24	90	0	0	100
random	1	1	91	135164	5	4	4	1	0	727	1	4	0	32	91	0	0	100
random	1	1	92	136632	1	2	2	1	0	1249	1	4	0	16	92	0	0	100
random	1	1	93	138312	5	1	1	1	0	738	1	4	0	8	93	0	0	100
random	1	1	94	139439	4	3	3	1	0	1226	1	4	0	24	94	0	0	100
random	1	1	95	141624	6	1	1	2	0	1062	2	4	0	8	95	0	0	100
random	1	1	96	143567	2	2	2	1	0	883	1	4	0	16	96	0	0	100
random	1	1	97	145621	4	3	3	1	0	1468	1	4	0	24	97	0	0	100
random	1	1	98	147849	3	2	2	1	0	662	1	4	0	16	98	0	0	100
random	1	1	99	148977	6	3	3	1	0	734	1	4	0	24	99	0	0	100
random	1	1	100	150224	1	4	4	1	0	801	1	4	0	32	100	0	0	100
random	1	1	101	151377	4	1	1	1	0	792	1	4	0	8	101	0	0	100
random	1	1	102	153149	5	2	2	1	0	765	1	4	0	16	102	0	0	100
random	1	1	103	154298	2	4	4	1	0	829	1	4	0	32	103	0	0	100
random	1	1	104	155571	3	1	1	1	0	815	1	4	0	8	104	0	0	100
random	1	1	105	157050	1	3	3	1	0	608	1	4	0	24	105	0	0	100
random	1	1	106	158484	2	2	2	2	0	1107	2	4	0	16	106	0	0	100
random	1	1	107	160461	5	4	4	1	0	903	1	4	0	32	107	0	0	100
random	1	1	108	161700	6	1	1	1	0	811	1	4	0	8	108	0	0	100
random	1	1	109	163080	5	4	4	1	0	760	1	4	0	32	109	0	0	100
random	1	1	110	164541	6	3	3	1	0	859	1	4	0	24	110	0	0	100
random	1	1	111	166315	2	2	2	1	0	664	1	4	0	16	111	0	0	100
random	1	1	112	167628	3	1	1	1	0	880	1	4	0	8	112	0	0	100
random	1	1	113	168890	1	2	2	1	0	1019	1	4	0	16	113	0	0	100
random	1	1	114	170921	2	3	3	1	0	612	1	4	0	24	114	0	0	100
random	1	1	115	171909	3	1	1	1	0	723	1	4	0	8	115	0	0	100
random	1	1	116	173640	4	4	4	1	0	817	1	4	0	32	116	0	0	100
random	1	1	117	174817	6	1	1	1	0	1216	1	4	0	8	117	0	0	100
random	1	1	118	176588	5	3	3	1	0	917	1	4	0	24	118	0	0	100
random	1	1	119	178091	1	4	4	1	0	789	1	4	0	32	119	0	0	100
random	1	1	120	179407	4	2	2	1	0	437	1	4	0	16	120	0	0	100
fixed	2	1	1	180755	4	1	1	1	0	716	1	4	0	40	1	0	0	100
fixed	2	1	2	182214	1	2	2	1	0	1006	1	4	0	48	2	0	0	100
fixed	2	1	3	183853	6	4	4	1	0	761	1	4	0	64	3	0	0	100
fixed	2	1	4	185070	2	1	1	1	0	613	1	4	0	40	4	0	0	100
fixed	2	1	5	186131	5	3	3	1	0	713	1	4	0	56	5	0	0	100
fixed	2	1	6	187619	6	4	4	1	0	778	1	4	0	64	6	0	0	100
fixed	2	1	7	189097	3	1	1	1	0	883	1	4	0	40	7	0	0	100
fixed	2	1	8	190413	2	3	3	1	0	843	1	4	0	56	8	0	0	100
fixed	2	1	9	192088	3	2	2	1	0	748	1	4	0	48	9	0	0	100
fixed	2	1	10	193396	1	4	4	1	0	853	1	4	0	64	10	0	0	100
fixed	2	1	11	194561	5	2	2	1	0	939	1	4	0	48	11	0	0	100
fixed	2	1	12	195993	4	3	3	1	0	750	1	4	0	56	12	0	0	100
fixed	2	2	1	197515	4	1	1	1	0	670	1	4	0	40	13	0	0	100
fixed	2	2	2	198749	1	2	2	1	0	794	1	4	0	48	14	0	0	100
fixed	2	2	3	200006	6	4	4	1	0	636	1	4	0	64	15	0	0	100
fixed	2	2	4	201207	2	1	1	1	0	769	1	4	0	40	16	0	0	100
fixed	2	2	5	202933	5	3	3	1	0	577	1	4	0	56	17	0	0	100
fixed	2	2	6	204043	6	4	4	1	0	722	1	4	0	64	18	0	0	100
fixed	2	2	7	205570	3	1	1	1	0	689	1	4	0	40	19	0	0	100
fixed	2	2	8	207195	2	3	3	1	0	1340	1	4	0	56	20	0	0	100
fixed	2	2	9	209337	3	2	2	1	0	650	1	4	0	48	21	0	0	100
fixed	2	2	10	210541	1	4	4	1	0	679	1	4	0	64	22	0	0	100
fixed	2	2	11	212039	5	2	2	1	0	775	1	4	0	48	23	0	0	100
fixed	2	2	12	213203	4	3	3	1	0	749	1	4	0	56	24	0	0	100
fixed	2	3	1	214523	4	1	1	1	0	869	1	4	0	40	25	0	0	100
fixed	2	3	2	216220	1	2	2	1	0	1438	1	4	0	48	26	0	0	100
fixed	2	3	3	218511	6	4	4	1	0	597	1	4	0	64	27	0	0	100
fixed	2	3	4	219705	2	1	1	1	0	730	1	4	0	40	28	0	0	100
fixed	2	3	5	221240	5	3	3	2	0	1801	2	4	0	56	29	0	0	100
fixed	2	3	6	223757	6	4	4	1	0	695	1	4	0	64	30	0	0	100
fixed	2	3	7	225411	3	1	1	1	0	713	1	4	0	40	31	0	0	100
fixed	2	3	8	226782	2	3	3	1	0	815	1	4	0	56	32	0	0	100
fixed	2	3	9	228583	3	2	2	1	0	762	1	4	0	48	33	0	0	100
fixed	2	3	10	229932	1	4	4	1	0	1017	1	4	0	64	34	0	0	100
fixed	2	3	11	231488	5	2	2	1	0	599	1	4	0	48	35	0	0	100
fixed	2	3	12	232511	4	3	3	1	0	1332	1	4	0	56	36	0	0	100
fixed	2	4	1	234672	4	1	1	1	0	632	1	4	0	40	37	0	0	100
fixed	2	4	2	236062	1	2	2	2	0	1109	2	4	0	48	38	0	0	100
fixed	2	4	3	237833	6	4	4	1	0	642	1	4	0	64	39	0	0	100
fixed	2	4	4	239029	2	1	1	1	0	704	1	4	0	40	40	0	0	100
fixed	2	4	5	240170	5	3	3	1	0	1655	1	4	0	56	41	0	0	100
fixed	2	4	6	242554	6	4	4	1	0	747	1	4	0	64	42	0	0	100
fixed	2	4	7	243968	3	1	1	1	0	711	1	4	0	40	43	0	0	100
fixed	2	4	8	245685	2	3	3	1	0	862	1	4	0	56	44	0	0	100
fixed	2	4	9	247137	3	2	2	1	0	584	1	4	0	48	45	0	0	100
fixed	2	4	10	248470	1	4	4	1	0	864	1	4	0	64	46	0	0	100
fixed	2	4	11	249714	5	2	2	1	0	883	1	4	0	48	47	0	0	100
fixed	2	4	12	251310	4	3	3	1	0	704	1	4	0	56	48	0	0	100
fixed	2	5	1	252767	4	1	1	1	0	858	1	4	0	40	49	0	0	100
fixed	2	5	2	254438	1	2	2	2	0	1227	2	4	0	48	50	0	0	100
fixed	2	5	3	256188	6	4	4	1	0	745	1	4	0	64	51	0	0	100
fixed	2	5	4	257420	2	1	1	1	0	773	1	4	0	40	52	0	0	100
fixed	2	5	5	258906	5	3	3	1	0	870	1	4	0	56	53	0	0	100
fixed	2	5	6	260416	6	4	4	1	0	742	1	4	0	64	54	0	0	100
fixed	2	5	7	261680	3	1	1	1	0	664	1	4	0	40	55	0	0	100
fixed	2	5	8	262637	2	3	3	1	0	888	1	4	0	56	56	0	0	100
fixed	2	5	9	263941	3	2	2	1	0	617	1	4	0	48	57	0	0	100
fixed	2	5	10	265525	1	4	4	1	0	806	1	4	0	64	58	0	0	100
fixed	2	5	11	266870	5	2	2	1	0	732	1	4	0	48	59	0	0	100
fixed	2	5	12	268553	4	3	3	1	0	829	1	4	0	56	60	0	0	100
fixed	2	6	1	270193	4	1	1	1	0	808	1	4	0	40	61	0	0	100
fixed	2	6	2	271550	1	2	2	1	0	830	1	4	0	48	62	0	0	100
fixed	2	6	3	272668	6	4	4	1	0	1151	1	4	0	64	63	0	0	100
fixed	2	6	4	274763	2	1	1	1	0	710	1	4	0	40	64	0	0	100
fixed	2	6	5	275843	5	3	3	1	0	888	1	4	0	56	65	0	0	100
fixed	2	6	6	277399	6	4	4	1	0	799	1	4	0	64	66	0	0	100
fixed	2	6	7	278708	3	1	1	1	0	767	1	4	0	40	67	0	0	100
fixed	2	6	8	280421	2	3	3	2	0	918	2	4	0	56	68	0	0	100
fixed	2	6	9	281688	3	2	2	1	0	745	1	4	0	48	69	0	0	100
fixed	2	6	10	283202	1	4	4	1	0	1041	1	4	0	64	70	0	0	100
fixed	2	6	11	284747	5	2	2	1	0	783	1	4	0	48	71	0	0	100
fixed	2	6	12	286395	4	3	3	1	0	922	1	4	0	56	72	0	0	100
fixed	2	7	1	288421	4	1	1	1	0	708	1	4	0	40	73	0	0	100
fixed	2	7	2	289646	1	2	2	1	0	912	1	4	0	48	74	0	0	100
fixed	2	7	3	291062	6	4	4	1	0	692	1	4	0	64	75	0	0	100
fixed	2	7	4	292740	2	1	1	1	0	821	1	4	0	40	76	0	0	100
fixed	2	7	5	293934	5	3	3	1	0	898	1	4	0	56	77	0	0	100
fixed	2	7	6	295543	6	4	4	1	0	926	1	4	0	64	78	0	0	100
fixed	2	7	7	297327	3	1	1	2	0	962	2	4	0	40	79	0	0	100
fixed	2	7	8	299070	2	3	3	1	0	929	1	4	0	56	80	0	0	100
fixed	2	7	9	300645	3	2	2	1	0	710	1	4	0	48	81	0	0	100
fixed	2	7	10	301977	1	4	4	1	0	766	1	4	0	64	82	0	0	100
fixed	2	7	11	303350	5	2	2	1	0	676	1	4	0	48	83	0	0	100
fixed	2	7	12	304483	4	3	3	1	0	819	1	4	0	56	84	0	0	100
fixed	2	8	1	306014	4	1	1	2	0	802	2	4	0	40	85	0	0	100
fixed	2	8	2	307700	1	2	2	1	0	771	1	4	0	48	86	0	0	100
fixed	2	8	3	309193	6	4	4	1	0	820	1	4	0	64	87	0	0	100
fixed	2	8	4	310557	2	1	1	1	0	706	1	4	0	40	88	0	0	100
fixed	2	8	5	311643	5	3	3	1	0	884	1	4	0	56	89	0	0	100
fixed	2	8	6	313245	6	4	4	1	0	953	1	4	0	64	90	0	0	100
fixed	2	8	7	314639	3	1	1	1	0	693	1	4	0	40	91	0	0	100
fixed	2	8	8	316348	2	3	3	2	0	821	2	4	0	56	92	0	0	100
fixed	2	8	9	317491	3	2	2	1	0	644	1	4	0	48	93	0	0	100
fixed	2	8	10	318714	1	4	4	1	0	801	1	4	0	64	94	0	0	100
fixed	2	8	11	320235	5	2	2	2	0	1928	2	4	0	48	95	0	0	100
fixed	2	8	12	322623	4	3	3	1	0	867	1	4	0	56	96	0	0	100
fixed	2	9	1	324309	4	1	1	1	0	739	1	4	0	40	97	0	0	100
fixed	2	9	2	325381	1	2	2	1	0	798	1	4	0	48	98	0	0	100
fixed	2	9	3	326957	6	4	4	1	0	1100	1	4	0	64	99	0	0	100
fixed	2	9	4	328523	2	1	1	1	0	1017	1	4	0	40	100	0	0	100
fixed	2	9	5	330274	5	3	3	1	0	855	1	4	0	56	101	0	0	100
fixed	2	9	6	331803	6	4	4	1	0	814	1	4	0	64	102	0	0	100
fixed	2	9	7	333279	3	1	1	1	0	759	1	4	0	40	103	0	0	100
fixed	2	9	8	335037	2	3	3	1	0	885	1	4	0	56	104	0	0	100
fixed	2	9	9	336962	3	2	2	1	0	644	1	4	0	48	105	0	0	100
fixed	2	9	10	338374	1	4	4	1	0	688	1	4	0	64	106	0	0	100
fixed	2	9	11	339865	5	2	2	1	0	681	1	4	0	48	107	0	0	100
fixed	2	9	12	341034	4	3	3	1	0	1079	1	4	0	56	108	0	0	100
fixed	2	10	1	343389	4	1	1	1	0	747	1	4	0	40	109	0	0	100
fixed	2	10	2	345058	1	2	2	1	0	677	1	4	0	48	110	0	0	100
fixed	2	10	3	346544	6	4	4	1	0	766	1	4	0	64	111	0	0	100
fixed	2	10	4	347902	2	1	1	1	0	740	1	4	0	40	112	0	0	100
fixed	2	10	5	349254	5	3	3	1	0	787	1	4	0	56	113	0	0	100
fixed	2	10	6	350623	6	4	4	1	0	801	1	4	0	64	114	0	0	100
fixed	2	10	7	352263	3	1	1	1	0	676	1	4	0	40	115	0	0	100
fixed	2	10	8	353319	2	3	3	1	0	1023	1	4	0	56	116	0	0	100
fixed	2	10	9	354730	3	2	2	1	0	516	1	4	0	48	117	0	0	100
fixed	2	10	10	355539	1	4	4	1	0	697	1	4	0	64	118	0	0	100
fixed	2	10	11	356925	5	2	2	1	0	790	1	4	0	48	119	0	0	100
fixed	2	10	12	358629	4	3	3	1	0	766	1	4	0	56	120	0	0	100
fixed	3	1	1	360312	4	1	1	1	0	742	1	4	0	72	1	0	0	100
fixed	3	1	2	362059	1	2	2	1	0	1085	1	4	0	80	2	0	0	100
fixed	3	1	3	363600	6	4	4	1	0	756	1	4	0	96	3	0	0	100
fixed	3	1	4	365047	2	1	1	1	0	726	1	4	0	72	4	0	0	100
fixed	3	1	5	366381	5	3	3	1	0	814	1	4	0	88	5	0	0	100
fixed	3	1	6	367552	6	4	0	0	2	0	3	4	0	96	5	0	1	83
fixed	3	1	7	370509	3	1	1	1	0	847	1	4	0	72	6	0	1	86
fixed	3	1	8	372333	2	3	3	1	0	858	1	4	0	88	7	0	1	88
fixed	3	1	9	373675	3	2	2	1	0	537	1	4	0	80	8	0	1	89
fixed	3	1	10	374964	1	4	4	1	0	1090	1	4	0	96	9	0	1	90
fixed	3	1	11	376359	5	2	2	1	0	903	1	4	0	80	10	0	1	91
fixed	3	1	12	377785	4	3	3	1	0	795	1	4	0	88	11	0	1	92
fixed	3	2	1	379762	4	1	1	1	0	799	1	4	0	72	12	0	1	92
fixed	3	2	2	381575	1	2	2	1	0	866	1	4	0	80	13	0	1	93
fixed	3	2	3	383367	6	4	4	1	0	719	1	4	0	96	14	0	1	93
fixed	3	2	4	384711	2	1	1	1	0	701	1	4	0	72	15	0	1	94
fixed	3	2	5	386398	5	3	3	1	0	886	1	4	0	88	16	0	1	94
fixed	3	2	6	387586	6	4	4	1	0	788	1	4	0	96	17	0	1	94
fixed	3	2	7	388921	3	1	1	1	0	1451	1	4	0	72	18	0	1	95
fixed	3	2	8	390782	2	3	3	1	0	1020	1	4	0	88	19	0	1	95
fixed	3	2	9	392326	3	2	2	1	0	787	1	4	0	80	20	0	1	95
fixed	3	2	10	393464	1	4	4	1	0	810	1	4	0	96	21	0	1	95
fixed	3	2	11	395162	5	2	2	1	0	875	1	4	0	80	22	0	1	96
fixed	3	2	12	396480	4	3	3	1	0	1403	1	4	0	88	23	0	1	96
fixed	3	3	1	399176	4	1	1	1	0	688	1	4	0	72	24	0	1	96
fixed	3	3	2	400433	1	2	2	1	0	1211	1	4	0	80	25	0	1	96
fixed	3	3	3	402159	6	4	4	1	0	1699	1	4	0	96	26	0	1	96
fixed	3	3	4	404216	2	1	1	1	0	747	1	4	0	72	27	0	1	96
fixed	3	3	5	405399	5	3	3	2	0	1409	2	4	0	88	28	0	1	97
fixed	3	3	6	407279	6	4	4	1	0	1081	1	4	0	96	29	0	1	97
fixed	3	3	7	409118	3	1	1	1	0	787	1	4	0	72	30	0	1	97
fixed	3	3	8	410498	2	3	3	1	0	929	1	4	0	88	31	0	1	97
fixed	3	3	9	412294	3	2	2	1	0	501	1	4	0	80	32	0	1	97
fixed	3	3	10	413833	1	4	4	1	0	788	1	4	0	96	33	0	1	97
fixed	3	3	11	415167	5	2	2	1	0	843	1	4	0	80	34	0	1	97
fixed	3	3	12	416421	4	3	3	1	0	878	1	4	0	88	35	0	1	97
fixed	3	4	1	418240	4	1	1	1	0	913	1	4	0	72	36	0	1	97
fixed	3	4	2	419671	1	2	2	1	0	844	1	4	0	80	37	0	1	97
fixed	3	4	3	420939	6	4	4	1	0	783	1	4	0	96	38	0	1	97
fixed	3	4	4	422695	2	1	1	1	0	1325	1	4	0	72	39	0	1	98
fixed	3	4	5	424727	5	3	3	1	0	926	1	4	0	88	40	0	1	98
fixed	3	4	6	426154	6	4	4	1	0	826	1	4	0	96	41	0	1	98
fixed	3	4	7	427733	3	1	1	1	0	751	1	4	0	72	42	0	1	98
fixed	3	4	8	428985	2	3	3	1	0	834	1	4	0	88	43	0	1	98
fixed	3	4	9	430847	3	2	2	1	0	667	1	4	0	80	44	0	1	98
fixed	3	4	10	432314	1	4	4	1	0	717	1	4	0	96	45	0	1	98
fixed	3	4	11	433882	5	2	2	1	0	715	1	4	0	80	46	0	1	98
fixed	3	4	12	435207	4	3	3	1	0	723	1	4	0	88	47	0	1	98
fixed	3	5	1	436618	4	1	1	1	0	487	1	4	0	72	48	0	1	98
fixed	3	5	2	438012	1	2	2	1	0	788	1	4	0	80	49	0	1	98
fixed	3	5	3	439548	6	4	4	1	0	1187	1	4	0	96	50	0	1	98
fixed	3	5	4	441634	2	1	1	1	0	666	1	4	0	72	51	0	1	98
fixed	3	5	5	443094	5	3	3	1	0	869	1	4	0	88	52	0	1	98
fixed	3	5	6	444453	6	4	4	1	0	843	1	4	0	96	53	0	1	98
fixed	3	5	7	445655	3	1	1	1	0	1624	1	4	0	72	54	0	1	98
fixed	3	5	8	448248	2	3	3	1	0	954	1	4	0	88	55	0	1	98
fixed	3	5	9	449769	3	2	2	1	0	770	1	4	0	80	56	0	1	98
fixed	3	5	10	451584	1	4	4	1	0	1173	1	4	0	96	57	0	1	98
fixed	3	5	11	453412	5	2	2	1	0	751	1	4	0	80	58	0	1	98
fixed	3	5	12	455184	4	3	3	1	0	980	1	4	0	88	59	0	1	98
fixed	3	6	1	456801	4	1	1	1	0	816	1	4	0	72	60	0	1	98
fixed	3	6	2	458381	1	2	2	1	0	869	1	4	0	80	61	0	1	98
fixed	3	6	3	460161	6	4	4	1	0	730	1	4	0	96	62	0	1	98
fixed	3	6	4	461617	2	1	1	1	0	836	1	4	0	72	63	0	1	98
fixed	3	6	5	463307	5	3	3	1	0	964	1	4	0	88	64	0	1	98
fixed	3	6	6	464756	6	4	4	1	0	943	1	4	0	96	65	0	1	98
fixed	3	6	7	466053	3	1	1	1	0	824	1	4	0	72	66	0	1	99
fixed	3	6	8	467244	2	3	3	1	0	853	1	4	0	88	67	0	1	99
fixed	3	6	9	468492	3	2	2	1	0	505	1	4	0	80	68	0	1	99
fixed	3	6	10	469304	1	4	4	1	0	718	1	4	0	96	69	0	1	99
fixed	3	6	11	471047	5	2	2	1	0	669	1	4	0	80	70	0	1	99
fixed	3	6	12	472157	4	3	3	1	0	797	1	4	0	88	71	0	1	99
fixed	3	7	1	474194	4	1	1	1	0	959	1	4	0	72	72	0	1	99
fixed	3	7	2	476151	1	2	2	1	0	988	1	4	0	80	73	0	1	99
fixed	3	7	3	477531	6	4	4	1	0	714	1	4	0	96	74	0	1	99
fixed	3	7	4	478658	2	1	1	1	0	738	1	4	0	72	75	0	1	99
fixed	3	7	5	480355	5	3	3	1	0	1043	1	4	0	88	76	0	1	99
fixed	3	7	6	482097	6	4	4	1	0	776	1	4	0	96	77	0	1	99
fixed	3	7	7	483648	3	1	1	1	0	799	1	4	0	72	78	0	1	99
fixed	3	7	8	485398	2	3	3	1	0	1125	1	4	0	88	79	0	1	99
fixed	3	7	9	487122	3	2	2	1	0	468	1	4	0	80	80	0	1	99
fixed	3	7	10	488009	1	4	4	1	0	726	1	4	0	96	81	0	1	99
fixed	3	7	11	489643	5	2	2	1	0	753	1	4	0	80	82	0	1	99
fixed	3	7	12	491138	4	3	3	1	0	930	1	4	0	88	83	0	1	99
fixed	3	8	1	493056	4	1	1	1	0	784	1	4	0	72	84	0	1	99
fixed	3	8	2	494399	1	2	2	1	0	784	1	4	0	80	85	0	1	99
fixed	3	8	3	495675	6	4	4	1	0	762	1	4	0	96	86	0	1	99
fixed	3	8	4	496860	2	1	1	1	0	871	1	4	0	72	87	0	1	99
fixed	3	8	5	498615	5	3	3	1	0	1133	1	4	0	88	88	0	1	99
fixed	3	8	6	500466	6	4	4	1	0	767	1	4	0	96	89	0	1	99
fixed	3	8	7	501990	3	1	1	1	0	750	1	4	0	72	90	0	1	99
fixed	3	8	8	503357	2	3	3	1	0	1036	1	4	0	88	91	0	1	99
fixed	3	8	9	504702	3	2	2	1	0	571	1	4	0	80	92	0	1	99
fixed	3	8	10	505865	1	4	4	1	0	730	1	4	0	96	93	0	1	99
fixed	3	8	11	507573	5	2	2	1	0	641	1	4	0	80	94	0	1	99
fixed	3	8	12	509059	4	3	3	1	0	899	1	4	0	88	95	0	1	99
fixed	3	9	1	511234	4	1	1	1	0	678	1	4	0	72	96	0	1	99
fixed	3	9	2	512437	1	2	2	1	0	827	1	4	0	80	97	0	1	99
fixed	3	9	3	514191	6	4	4	1	0	617	1	4	0	96	98	0	1	99
fixed	3	9	4	515749	2	1	1	1	0	519	1	4	0	72	99	0	1	99
fixed	3	9	5	516727	5	3	3	1	0	878	1	4	0	88	100	0	1	99
fixed	3	9	6	518433	6	4	4	1	0	781	1	4	0	96	101	0	1	99
fixed	3	9	7	520119	3	1	1	1	0	734	1	4	0	72	102	0	1	99
fixed	3	9	8	521516	2	3	3	1	0	907	1	4	0	88	103	0	1	99
fixed	3	9	9	522715	3	2	2	1	0	568	1	4	0	80	104	0	1	99
fixed	3	9	10	524044	1	4	4	1	0	856	1	4	0	96	105	0	1	99
fixed	3	9	11	525319	5	2	2	1	0	866	1	4	0	80	106	0	1	99
fixed	3	9	12	526680	4	3	3	1	0	824	1	4	0	88	107	0	1	99
fixed	3	10	1	528376	4	1	1	1	0	904	1	4	0	72	108	0	1	99
fixed	3	10	2	530269	1	2	2	1	0	1216	1	4	0	80	109	0	1	99
fixed	3	10	3	532043	6	4	4	1	0	957	1	4	0	96	110	0	1	99
fixed	3	10	4	533474	2	1	1	1	0	672	1	4	0	72	111	0	1	99
fixed	3	10	5	534845	5	3	3	1	0	1190	1	4	0	88	112	0	1	99
fixed	3	10	6	536373	6	4	4	1	0	782	1	4	0	96	113	0	1	99
fixed	3	10	7	537797	3	1	1	1	0	673	1	4	0	72	114	0	1	99
fixed	3	10	8	538922	2	3	3	1	0	898	1	4	0	88	115	0	1	99
fixed	3	10	9	540181	3	2	2	1	0	661	1	4	0	80	116	0	1	99
fixed	3	10	10	541456	1	4	4	1	0	942	1	4	0	96	117	0	1	99
fixed	3	10	11	542826	5	2	2	1	0	644	1	4	0	80	118	0	1	99
fixed	3	10	12	544033	4	3	3	1	0	737	1	4	0	88	119	0	1	99
fixed	4	1	1	686679	4	1	1	1	0	975	1	4	0	104	1	0	0	100
fixed	4	1	2	688674	1	2	2	1	0	835	1	4	0	112	2	0	0	100
fixed	4	1	3	689977	6	4	4	1	0	652	1	4	0	128	3	0	0	100
fixed	4	1	4	691392	2	1	1	1	0	648	1	4	0	104	4	0	0	100
fixed	4	1	5	692474	5	3	3	1	0	834	1	4	0	120	5	0	0	100
fixed	4	1	6	694272	6	4	4	1	0	718	1	4	0	128	6	0	0	100
fixed	4	1	7	695772	3	1	1	1	0	670	1	4	0	104	7	0	0	100
fixed	4	1	8	697351	2	3	3	1	0	684	1	4	0	120	8	0	0	100
fixed	4	1	9	698885	3	2	2	1	0	707	1	4	0	112	9	0	0	100
fixed	4	1	10	699998	1	4	4	1	0	683	1	4	0	128	10	0	0	100
fixed	4	1	11	701509	5	2	2	1	0	715	1	4	0	112	11	0	0	100
fixed	4	1	12	702691	4	3	3	1	0	673	1	4	0	120	12	0	0	100
fixed	4	2	1	704074	4	1	1	1	0	918	1	4	0	104	13	0	0	100
fixed	4	2	2	705904	1	2	2	1	0	817	1	4	0	112	14	0	0	100
fixed	4	2	3	707504	6	4	4	1	0	941	1	4	0	128	15	0	0	100
fixed	4	2	4	709264	2	1	1	1	0	643	1	4	0	104	16	0	0	100
fixed	4	2	5	710701	5	3	3	1	0	846	1	4	0	120	17	0	0	100
fixed	4	2	6	712321	6	4	4	1	0	826	1	4	0	128	18	0	0	100
fixed	4	2	7	713570	3	1	1	1	0	980	1	4	0	104	19	0	0	100
fixed	4	2	8	715279	2	3	3	1	0	660	1	4	0	120	20	0	0	100
fixed	4	2	9	716892	3	2	2	1	0	632	1	4	0	112	21	0	0	100
fixed	4	2	10	718390	1	4	4	1	0	864	1	4	0	128	22	0	0	100
fixed	4	2	11	719685	5	2	2	1	0	697	1	4	0	112	23	0	0	100
fixed	4	2	12	721385	4	3	3	1	0	841	1	4	0	120	24	0	0	100
fixed	4	3	1	723371	4	1	1	2	0	1989	2	4	0	104	25	0	0	100
fixed	4	3	2	725950	1	2	2	1	0	760	1	4	0	112	26	0	0	100
fixed	4	3	3	727026	6	4	4	1	0	779	1	4	0	128	27	0	0	100
fixed	4	3	4	728783	2	1	1	1	0	664	1	4	0	104	28	0	0	100
fixed	4	3	5	729879	5	3	3	1	0	794	1	4	0	120	29	0	0	100
fixed	4	3	6	731137	6	4	4	1	0	1269	1	4	0	128	30	0	0	100
fixed	4	3	7	732715	3	1	1	1	0	730	1	4	0	104	31	0	0	100
fixed	4	3	8	734408	2	3	3	1	0	930	1	4	0	120	32	0	0	100
fixed	4	3	9	735660	3	2	2	1	0	725	1	4	0	112	33	0	0	100
fixed	4	3	10	737082	1	4	4	1	0	977	1	4	0	128	34	0	0	100
fixed	4	3	11	738875	5	2	2	1	0	692	1	4	0	112	35	0	0	100
fixed	4	3	12	740530	4	3	3	1	0	782	1	4	0	120	36	0	0	100
fixed	4	4	1	742535	4	1	1	1	0	649	1	4	0	104	37	0	0	100
fixed	4	4	2	743534	1	2	2	1	0	1120	1	4	0	112	38	0	0	100
fixed	4	4	3	745217	6	4	4	1	0	576	1	4	0	128	39	0	0	100
fixed	4	4	4	746171	2	1	1	1	0	704	1	4	0	104	40	0	0	100
fixed	4	4	5	747291	5	3	3	1	0	864	1	4	0	120	41	0	0	100
fixed	4	4	6	748860	6	4	4	1	0	750	1	4	0	128	42	0	0	100
fixed	4	4	7	749890	3	1	1	1	0	1050	1	4	0	104	43	0	0	100
fixed	4	4	8	751883	2	3	3	1	0	798	1	4	0	120	44	0	0	100
fixed	4	4	9	753218	3	2	2	1	0	645	1	4	0	112	45	0	0	100
fixed	4	4	10	754389	1	4	4	1	0	844	1	4	0	128	46	0	0	100
fixed	4	4	11	755944	5	2	2	1	0	674	1	4	0	112	47	0	0	100
fixed	4	4	12	757357	4	3	3	1	0	750	1	4	0	120	48	0	0	100
fixed	4	5	1	758892	4	1	1	1	0	893	1	4	0	104	49	0	0	100
fixed	4	5	2	760177	1	2	2	1	0	870	1	4	0	112	50	0	0	100
fixed	4	5	3	761909	6	4	4	1	0	717	1	4	0	128	51	0	0	100
fixed	4	5	4	762987	2	1	1	1	0	743	1	4	0	104	52	0	0	100
fixed	4	5	5	764035	5	3	3	1	0	1203	1	4	0	120	53	0	0	100
fixed	4	5	6	766159	6	4	4	1	0	857	1	4	0	128	54	0	0	100
fixed	4	5	7	767903	3	1	1	1	0	719	1	4	0	104	55	0	0	100
fixed	4	5	8	768917	2	3	3	1	0	1068	1	4	0	120	56	0	0	100
fixed	4	5	9	770376	3	2	2	1	0	638	1	4	0	112	57	0	0	100
fixed	4	5	10	771744	1	4	4	1	0	780	1	4	0	128	58	0	0	100
fixed	4	5	11	773314	5	2	2	1	0	730	1	4	0	112	59	0	0	100
fixed	4	5	12	775016	4	3	3	1	0	858	1	4	0	120	60	0	0	100
fixed	4	6	1	776652	4	1	1	1	0	892	1	4	0	104	61	0	0	100
fixed	4	6	2	778242	1	2	2	2	0	1329	2	4	0	112	62	0	0	100
fixed	4	6	3	779902	6	4	4	1	0	875	1	4	0	128	63	0	0	100
fixed	4	6	4	781690	2	1	1	1	0	1239	1	4	0	104	64	0	0	100
fixed	4	6	5	783964	5	3	3	1	0	775	1	4	0	120	65	0	0	100
fixed	4	6	6	785338	6	4	4	1	0	692	1	4	0	128	66	0	0	100
fixed	4	6	7	786826	3	1	1	1	0	685	1	4	0	104	67	0	0	100
fixed	4	6	8	788086	2	3	3	1	0	912	1	4	0	120	68	0	0	100
fixed	4	6	9	789629	3	2	2	1	0	623	1	4	0	112	69	0	0	100
fixed	4	6	10	790929	1	4	4	1	0	1272	1	4	0	128	70	0	0	100
fixed	4	6	11	793072	5	2	2	1	0	741	1	4	0	112	71	0	0	100
fixed	4	6	12	794562	4	3	3	1	0	1230	1	4	0	120	72	0	0	100
fixed	4	7	1	796568	4	1	1	1	0	737	1	4	0	104	73	0	0	100
fixed	4	7	2	798002	1	2	2	1	0	1060	1	4	0	112	74	0	0	100
fixed	4	7	3	799952	6	4	4	1	0	762	1	4	0	128	75	0	0	100
fixed	4	7	4	801131	2	1	1	1	0	624	1	4	0	104	76	0	0	100
fixed	4	7	5	802544	5	3	3	1	0	788	1	4	0	120	77	0	0	100
fixed	4	7	6	804254	6	4	4	1	0	851	1	4	0	128	78	0	0	100
fixed	4	7	7	805662	3	1	1	1	0	832	1	4	0	104	79	0	0	100
fixed	4	7	8	806787	2	3	3	1	0	1121	1	4	0	120	80	0	0	100
fixed	4	7	9	808530	3	2	2	1	0	486	1	4	0	112	81	0	0	100
fixed	4	7	10	809406	1	4	4	1	0	881	1	4	0	128	82	0	0	100
fixed	4	7	11	810725	5	2	2	1	0	753	1	4	0	112	83	0	0	100
fixed	4	7	12	812186	4	3	3	1	0	700	1	4	0	120	84	0	0	100
fixed	4	8	1	813442	4	1	1	1	0	790	1	4	0	104	85	0	0	100
fixed	4	8	2	814701	1	2	2	1	0	1353	1	4	0	112	86	0	0	100
fixed	4	8	3	817024	6	4	4	1	0	751	1	4	0	128	87	0	0	100
fixed	4	8	4	818625	2	1	1	1	0	739	1	4	0	104	88	0	0	100
fixed	4	8	5	820081	5	3	3	1	0	821	1	4	0	120	89	0	0	100
fixed	4	8	6	821369	6	4	4	1	0	1167	1	4	0	128	90	0	0	100
fixed	4	8	7	823372	3	1	1	1	0	690	1	4	0	104	91	0	0	100
fixed	4	8	8	825034	2	3	3	1	0	1100	1	4	0	120	92	0	0	100
fixed	4	8	9	826941	3	2	2	1	0	450	1	4	0	112	93	0	0	100
fixed	4	8	10	827778	1	4	4	1	0	871	1	4	0	128	94	0	0	100
fixed	4	8	11	829198	5	2	2	1	0	763	1	4	0	112	95	0	0	100
fixed	4	8	12	830954	4	3	3	2	0	1440	2	4	0	120	96	0	0	100
fixed	4	9	1	833442	4	1	1	1	0	703	1	4	0	104	97	0	0	100
fixed	4	9	2	834848	1	2	2	1	0	732	1	4	0	112	98	0	0	100
fixed	4	9	3	836069	6	4	4	1	0	704	1	4	0	128	99	0	0	100
fixed	4	9	4	837272	2	1	1	1	0	917	1	4	0	104	100	0	0	100
fixed	4	9	5	838747	5	3	3	1	0	767	1	4	0	120	101	0	0	100
fixed	4	9	6	839966	6	4	4	1	0	955	1	4	0	128	102	0	0	100
fixed	4	9	7	841944	3	1	1	1	0	671	1	4	0	104	103	0	0	100
fixed	4	9	8	843196	2	3	3	1	0	882	1	4	0	120	104	0	0	100
fixed	4	9	9	844990	3	2	2	1	0	414	1	4	0	112	105	0	0	100
fixed	4	9	10	845819	1	4	4	1	0	883	1	4	0	128	106	0	0	100
fixed	4	9	11	847460	5	2	2	1	0	861	1	4	0	112	107	0	0	100
fixed	4	9	12	848773	4	3	3	1	0	806	1	4	0	120	108	0	0	100
fixed	4	10	1	850784	4	1	1	1	0	737	1	4	0	104	109	0	0	100
fixed	4	10	2	852274	1	2	2	1	0	818	1	4	0	112	110	0	0	100
fixed	4	10	3	853968	6	4	4	1	0	1002	1	4	0	128	111	0	0	100
fixed	4	10	4	855916	2	1	1	1	0	455	1	4	0	104	112	0	0	100
fixed	4	10	5	857402	5	3	3	1	0	632	1	4	0	120	113	0	0	100
fixed	4	10	6	859029	6	4	4	1	0	748	1	4	0	128	114	0	0	100
fixed	4	10	7	860672	3	1	1	1	0	750	1	4	0	104	115	0	0	100
fixed	4	10	8	862231	2	3	3	2	0	1220	2	4	0	120	116	0	0	100
fixed	4	10	9	863821	3	2	2	1	0	649	1	4	0	112	117	0	0	100
fixed	4	10	10	865384	1	4	4	1	0	1062	1	4	0	128	118	0	0	100
fixed	4	10	11	866795	5	2	2	1	0	683	1	4	0	112	119	0	0	100
fixed	4	10	12	868379	4	3	3	1	0	879	1	4	0	120	120	0	0	100
fixed	5	1	1	870764	4	1	1	1	0	1610	1	4	0	136	1	0	0	100
fixed	5	1	2	872908	1	2	2	1	0	688	1	4	0	144	2	0	0	100
fixed	5	1	3	874534	6	4	4	1	0	1443	1	4	0	160	3	0	0	100
fixed	5	1	4	876510	2	1	1	1	0	727	1	4	0	136	4	0	0	100
fixed	5	1	5	878019	5	3	3	1	0	903	1	4	0	152	5	0	0	100
fixed	5	1	6	879734	6	4	4	1	0	927	1	4	0	160	6	0	0	100
fixed	5	1	7	881354	3	1	1	2	0	1530	2	4	0	136	7	0	0	100
fixed	5	1	8	883589	2	3	3	2	0	1043	2	4	0	152	8	0	0	100
fixed	5	1	9	885561	3	2	2	1	0	624	1	4	0	144	9	0	0	100
fixed	5	1	10	886833	1	4	4	1	0	898	1	4	0	160	10	0	0	100
fixed	5	1	11	888383	5	2	2	1	0	864	1	4	0	144	11	0	0	100
fixed	5	1	12	889570	4	3	3	1	0	758	1	4	0	152	12	0	0	100
fixed	5	2	1	891217	4	1	1	1	0	680	1	4	0	136	13	0	0	100
fixed	5	2	2	892837	1	2	2	1	0	979	1	4	0	144	14	0	0	100
fixed	5	2	3	894443	6	4	4	1	0	471	1	4	0	160	15	0	0	100
fixed	5	2	4	895686	2	1	1	1	0	803	1	4	0	136	16	0	0	100
fixed	5	2	5	897114	5	3	3	1	0	902	1	4	0	152	17	0	0	100
fixed	5	2	6	898826	6	4	4	1	0	862	1	4	0	160	18	0	0	100
fixed	5	2	7	900450	3	1	1	1	0	1289	1	4	0	136	19	0	0	100
fixed	5	2	8	902132	2	3	3	1	0	834	1	4	0	152	20	0	0	100
fixed	5	2	9	903421	3	2	2	1	0	747	1	4	0	144	21	0	0	100
fixed	5	2	10	904767	1	4	4	1	0	770	1	4	0	160	22	0	0	100
fixed	5	2	11	906231	5	2	2	1	0	756	1	4	0	144	23	0	0	100
fixed	5	2	12	907675	4	3	3	1	0	751	1	4	0	152	24	0	0	100
fixed	5	3	1	909645	4	1	1	1	0	1044	1	4	0	136	25	0	0	100
fixed	5	3	2	911278	1	2	2	1	0	1103	1	4	0	144	26	0	0	100
fixed	5	3	3	913395	6	4	4	1	0	357	1	4	0	160	27	0	0	100
fixed	5	3	4	914711	2	1	1	1	0	653	1	4	0	136	28	0	0	100
fixed	5	3	5	916281	5	3	3	1	0	1083	1	4	0	152	29	0	0	100
fixed	5	3	6	917870	6	4	4	1	0	831	1	4	0	160	30	0	0	100
fixed	5	3	7	919088	3	1	1	1	0	972	1	4	0	136	31	0	0	100
fixed	5	3	8	920627	2	3	3	1	0	1051	1	4	0	152	32	0	0	100
fixed	5	3	9	922644	3	2	2	1	0	541	1	4	0	144	33	0	0	100
fixed	5	3	10	923549	1	4	4	1	0	1023	1	4	0	160	34	0	0	100
fixed	5	3	11	925608	5	2	2	1	0	736	1	4	0	144	35	0	0	100
fixed	5	3	12	927366	4	3	3	1	0	773	1	4	0	152	36	0	0	100
fixed	5	4	1	929243	4	1	1	1	0	741	1	4	0	136	37	0	0	100
fixed	5	4	2	930669	1	2	2	1	0	2049	1	4	0	144	38	0	0	100
fixed	5	4	3	933682	6	4	4	1	0	554	1	4	0	160	39	0	0	100
fixed	5	4	4	934873	2	1	1	1	0	703	1	4	0	136	40	0	0	100
fixed	5	4	5	935905	5	3	3	1	0	788	1	4	0	152	41	0	0	100
fixed	5	4	6	937439	6	4	4	1	0	763	1	4	0	160	42	0	0	100
fixed	5	4	7	938790	3	1	1	1	0	817	1	4	0	136	43	0	0	100
fixed	5	4	8	940062	2	3	3	1	0	1276	1	4	0	152	44	0	0	100
fixed	5	4	9	941914	3	2	2	1	0	653	1	4	0	144	45	0	0	100
fixed	5	4	10	943608	1	4	4	1	0	1062	1	4	0	160	46	0	0	100
fixed	5	4	11	945201	5	2	2	1	0	690	1	4	0	144	47	0	0	100
fixed	5	4	12	946717	4	3	3	1	0	849	1	4	0	152	48	0	0	100
fixed	5	5	1	948741	4	1	1	1	0	780	1	4	0	136	49	0	0	100
fixed	5	5	2	950517	1	2	2	1	0	937	1	4	0	144	50	0	0	100
fixed	5	5	3	952220	6	4	4	1	0	688	1	4	0	160	51	0	0	100
fixed	5	5	4	953352	2	1	1	1	0	776	1	4	0	136	52	0	0	100
fixed	5	5	5	954588	5	3	3	1	0	1188	1	4	0	152	53	0	0	100
fixed	5	5	6	956746	6	4	4	1	0	729	1	4	0	160	54	0	0	100
fixed	5	5	7	957926	3	1	1	1	0	887	1	4	0	136	55	0	0	100
fixed	5	5	8	959238	2	3	3	1	0	911	1	4	0	152	56	0	0	100
fixed	5	5	9	961182	3	2	2	1	0	661	1	4	0	144	57	0	0	100
fixed	5	5	10	962358	1	4	4	1	0	987	1	4	0	160	58	0	0	100
fixed	5	5	11	964098	5	2	2	2	0	1017	2	4	0	144	59	0	0	100
fixed	5	5	12	965730	4	3	3	1	0	877	1	4	0	152	60	0	0	100
fixed	5	6	1	967420	4	1	1	1	0	1052	1	4	0	136	61	0	0	100
fixed	5	6	2	969082	1	2	2	1	0	926	1	4	0	144	62	0	0	100
fixed	5	6	3	970354	6	4	4	1	0	825	1	4	0	160	63	0	0	100
fixed	5	6	4	971934	2	1	1	1	0	573	1	4	0	136	64	0	0	100
fixed	5	6	5	973496	5	3	3	1	0	988	1	4	0	152	65	0	0	100
fixed	5	6	6	975187	6	4	4	1	0	859	1	4	0	160	66	0	0	100
fixed	5	6	7	977073	3	1	1	1	0	1108	1	4	0	136	67	0	0	100
fixed	5	6	8	978625	2	3	3	1	0	1234	1	4	0	152	68	0	0	100
fixed	5	6	9	980601	3	2	2	1	0	670	1	4	0	144	69	0	0	100
fixed	5	6	10	982087	1	4	4	1	0	1095	1	4	0	160	70	0	0	100
fixed	5	6	11	983967	5	2	2	1	0	680	1	4	0	144	71	0	0	100
fixed	5	6	12	985005	4	3	3	1	0	932	1	4	0	152	72	0	0	100
fixed	5	7	1	986851	4	1	1	1	0	805	1	4	0	136	73	0	0	100
fixed	5	7	2	988684	1	2	2	1	0	1928	1	4	0	144	74	0	0	100
fixed	5	7	3	991410	6	4	4	1	0	404	1	4	0	160	75	0	0	100
fixed	5	7	4	992229	2	1	1	1	0	682	1	4	0	136	76	0	0	100
fixed	5	7	5	993840	5	3	3	1	0	838	1	4	0	152	77	0	0	100
fixed	5	7	6	995667	6	4	4	1	0	840	1	4	0	160	78	0	0	100
fixed	5	7	7	996965	3	1	1	1	0	721	1	4	0	136	79	0	0	100
fixed	5	7	8	998243	2	3	3	1	0	803	1	4	0	152	80	0	0	100
fixed	5	7	9	999730	3	2	2	1	0	453	1	4	0	144	81	0	0	100
fixed	5	7	10	1000686	1	4	4	1	0	787	1	4	0	160	82	0	0	100
fixed	5	7	11	1001813	5	2	2	1	0	924	1	4	0	144	83	0	0	100
fixed	5	7	12	1003542	4	3	3	1	0	778	1	4	0	152	84	0	0	100
fixed	5	8	1	1005297	4	1	1	1	0	912	1	4	0	136	85	0	0	100
fixed	5	8	2	1007142	1	2	2	1	0	1386	1	4	0	144	86	0	0	100
fixed	5	8	3	1008836	6	4	4	1	0	1090	1	4	0	160	87	0	0	100
fixed	5	8	4	1010489	2	1	1	1	0	733	1	4	0	136	88	0	0	100
fixed	5	8	5	1012026	5	3	3	1	0	1068	1	4	0	152	89	0	0	100
fixed	5	8	6	1013532	6	4	4	1	0	811	1	4	0	160	90	0	0	100
fixed	5	8	7	1014696	3	1	1	1	0	1010	1	4	0	136	91	0	0	100
fixed	5	8	8	1016017	2	3	3	1	0	923	1	4	0	152	92	0	0	100
fixed	5	8	9	1017493	3	2	2	1	0	700	1	4	0	144	93	0	0	100
fixed	5	8	10	1019132	1	4	4	1	0	1046	1	4	0	160	94	0	0	100
fixed	5	8	11	1021055	5	2	2	1	0	669	1	4	0	144	95	0	0	100
fixed	5	8	12	1022369	4	3	3	1	0	1189	1	4	0	152	96	0	0	100
fixed	5	9	1	1024761	4	1	1	1	0	704	1	4	0	136	97	0	0	100
fixed	5	9	2	1025963	1	2	2	1	0	1389	1	4	0	144	98	0	0	100
fixed	5	9	3	1027821	6	4	4	1	0	838	1	4	0	160	99	0	0	100
fixed	5	9	4	1029456	2	1	1	1	0	937	1	4	0	136	100	0	0	100
fixed	5	9	5	1031285	5	3	3	1	0	844	1	4	0	152	101	0	0	100
fixed	5	9	6	1032522	6	4	4	1	0	775	1	4	0	160	102	0	0	100
fixed	5	9	7	1033672	3	1	1	1	0	807	1	4	0	136	103	0	0	100
fixed	5	9	8	1035272	2	3	3	1	0	1291	1	4	0	152	104	0	0	100
fixed	5	9	9	1036928	3	2	2	1	0	629	1	4	0	144	105	0	0	100
fixed	5	9	10	1037950	1	4	4	1	0	1217	1	4	0	160	106	0	0	100
fixed	5	9	11	1040121	5	2	2	1	0	813	1	4	0	144	107	0	0	100
fixed	5	9	12	1041533	4	3	3	1	0	721	1	4	0	152	108	0	0	100
fixed	5	10	1	1043256	4	1	1	1	0	680	1	4	0	136	109	0	0	100
fixed	5	10	2	1044251	1	2	2	1	0	951	1	4	0	144	110	0	0	100
fixed	5	10	3	1046183	6	4	4	1	0	877	1	4	0	160	111	0	0	100
fixed	5	10	4	1047660	2	1	1	1	0	830	1	4	0	136	112	0	0	100
fixed	5	10	5	1048859	5	3	3	1	0	1019	1	4	0	152	113	0	0	100
fixed	5	10	6	1050626	6	4	4	1	0	864	1	4	0	160	114	0	0	100
fixed	5	10	7	1052064	3	1	1	1	0	1027	1	4	0	136	115	0	0	100
fixed	5	10	8	1054105	2	3	3	1	0	1461	1	4	0	152	116	0	0	100
fixed	5	10	9	1056547	3	2	2	1	0	438	1	4	0	144	117	0	0	100
fixed	5	10	10	1058008	1	4	4	1	0	768	1	4	0	160	118	0	0	100
fixed	5	10	11	1059781	5	2	2	1	0	668	1	4	0	144	119	0	0	100
fixed	5	10	12	1061208	4	3	3	1	0	752	1	4	0	152	120	0	0	100
random	6	1	1	1217632	6	1	1	1	0	1127	1	4	0	168	1	0	0	100
random	6	1	2	1219471	4	4	4	1	0	873	1	4	0	192	2	0	0	100
random	6	1	3	1221383	2	2	2	1	0	1008	1	4	0	176	3	0	0	100
random	6	1	4	1222754	3	3	3	1	0	510	1	4	0	184	4	0	0	100
random	6	1	5	1223871	5	2	2	1	0	743	1	4	0	176	5	0	0	100
random	6	1	6	1225333	1	4	4	1	0	801	1	4	0	192	6	0	0	100
random	6	1	7	1226414	6	1	1	1	0	771	1	4	0	168	7	0	0	100
random	6	1	8	1228097	2	3	3	1	0	644	1	4	0	184	8	0	0	100
random	6	1	9	1229736	4	2	2	2	0	878	2	4	0	176	9	0	0	100
random	6	1	10	1231163	1	1	1	1	0	866	1	4	0	168	10	0	0	100
random	6	1	11	1233038	5	4	4	1	0	602	1	4	0	192	11	0	0	100
random	6	1	12	1234130	3	3	3	1	0	788	1	4	0	184	12	0	0	100
random	6	1	13	1236196	5	2	2	1	0	1036	1	4	0	176	13	0	0	100
random	6	1	14	1237828	1	4	4	1	0	832	1	4	0	192	14	0	0	100
random	6	1	15	1239220	3	1	1	1	0	1140	1	4	0	168	15	0	0	100
random	6	1	16	1241283	4	3	3	3	0	1197	2	4	0	184	16	0	0	100
random	6	1	17	1243226	6	4	4	1	0	723	1	4	0	192	17	0	0	100
random	6	1	18	1244380	2	1	1	1	0	706	1	4	0	168	18	0	0	100
random	6	1	19	1245610	5	3	3	1	0	662	1	4	0	184	19	0	0	100
random	6	1	20	1247152	2	2	2	1	0	789	1	4	0	176	20	0	0	100
random	6	1	21	1248403	3	3	3	1	0	760	1	4	0	184	21	0	0	100
random	6	1	22	1249630	6	1	1	3	0	1731	2	4	0	168	22	0	0	100
random	6	1	23	1251846	4	2	2	1	0	1038	1	4	0	176	23	0	0	100
random	6	1	24	1253623	1	4	4	1	0	810	1	4	0	192	24	0	0	100
random	6	1	25	1255093	4	3	3	1	0	1188	1	4	0	184	25	0	0	100
random	6	1	26	1257222	2	1	1	1	0	714	1	4	0	168	26	0	0	100
random	6	1	27	1258542	5	2	2	1	0	730	1	4	0	176	27	0	0	100
random	6	1	28	1259854	6	4	4	1	0	1658	1	4	0	192	28	0	0	100
random	6	1	29	1262228	1	3	3	1	0	1014	1	4	0	184	29	0	0	100
random	6	1	30	1263666	5	2	2	1	0	721	1	4	0	176	30	0	0	100
random	6	1	31	1265397	2	1	1	1	0	712	1	4	0	168	31	0	0	100
random	6	1	32	1266581	3	3	3	1	0	1342	1	4	0	184	32	0	0	100
random	6	1	33	1268663	6	4	4	1	0	709	1	4	0	192	33	0	0	100
random	6	1	34	1269959	4	2	2	1	0	831	1	4	0	176	34	0	0	100
random	6	1	35	1271743	3	4	4	1	0	819	1	4	0	192	35	0	0	100
random	6	1	36	1273097	1	1	1	1	0	610	1	4	0	168	36	0	0	100
random	6	1	37	1274340	3	4	4	1	0	1085	1	4	0	192	37	0	0	100
random	6	1	38	1276358	5	3	3	2	0	1136	2	4	0	184	38	0	0	100
random	6	1	39	1278189	6	1	1	1	0	802	1	4	0	168	39	0	0	100
random	6	1	40	1279292	1	2	2	1	0	763	1	4	0	176	40	0	0	100
random	6	1	41	1280583	2	3	3	1	0	661	1	4	0	184	41	0	0	100
random	6	1	42	1282112	4	4	4	1	0	852	1	4	0	192	42	0	0	100
random	6	1	43	1283493	1	2	2	1	0	1137	1	4	0	176	43	0	0	100
random	6	1	44	1285489	6	3	3	1	0	661	1	4	0	184	44	0	0	100
random	6	1	45	1286991	3	1	1	1	0	789	1	4	0	168	45	0	0	100
random	6	1	46	1288783	4	4	4	2	0	1777	2	4	0	192	46	0	0	100
random	6	1	47	1291240	2	2	2	1	0	745	1	4	0	176	47	0	0	100
random	6	1	48	1292758	5	1	1	1	0	873	1	4	0	168	48	0	0	100
random	6	1	49	1294673	2	3	3	1	0	1376	1	4	0	184	49	0	0	100
random	6	1	50	1296362	3	1	1	1	0	888	1	4	0	168	50	0	0	100
random	6	1	51	1297917	1	4	4	1	0	670	1	4	0	192	51	0	0	100
random	6	1	52	1299093	5	3	3	1	0	1093	1	4	0	184	52	0	0	100
random	6	1	53	1300772	3	2	2	1	0	573	1	4	0	176	53	0	0	100
random	6	1	54	1302295	6	4	4	1	0	861	1	4	0	192	54	0	0	100
random	6	1	55	1304047	4	2	2	1	0	803	1	4	0	176	55	0	0	100
random	6	1	56	1305181	1	1	1	1	0	866	1	4	0	168	56	0	0	100
random	6	1	57	1306863	5	4	4	1	0	892	1	4	0	192	57	0	0	100
random	6	1	58	1308375	2	1	1	2	0	1619	2	4	0	168	58	0	0	100
random	6	1	59	1310755	6	2	2	1	0	727	1	4	0	176	59	0	0	100
random	6	1	60	1312306	4	3	3	1	0	885	1	4	0	184	60	0	0	100
random	6	1	61	1313887	1	2	2	1	0	698	1	4	0	176	61	0	0	100
random	6	1	62	1315327	6	4	4	1	0	813	1	4	0	192	62	0	0	100
random	6	1	63	1316820	4	1	1	1	0	974	1	4	0	168	63	0	0	100
random	6	1	64	1318475	2	2	2	1	0	904	1	4	0	176	64	0	0	100
random	6	1	65	1320043	4	3	3	1	0	941	1	4	0	184	65	0	0	100
random	6	1	66	1321375	3	1	1	1	0	1389	1	4	0	168	66	0	0	100
random	6	1	67	1323378	1	3	3	1	0	888	1	4	0	184	67	0	0	100
random	6	1	68	1325101	5	4	4	1	0	719	1	4	0	192	68	0	0	100
random	6	1	69	1326381	2	2	2	1	0	633	1	4	0	176	69	0	0	100
random	6	1	70	1327528	3	1	1	1	0	728	1	4	0	168	70	0	0	100
random	6	1	71	1328822	5	4	4	1	0	649	1	4	0	192	71	0	0	100
random	6	1	72	1330230	6	3	3	1	0	734	1	4	0	184	72	0	0	100
random	6	1	73	1332232	2	1	1	1	0	721	1	4	0	168	73	0	0	100
random	6	1	74	1333556	5	3	3	1	0	809	1	4	0	184	74	0	0	100
random	6	1	75	1334774	1	4	4	1	0	1141	1	4	0	192	75	0	0	100
random	6	1	76	1336468	6	2	2	2	0	1214	2	4	0	176	76	0	0	100
random	6	1	77	1338480	2	1	1	1	0	688	1	4	0	168	77	0	0	100
random	6	1	78	1339692	4	4	4	1	0	893	1	4	0	192	78	0	0	100
random	6	1	79	1340894	3	2	2	1	0	882	1	4	0	176	79	0	0	100
random	6	1	80	1342596	4	3	3	1	0	962	1	4	0	184	80	0	0	100
random	6	1	81	1344155	1	4	4	1	0	1136	1	4	0	192	81	0	0	100
random	6	1	82	1346254	5	1	1	1	0	751	1	4	0	168	82	0	0	100
random	6	1	83	1347946	3	2	2	1	0	680	1	4	0	176	83	0	0	100
random	6	1	84	1349100	6	3	3	1	0	655	1	4	0	184	84	0	0	100
random	6	1	85	1350477	3	2	2	2	0	980	2	4	0	176	85	0	0	100
random	6	1	86	1352088	1	3	3	1	0	672	1	4	0	184	86	0	0	100
random	6	1	87	1353795	4	4	4	1	0	656	1	4	0	192	87	0	0	100
random	6	1	88	1355139	2	1	1	1	0	799	1	4	0	168	88	0	0	100
random	6	1	89	1356537	6	4	4	2	0	1516	2	4	0	192	89	0	0	100
random	6	1	90	1358465	3	3	3	1	0	938	1	4	0	184	90	0	0	100
random	6	1	91	1360287	5	4	4	1	0	829	1	4	0	192	91	0	0	100
random	6	1	92	1361975	1	2	2	1	0	749	1	4	0	176	92	0	0	100
random	6	1	93	1363114	5	1	1	3	0	1445	2	4	0	168	93	0	0	100
random	6	1	94	1365308	4	3	3	1	0	888	1	4	0	184	94	0	0	100
random	6	1	95	1366830	6	1	1	1	0	1064	1	4	0	168	95	0	0	100
random	6	1	96	1368543	2	2	2	1	0	863	1	4	0	176	96	0	0	100
random	6	1	97	1370543	4	3	3	1	0	1026	1	4	0	184	97	0	0	100
random	6	1	98	1371945	3	2	2	1	0	671	1	4	0	176	98	0	0	100
random	6	1	99	1373356	6	3	3	1	0	947	1	4	0	184	99	0	0	100
random	6	1	100	1374894	1	4	4	1	0	794	1	4	0	192	100	0	0	100
random	6	1	101	1376247	4	1	1	1	0	945	1	4	0	168	101	0	0	100
random	6	1	102	1377572	5	2	2	2	0	1193	2	4	0	176	102	0	0	100
random	6	1	103	1379654	2	4	4	1	0	760	1	4	0	192	103	0	0	100
random	6	1	104	1381050	3	1	1	1	0	1005	1	4	0	168	104	0	0	100
random	6	1	105	1382971	1	3	3	1	0	892	1	4	0	184	105	0	0	100
random	6	1	106	1384673	2	2	2	2	0	1820	2	4	0	176	106	0	0	100
random	6	1	107	1387116	5	4	4	1	0	716	1	4	0	192	107	0	0	100
random	6	1	108	1388784	6	1	1	1	0	966	1	4	0	168	108	0	0	100
random	6	1	109	1390592	5	4	4	1	0	1473	1	4	0	192	109	0	0	100
random	6	1	110	1393029	6	3	3	1	0	1026	1	4	0	184	110	0	0	100
random	6	1	111	1394688	2	2	2	1	0	995	1	4	0	176	111	0	0	100
random	6	1	112	1396337	3	1	1	1	0	1125	1	4	0	168	112	0	0	100
random	6	1	113	1398028	1	2	2	1	0	902	1	4	0	176	113	0	0	100
random	6	1	114	1399385	2	3	3	1	0	989	1	4	0	184	114	0	0	100
random	6	1	115	1401263	3	1	1	1	0	1381	1	4	0	168	115	0	0	100
random	6	1	116	1403543	4	4	4	1	0	844	1	4	0	192	116	0	0	100
random	6	1	117	1405002	6	1	1	1	0	751	1	4	0	168	117	0	0	100
random	6	1	118	1406126	5	3	3	1	0	767	1	4	0	184	118	0	0	100
random	6	1	119	1407540	1	4	4	1	0	691	1	4	0	192	119	0	0	100
random	6	1	120	1408965	4	2	2	1	0	623	1	4	0	176	120	0	0	100
fixed	7	1	1	1411006	4	1	1	1	0	936	1	4	0	200	1	0	0	100
fixed	7	1	2	1412299	1	2	2	1	0	834	1	4	0	208	2	0	0	100
fixed	7	1	3	1413846	6	4	4	1	0	656	1	4	0	224	3	0	0	100
fixed	7	1	4	1415223	2	1	1	1	0	830	1	4	0	200	4	0	0	100
fixed	7	1	5	1416568	5	3	3	1	0	1013	1	4	0	216	5	0	0	100
fixed	7	1	6	1418093	6	4	4	1	0	764	1	4	0	224	6	0	0	100
fixed	7	1	7	1419885	3	1	1	1	0	672	1	4	0	200	7	0	0	100
fixed	7	1	8	1421313	2	3	3	1	0	924	1	4	0	216	8	0	0	100
fixed	7	1	9	1422738	3	2	2	1	0	479	1	4	0	208	9	0	0	100
fixed	7	1	10	1423669	1	4	4	1	0	664	1	4	0	224	10	0	0	100
fixed	7	1	11	1425199	5	2	2	1	0	1015	1	4	0	208	11	0	0	100
fixed	7	1	12	1426815	4	3	3	1	0	763	1	4	0	216	12	0	0	100
fixed	7	2	1	1428134	4	1	1	1	0	691	1	4	0	200	1	0	0	8
fixed	7	2	2	1429732	1	2	2	1	0	968	1	4	0	208	2	0	0	14
fixed	7	2	3	1431688	6	4	4	1	0	749	1	4	0	224	3	0	0	20
fixed	7	2	4	1432754	2	1	1	1	0	879	1	4	0	200	4	0	0	25
fixed	7	2	5	1434482	5	3	3	1	0	846	1	4	0	216	5	0	0	29
fixed	7	2	6	1435835	6	4	4	1	0	885	1	4	0	224	6	0	0	33
fixed	7	2	7	1437578	3	1	1	1	0	795	1	4	0	200	7	0	0	37
fixed	7	2	8	1439275	2	3	3	2	0	1395	2	4	0	216	8	0	0	40
fixed	7	2	9	1441056	3	2	2	1	0	624	1	4	0	208	9	0	0	43
fixed	7	2	10	1442004	1	4	4	1	0	855	1	4	0	224	10	0	0	45
fixed	7	2	11	1443457	5	2	2	1	0	666	1	4	0	208	11	0	0	48
fixed	7	2	12	1444493	4	3	3	1	0	702	1	4	0	216	12	0	0	50
fixed	7	3	1	1446412	4	1	1	1	0	749	1	4	0	200	1	0	0	4
fixed	7	3	2	1447449	1	2	2	1	0	985	1	4	0	208	2	0	0	8
fixed	7	3	3	1449418	6	4	4	1	0	661	1	4	0	224	3	0	0	11
fixed	7	3	4	1450875	2	1	1	1	0	976	1	4	0	200	4	0	0	14
fixed	7	3	5	1452739	5	3	3	1	0	1089	1	4	0	216	5	0	0	17
fixed	7	3	6	1454821	6	4	4	1	0	705	1	4	0	224	6	0	0	20
fixed	7	3	7	1456549	3	1	1	1	0	688	1	4	0	200	7	0	0	23
fixed	7	3	8	1457772	2	3	3	1	0	787	1	4	0	216	8	0	0	25
fixed	7	3	9	1459099	3	2	2	1	0	427	1	4	0	208	9	0	0	27
fixed	7	3	10	1460142	1	4	4	1	0	864	1	4	0	224	10	0	0	29
fixed	7	3	11	1461408	5	2	2	1	0	946	1	4	0	208	11	0	0	31
fixed	7	3	12	1462949	4	3	3	1	0	889	1	4	0	216	12	0	0	33
fixed	7	4	1	1464423	4	1	1	1	0	754	1	4	0	200	1	0	0	3
fixed	7	4	2	1465892	1	2	2	1	0	771	1	4	0	208	2	0	0	5
fixed	7	4	3	1467293	6	4	4	1	0	1161	1	4	0	224	3	0	0	8
fixed	7	4	4	1468833	2	1	1	1	0	767	1	4	0	200	4	0	0	10
fixed	7	4	5	1470117	5	3	3	2	0	1464	2	4	0	216	5	0	0	12
fixed	7	4	6	1472416	6	4	4	1	0	911	1	4	0	224	6	0	0	14
fixed	7	4	7	1473612	3	1	1	1	0	1277	1	4	0	200	7	0	0	16
fixed	7	4	8	1475606	2	3	3	1	0	952	1	4	0	216	8	0	0	18
fixed	7	4	9	1477010	3	2	2	1	0	469	1	4	0	208	9	0	0	20
fixed	7	4	10	1478457	1	4	4	2	0	1575	2	4	0	224	10	0	0	22
fixed	7	4	11	1480468	5	2	2	1	0	762	1	4	0	208	11	0	0	23
fixed	7	4	12	1482090	4	3	3	1	0	750	1	4	0	216	12	0	0	25
fixed	7	5	1	1484054	4	1	1	1	0	802	1	4	0	200	1	0	0	2
fixed	7	5	2	1485202	1	2	2	1	0	898	1	4	0	208	2	0	0	4
fixed	7	5	3	1486408	6	4	4	1	0	686	1	4	0	224	3	0	0	6
fixed	7	5	4	1487595	2	1	1	1	0	836	1	4	0	200	4	0	0	8
fixed	7	5	5	1489032	5	3	3	1	0	1527	1	4	0	216	5	0	0	9
fixed	7	5	6	1491527	6	4	4	1	0	1710	1	4	0	224	6	0	0	11
fixed	7	5	7	1494035	3	1	1	1	0	500	1	4	0	200	7	0	0	13
fixed	7	5	8	1495132	2	3	3	1	0	757	1	4	0	216	8	0	0	14
fixed	7	5	9	1496388	3	2	2	1	0	544	1	4	0	208	9	0	0	16
fixed	7	5	10	1497566	1	4	4	1	0	878	1	4	0	224	10	0	0	17
fixed	7	5	11	1499457	5	2	2	1	0	758	1	4	0	208	11	0	0	19
fixed	7	5	12	1500550	4	3	3	1	0	1360	1	4	0	216	12	0	0	20
fixed	7	6	1	1502734	4	1	1	1	0	763	1	4	0	200	1	0	0	2
fixed	7	6	2	1504342	1	2	2	1	0	759	1	4	0	208	2	0	0	3
fixed	7	6	3	1505572	6	4	4	1	0	747	1	4	0	224	3	0	0	5
fixed	7	6	4	1506807	2	1	1	1	0	951	1	4	0	200	4	0	0	6
fixed	7	6	5	1508688	5	3	3	1	0	991	1	4	0	216	5	0	0	8
fixed	7	6	6	1510093	6	4	4	1	0	956	1	4	0	224	6	0	0	9
fixed	7	6	7	1511411	3	1	1	1	0	1020	1	4	0	200	7	0	0	10
fixed	7	6	8	1513101	2	3	3	2	0	1604	2	4	0	216	8	0	0	12
fixed	7	6	9	1515621	3	2	2	1	0	739	1	4	0	208	9	0	0	13
fixed	7	6	10	1517346	1	4	4	1	0	761	1	4	0	224	10	0	0	14
fixed	7	6	11	1519100	5	2	2	1	0	694	1	4	0	208	11	0	0	15
fixed	7	6	12	1520124	4	3	3	1	0	882	1	4	0	216	12	0	0	17
fixed	7	7	1	1522131	4	1	1	1	0	685	1	4	0	200	1	0	0	1
fixed	7	7	2	1523265	1	2	2	1	0	981	1	4	0	208	2	0	0	3
fixed	7	7	3	1525127	6	4	4	1	0	647	1	4	0	224	3	0	0	4
fixed	7	7	4	1526222	2	1	1	1	0	744	1	4	0	200	4	0	0	5
fixed	7	7	5	1527560	5	3	3	1	0	1047	1	4	0	216	5	0	0	6
fixed	7	7	6	1529563	6	4	4	1	0	803	1	4	0	224	6	0	0	8
fixed	7	7	7	1530894	3	1	1	1	0	995	1	4	0	200	7	0	0	9
fixed	7	7	8	1532633	2	3	3	1	0	1321	1	4	0	216	8	0	0	10
fixed	7	7	9	1534635	3	2	2	1	0	508	1	4	0	208	9	0	0	11
fixed	7	7	10	1535830	1	4	4	1	0	825	1	4	0	224	10	0	0	12
fixed	7	7	11	1536963	5	2	2	1	0	682	1	4	0	208	11	0	0	13
fixed	7	7	12	1537928	4	3	3	1	0	993	1	4	0	216	12	0	0	14
fixed	7	8	1	1540125	4	1	1	1	0	971	1	4	0	200	1	0	0	1
fixed	7	8	2	1542111	1	2	2	1	0	735	1	4	0	208	2	0	0	2
fixed	7	8	3	1543754	6	4	4	1	0	810	1	4	0	224	3	0	0	3
fixed	7	8	4	1545548	2	1	1	1	0	726	1	4	0	200	4	0	0	5
fixed	7	8	5	1547136	5	3	3	1	0	947	1	4	0	216	5	0	0	6
fixed	7	8	6	1548728	6	4	4	1	0	855	1	4	0	224	6	0	0	7
fixed	7	8	7	1550577	3	1	1	1	0	681	1	4	0	200	7	0	0	8
fixed	7	8	8	1551815	2	3	3	1	0	837	1	4	0	216	8	0	0	9
fixed	7	8	9	1553508	3	2	2	1	0	484	1	4	0	208	9	0	0	10
fixed	7	8	10	1555029	1	4	4	1	0	1068	1	4	0	224	10	0	0	11
fixed	7	8	11	1556980	5	2	2	1	0	866	1	4	0	208	11	0	0	12
fixed	7	8	12	1558681	4	3	3	1	0	850	1	4	0	216	12	0	0	13
fixed	7	9	1	1560342	4	1	1	1	0	1419	1	4	0	200	1	0	0	1
fixed	7	9	2	1562591	1	2	2	1	0	796	1	4	0	208	2	0	0	2
fixed	7	9	3	1563666	6	4	4	2	0	1606	2	4	0	224	3	0	0	3
fixed	7	9	4	1565817	2	1	1	1	0	916	1	4	0	200	4	0	0	4
fixed	7	9	5	1567042	5	3	3	1	0	831	1	4	0	216	5	0	0	5
fixed	7	9	6	1568616	6	4	4	1	0	917	1	4	0	224	6	0	0	6
fixed	7	9	7	1569885	3	1	1	1	0	1327	1	4	0	200	7	0	0	7
fixed	7	9	8	1572111	2	3	3	1	0	977	1	4	0	216	8	0	0	8
fixed	7	9	9	1573957	3	2	2	1	0	754	1	4	0	208	9	0	0	9
fixed	7	9	10	1575504	1	4	4	1	0	721	1	4	0	224	10	0	0	9
fixed	7	9	11	1577251	5	2	2	1	0	711	1	4	0	208	11	0	0	10
fixed	7	9	12	1578334	4	3	3	1	0	785	1	4	0	216	12	0	0	11
fixed	7	10	1	1579823	4	1	1	1	0	826	1	4	0	200	1	0	0	1
fixed	7	10	2	1581418	1	2	2	1	0	1023	1	4	0	208	2	0	0	2
fixed	7	10	3	1583078	6	4	4	1	0	600	1	4	0	224	3	0	0	3
fixed	7	10	4	1584278	2	1	1	1	0	710	1	4	0	200	4	0	0	4
fixed	7	10	5	1585873	5	3	3	1	0	1266	1	4	0	216	5	0	0	4
fixed	7	10	6	1587966	6	4	4	1	0	793	1	4	0	224	6	0	0	5
fixed	7	10	7	1589546	3	1	1	1	0	846	1	4	0	200	7	0	0	6
fixed	7	10	8	1591143	2	3	3	1	0	859	1	4	0	216	8	0	0	7
fixed	7	10	9	1592715	3	2	2	1	0	448	1	4	0	208	9	0	0	8
fixed	7	10	10	1593604	1	4	4	1	0	650	1	4	0	224	10	0	0	8
fixed	7	10	11	1595227	5	2	2	1	0	774	1	4	0	208	11	0	0	9
fixed	7	10	12	1596388	4	3	3	1	0	917	1	4	0	216	12	0	0	10
