type	block	sequ.	trial	time	Pos.	Color	Button	NumRsp	Resp_1	RT_1	R_Code	Resp_2	RT_2	Trigg.	n_hit	n_inc	n_miss	score_%

random	1	1	1	1654	6	1	1	1	0	912	1	4	0	8	1	0	0	100
random	1	1	2	3267	4	4	4	1	0	573	1	4	0	32	2	0	0	100
random	1	1	3	4850	2	2	2	2	0	2457	2	4	0	16	3	0	0	100
random	1	1	4	7711	3	3	3	1	0	856	1	4	0	24	4	0	0	100
random	1	1	5	9010	5	2	2	1	0	1145	1	4	0	16	5	0	0	100
random	1	1	6	10649	1	4	4	1	0	724	1	4	0	32	6	0	0	100
random	1	1	7	12274	6	1	1	1	0	631	1	4	0	8	7	0	0	100
random	1	1	8	13909	2	3	3	1	0	618	1	4	0	24	8	0	0	100
random	1	1	9	14933	4	2	2	1	0	686	1	4	0	16	9	0	0	100
random	1	1	10	16435	1	1	1	1	0	703	1	4	0	8	10	0	0	100
random	1	1	11	17915	5	4	4	1	0	648	1	4	0	32	11	0	0	100
random	1	1	12	19579	3	3	3	1	0	1154	1	4	0	24	12	0	0	100
random	1	1	13	21387	5	2	2	1	0	533	1	4	0	16	13	0	0	100
random	1	1	14	22388	1	4	4	1	0	762	1	4	0	32	14	0	0	100
random	1	1	15	24081	3	1	1	1	0	531	1	4	0	8	15	0	0	100
random	1	1	16	25334	4	3	3	1	0	1006	1	4	0	24	16	0	0	100
random	1	1	17	26916	6	4	4	1	0	682	1	4	0	32	17	0	0	100
random	1	1	18	28548	2	1	1	1	0	526	1	4	0	8	18	0	0	100
random	1	1	19	29677	5	3	3	1	0	894	1	4	0	24	19	0	0	100
random	1	1	20	31319	2	2	2	1	0	584	1	4	0	16	20	0	0	100
random	1	1	21	32505	3	3	3	1	0	1078	1	4	0	24	21	0	0	100
random	1	1	22	34205	6	1	1	1	0	638	1	4	0	8	22	0	0	100
random	1	1	23	35737	4	2	2	1	0	1054	1	4	0	16	23	0	0	100
random	1	1	24	37445	1	4	4	1	0	605	1	4	0	32	24	0	0	100
random	1	1	25	39131	4	3	3	1	0	1093	1	4	0	24	25	0	0	100
random	1	1	26	40687	2	1	1	1	0	771	1	4	0	8	26	0	0	100
random	1	1	27	42236	5	2	2	1	0	826	1	4	0	16	27	0	0	100
random	1	1	28	43579	6	4	4	1	0	633	1	4	0	32	28	0	0	100
random	1	1	29	45157	1	3	3	1	0	1054	1	4	0	24	29	0	0	100
random	1	1	30	47211	5	2	2	1	0	655	1	4	0	16	30	0	0	100
random	1	1	31	48334	2	1	1	1	0	711	1	4	0	8	31	0	0	100
random	1	1	32	49561	3	3	3	1	0	1092	1	4	0	24	32	0	0	100
random	1	1	33	51362	6	4	4	1	0	631	1	4	0	32	33	0	0	100
random	1	1	34	52487	4	2	2	1	0	1048	1	4	0	16	34	0	0	100
random	1	1	35	53876	3	4	4	1	0	821	1	4	0	32	35	0	0	100
random	1	1	36	55193	1	1	1	1	0	741	1	4	0	8	36	0	0	100
random	1	1	37	57175	3	4	4	1	0	921	1	4	0	32	37	0	0	100
random	1	1	38	59075	5	3	3	1	0	1105	1	4	0	24	38	0	0	100
random	1	1	39	60969	6	1	1	1	0	616	1	4	0	8	39	0	0	100
random	1	1	40	62148	1	2	2	1	0	623	1	4	0	16	40	0	0	100
random	1	1	41	63087	2	3	3	1	0	943	1	4	0	24	41	0	0	100
random	1	1	42	64811	4	4	4	1	0	750	1	4	0	32	42	0	0	100
random	1	1	43	66147	1	2	2	1	0	693	1	4	0	16	43	0	0	100
random	1	1	44	67669	6	3	3	1	0	1029	1	4	0	24	44	0	0	100
random	1	1	45	69588	3	1	1	1	0	659	1	4	0	8	45	0	0	100
random	1	1	46	70878	4	4	4	1	0	693	1	4	0	32	46	0	0	100
random	1	1	47	72142	2	2	2	1	0	864	1	4	0	16	47	0	0	100
random	1	1	48	73612	5	1	1	1	0	545	1	4	0	8	48	0	0	100
random	1	1	49	75420	2	3	3	1	0	772	1	4	0	24	49	0	0	100
random	1	1	50	76852	3	1	1	1	0	728	1	4	0	8	50	0	0	100
random	1	1	51	77907	1	4	4	1	0	795	1	4	0	32	51	0	0	100
random	1	1	52	79593	5	3	3	2	0	1052	2	4	0	24	52	0	0	100
random	1	1	53	81117	3	2	2	1	0	883	1	4	0	16	53	0	0	100
random	1	1	54	82776	6	4	4	1	0	677	1	4	0	32	54	0	0	100
random	1	1	55	84462	4	2	2	1	0	725	1	4	0	16	55	0	0	100
random	1	1	56	86103	1	1	1	1	0	640	1	4	0	8	56	0	0	100
random	1	1	57	87046	5	4	4	1	0	664	1	4	0	32	57	0	0	100
random	1	1	58	88465	2	1	1	1	0	884	1	4	0	8	58	0	0	100
random	1	1	59	90200	6	2	2	1	0	883	1	4	0	16	59	0	0	100
random	1	1	60	91826	4	3	3	1	0	853	1	4	0	24	60	0	0	100
random	1	1	61	93481	1	2	2	1	0	1007	1	4	0	16	61	0	0	100
random	1	1	62	95135	6	4	4	1	0	649	1	4	0	32	62	0	0	100
random	1	1	63	96768	4	1	1	1	0	1140	1	4	0	8	63	0	0	100
random	1	1	64	98585	2	2	2	1	0	839	1	4	0	16	64	0	0	100
random	1	1	65	99966	4	3	3	1	0	1101	1	4	0	24	65	0	0	100
random	1	1	66	101423	3	1	1	1	0	815	1	4	0	8	66	0	0	100
random	1	1	67	102774	1	3	3	1	0	1070	1	4	0	24	67	0	0	100
random	1	1	68	104444	5	4	4	1	0	719	1	4	0	32	68	0	0	100
random	1	1	69	106159	2	2	2	1	0	703	1	4	0	16	69	0	0	100
random	1	1	70	107836	3	1	1	1	0	783	1	4	0	8	70	0	0	100
random	1	1	71	109210	5	4	4	1	0	837	1	4	0	32	71	0	0	100
random	1	1	72	111001	6	3	3	1	0	986	1	4	0	24	72	0	0	100
random	1	1	73	112795	2	1	1	1	0	741	1	4	0	8	73	0	0	100
random	1	1	74	114580	5	3	3	1	0	1386	1	4	0	24	74	0	0	100
random	1	1	75	116961	1	4	4	1	0	621	1	4	0	32	75	0	0	100
random	1	1	76	117878	6	2	2	1	0	750	1	4	0	16	76	0	0	100
random	1	1	77	119629	2	1	1	1	0	516	1	4	0	8	77	0	0	100
random	1	1	78	120919	4	4	4	1	0	605	1	4	0	32	78	0	0	100
random	1	1	79	122530	3	2	2	1	0	937	1	4	0	16	79	0	0	100
random	1	1	80	123892	4	3	3	1	0	639	1	4	0	24	80	0	0	100
random	1	1	81	125051	1	4	4	1	0	734	1	4	0	32	81	0	0	100
random	1	1	82	126209	5	1	1	1	0	693	1	4	0	8	82	0	0	100
random	1	1	83	127880	3	2	2	1	0	1054	1	4	0	16	83	0	0	100
random	1	1	84	129413	6	3	3	1	0	878	1	4	0	24	84	0	0	100
random	1	1	85	131491	3	2	2	1	0	909	1	4	0	16	85	0	0	100
random	1	1	86	133043	1	3	3	1	0	923	1	4	0	24	86	0	0	100
random	1	1	87	134724	4	4	4	1	0	941	1	4	0	32	87	0	0	100
random	1	1	88	136015	2	1	1	1	0	662	1	4	0	8	88	0	0	100
random	1	1	89	137165	6	4	4	1	0	765	1	4	0	32	89	0	0	100
random	1	1	90	138957	3	3	3	1	0	1074	1	4	0	24	90	0	0	100
random	1	1	91	140469	5	4	4	2	0	1257	2	4	0	32	91	0	0	100
random	1	1	92	142425	1	2	2	1	0	942	1	4	0	16	92	0	0	100
random	1	1	93	144276	5	1	1	1	0	552	1	4	0	8	93	0	0	100
random	1	1	94	145454	4	3	3	1	0	1022	1	4	0	24	94	0	0	100
random	1	1	95	146869	6	1	1	1	0	866	1	4	0	8	95	0	0	100
random	1	1	96	148502	2	2	2	1	0	829	1	4	0	16	96	0	0	100
random	1	1	97	150538	4	3	3	1	0	1119	1	4	0	24	97	0	0	100
random	1	1	98	152209	3	2	2	1	0	608	1	4	0	16	98	0	0	100
random	1	1	99	153719	6	3	3	1	0	1072	1	4	0	24	99	0	0	100
random	1	1	100	155434	1	4	4	1	0	703	1	4	0	32	100	0	0	100
random	1	1	101	156721	4	1	1	1	0	585	1	4	0	8	101	0	0	100
random	1	1	102	158107	5	2	2	1	0	550	1	4	0	16	102	0	0	100
random	1	1	103	159258	2	4	4	1	0	669	1	4	0	32	103	0	0	100
random	1	1	104	160815	3	1	1	1	0	763	1	4	0	8	104	0	0	100
random	1	1	105	162193	1	3	3	1	0	705	1	4	0	24	105	0	0	100
random	1	1	106	163761	2	2	2	1	0	599	1	4	0	16	106	0	0	100
random	1	1	107	164886	5	4	4	1	0	839	1	4	0	32	107	0	0	100
random	1	1	108	166594	6	1	1	1	0	678	1	4	0	8	108	0	0	100
random	1	1	109	168081	5	4	4	1	0	807	1	4	0	32	109	0	0	100
random	1	1	110	169782	6	3	3	1	0	928	1	4	0	24	110	0	0	100
random	1	1	111	171163	2	2	2	1	0	701	1	4	0	16	111	0	0	100
random	1	1	112	172404	3	1	1	1	0	593	1	4	0	8	112	0	0	100
random	1	1	113	173857	1	2	2	1	0	995	1	4	0	16	113	0	0	100
random	1	1	114	175345	2	3	3	1	0	604	1	4	0	24	114	0	0	100
random	1	1	115	176804	3	1	1	1	0	678	1	4	0	8	115	0	0	100
random	1	1	116	178132	4	4	4	1	0	678	1	4	0	32	116	0	0	100
random	1	1	117	179425	6	1	1	1	0	823	1	4	0	8	117	0	0	100
random	1	1	118	180630	5	3	3	1	0	1036	1	4	0	24	118	0	0	100
random	1	1	119	182425	1	4	4	1	0	680	1	4	0	32	119	0	0	100
random	1	1	120	183919	4	2	2	1	0	537	1	4	0	16	120	0	0	100
fixed	2	1	1	185288	4	1	1	1	0	583	1	4	0	40	1	0	0	100
fixed	2	1	2	186849	1	2	2	1	0	805	1	4	0	48	2	0	0	100
fixed	2	1	3	188605	6	4	4	1	0	690	1	4	0	64	3	0	0	100
fixed	2	1	4	189742	2	1	1	1	0	778	1	4	0	40	4	0	0	100
fixed	2	1	5	190862	5	3	3	1	0	931	1	4	0	56	5	0	0	100
fixed	2	1	6	192769	6	4	4	1	0	674	1	4	0	64	6	0	0	100
fixed	2	1	7	193829	3	1	1	1	0	693	1	4	0	40	7	0	0	100
fixed	2	1	8	195422	2	3	3	1	0	730	1	4	0	56	8	0	0	100
fixed	2	1	9	196625	3	2	2	1	0	623	1	4	0	48	9	0	0	100
fixed	2	1	10	197715	1	4	4	1	0	769	1	4	0	64	10	0	0	100
fixed	2	1	11	199071	5	2	2	1	0	863	1	4	0	48	11	0	0	100
fixed	2	1	12	200252	4	3	3	1	0	1037	1	4	0	56	12	0	0	100
fixed	2	2	1	202148	4	1	1	1	0	621	1	4	0	40	13	0	0	100
fixed	2	2	2	203163	1	2	2	1	0	930	1	4	0	48	14	0	0	100
fixed	2	2	3	204634	6	4	4	1	0	868	1	4	0	64	15	0	0	100
fixed	2	2	4	205979	2	1	1	1	0	779	1	4	0	40	16	0	0	100
fixed	2	2	5	207582	5	3	3	1	0	903	1	4	0	56	17	0	0	100
fixed	2	2	6	209221	6	4	4	1	0	697	1	4	0	64	18	0	0	100
fixed	2	2	7	210678	3	1	1	1	0	660	1	4	0	40	19	0	0	100
fixed	2	2	8	211931	2	3	3	1	0	1047	1	4	0	56	20	0	0	100
fixed	2	2	9	213820	3	2	2	1	0	583	1	4	0	48	21	0	0	100
fixed	2	2	10	214864	1	4	4	1	0	738	1	4	0	64	22	0	0	100
fixed	2	2	11	216291	5	2	2	1	0	910	1	4	0	48	23	0	0	100
fixed	2	2	12	217728	4	3	3	1	0	1041	1	4	0	56	24	0	0	100
fixed	2	3	1	219942	4	1	1	1	0	563	1	4	0	40	25	0	0	100
fixed	2	3	2	221129	1	2	2	1	0	873	1	4	0	48	26	0	0	100
fixed	2	3	3	222882	6	4	4	1	0	758	1	4	0	64	27	0	0	100
fixed	2	3	4	223967	2	1	1	1	0	880	1	4	0	40	28	0	0	100
fixed	2	3	5	225426	5	3	3	1	0	987	1	4	0	56	29	0	0	100
fixed	2	3	6	226756	6	4	4	1	0	794	1	4	0	64	30	0	0	100
fixed	2	3	7	228169	3	1	1	1	0	751	1	4	0	40	31	0	0	100
fixed	2	3	8	229783	2	3	3	1	0	890	1	4	0	56	32	0	0	100
fixed	2	3	9	231307	3	2	2	1	0	682	1	4	0	48	33	0	0	100
fixed	2	3	10	232502	1	4	4	1	0	743	1	4	0	64	34	0	0	100
fixed	2	3	11	234011	5	2	2	1	0	1151	1	4	0	48	35	0	0	100
fixed	2	3	12	235657	4	3	3	1	0	826	1	4	0	56	36	0	0	100
fixed	2	4	1	237084	4	1	1	1	0	669	1	4	0	40	37	0	0	100
fixed	2	4	2	238462	1	2	2	1	0	891	1	4	0	48	38	0	0	100
fixed	2	4	3	239659	6	4	4	1	0	912	1	4	0	64	39	0	0	100
fixed	2	4	4	240874	2	1	1	1	0	852	1	4	0	40	40	0	0	100
fixed	2	4	5	242327	5	3	3	1	0	951	1	4	0	56	41	0	0	100
fixed	2	4	6	243899	6	4	4	1	0	684	1	4	0	64	42	0	0	100
fixed	2	4	7	245285	3	1	1	1	0	705	1	4	0	40	43	0	0	100
fixed	2	4	8	246660	2	3	3	1	0	919	1	4	0	56	44	0	0	100
fixed	2	4	9	248295	3	2	2	1	0	594	1	4	0	48	45	0	0	100
fixed	2	4	10	249665	1	4	4	1	0	944	1	4	0	64	46	0	0	100
fixed	2	4	11	251453	5	2	2	1	0	748	1	4	0	48	47	0	0	100
fixed	2	4	12	252651	4	3	3	1	0	946	1	4	0	56	48	0	0	100
fixed	2	5	1	254877	4	1	1	1	0	603	1	4	0	40	49	0	0	100
fixed	2	5	2	256031	1	2	2	1	0	962	1	4	0	48	50	0	0	100
fixed	2	5	3	257701	6	4	4	1	0	716	1	4	0	64	51	0	0	100
fixed	2	5	4	259219	2	1	1	1	0	771	1	4	0	40	52	0	0	100
fixed	2	5	5	260974	5	3	3	1	0	1057	1	4	0	56	53	0	0	100
fixed	2	5	6	262796	6	4	4	1	0	844	1	4	0	64	54	0	0	100
fixed	2	5	7	264673	3	1	1	1	0	557	1	4	0	40	55	0	0	100
fixed	2	5	8	265982	2	3	3	1	0	949	1	4	0	56	56	0	0	100
fixed	2	5	9	267511	3	2	2	1	0	580	1	4	0	48	57	0	0	100
fixed	2	5	10	268546	1	4	4	1	0	792	1	4	0	64	58	0	0	100
fixed	2	5	11	269938	5	2	2	1	0	998	1	4	0	48	59	0	0	100
fixed	2	5	12	271400	4	3	3	1	0	831	1	4	0	56	60	0	0	100
fixed	2	6	1	273089	4	1	1	1	0	640	1	4	0	40	61	0	0	100
fixed	2	6	2	274220	1	2	2	1	0	744	1	4	0	48	62	0	0	100
fixed	2	6	3	275867	6	4	4	1	0	738	1	4	0	64	63	0	0	100
fixed	2	6	4	277299	2	1	1	1	0	766	1	4	0	40	64	0	0	100
fixed	2	6	5	278980	5	3	3	1	0	799	1	4	0	56	65	0	0	100
fixed	2	6	6	280709	6	4	4	1	0	693	1	4	0	64	66	0	0	100
fixed	2	6	7	282129	3	1	1	1	0	833	1	4	0	40	67	0	0	100
fixed	2	6	8	283722	2	3	3	1	0	934	1	4	0	56	68	0	0	100
fixed	2	6	9	285116	3	2	2	1	0	578	1	4	0	48	69	0	0	100
fixed	2	6	10	286005	1	4	4	1	0	829	1	4	0	64	70	0	0	100
fixed	2	6	11	287501	5	2	2	1	0	750	1	4	0	48	71	0	0	100
fixed	2	6	12	288973	4	3	3	1	0	1064	1	4	0	56	72	0	0	100
fixed	2	7	1	290815	4	1	1	1	0	657	1	4	0	40	73	0	0	100
fixed	2	7	2	292292	1	2	2	1	0	1075	1	4	0	48	74	0	0	100
fixed	2	7	3	294063	6	4	4	1	0	656	1	4	0	64	75	0	0	100
fixed	2	7	4	295190	2	1	1	1	0	808	1	4	0	40	76	0	0	100
fixed	2	7	5	296583	5	3	3	1	0	949	1	4	0	56	77	0	0	100
fixed	2	7	6	297893	6	4	4	1	0	782	1	4	0	64	78	0	0	100
fixed	2	7	7	299453	3	1	1	1	0	771	1	4	0	40	79	0	0	100
fixed	2	7	8	300707	2	3	3	1	0	1390	1	4	0	56	80	0	0	100
fixed	2	7	9	302757	3	2	2	1	0	600	1	4	0	48	81	0	0	100
fixed	2	7	10	303718	1	4	4	1	0	1319	1	4	0	64	82	0	0	100
fixed	2	7	11	305481	5	2	2	1	0	908	1	4	0	48	83	0	0	100
fixed	2	7	12	307102	4	3	3	1	0	880	1	4	0	56	84	0	0	100
fixed	2	8	1	308526	4	1	1	1	0	659	1	4	0	40	85	0	0	100
fixed	2	8	2	310095	1	2	2	1	0	904	1	4	0	48	86	0	0	100
fixed	2	8	3	311948	6	4	4	1	0	722	1	4	0	64	87	0	0	100
fixed	2	8	4	313361	2	1	1	1	0	790	1	4	0	40	88	0	0	100
fixed	2	8	5	314871	5	3	3	1	0	935	1	4	0	56	89	0	0	100
fixed	2	8	6	316658	6	4	4	1	0	683	1	4	0	64	90	0	0	100
fixed	2	8	7	318151	3	1	1	1	0	827	1	4	0	40	91	0	0	100
fixed	2	8	8	319976	2	3	3	1	0	998	1	4	0	56	92	0	0	100
fixed	2	8	9	321394	3	2	2	1	0	698	1	4	0	48	93	0	0	100
fixed	2	8	10	322708	1	4	4	1	0	770	1	4	0	64	94	0	0	100
fixed	2	8	11	324510	5	2	2	1	0	814	1	4	0	48	95	0	0	100
fixed	2	8	12	325885	4	3	3	1	0	900	1	4	0	56	96	0	0	100
fixed	2	9	1	327773	4	1	1	1	0	644	1	4	0	40	97	0	0	100
fixed	2	9	2	329266	1	2	2	1	0	757	1	4	0	48	98	0	0	100
fixed	2	9	3	331019	6	4	4	1	0	906	1	4	0	64	99	0	0	100
fixed	2	9	4	332448	2	1	1	1	0	742	1	4	0	40	100	0	0	100
fixed	2	9	5	333607	5	3	3	1	0	1061	1	4	0	56	101	0	0	100
fixed	2	9	6	334979	6	4	4	1	0	1019	1	4	0	64	102	0	0	100
fixed	2	9	7	336997	3	1	1	1	0	677	1	4	0	40	103	0	0	100
fixed	2	9	8	338133	2	3	3	1	0	893	1	4	0	56	104	0	0	100
fixed	2	9	9	339678	3	2	2	1	0	540	1	4	0	48	105	0	0	100
fixed	2	9	10	341007	1	4	4	1	0	659	1	4	0	64	106	0	0	100
fixed	2	9	11	342217	5	2	2	1	0	880	1	4	0	48	107	0	0	100
fixed	2	9	12	344023	4	3	3	1	0	1004	1	4	0	56	108	0	0	100
fixed	2	10	1	345934	4	1	1	1	0	610	1	4	0	40	109	0	0	100
fixed	2	10	2	347311	1	2	2	1	0	896	1	4	0	48	110	0	0	100
fixed	2	10	3	348755	6	4	4	1	0	731	1	4	0	64	111	0	0	100
fixed	2	10	4	350329	2	1	1	1	0	840	1	4	0	40	112	0	0	100
fixed	2	10	5	352089	5	3	3	1	0	622	1	4	0	56	113	0	0	100
fixed	2	10	6	353268	6	4	4	1	0	756	1	4	0	64	114	0	0	100
fixed	2	10	7	354686	3	1	1	1	0	648	1	4	0	40	115	0	0	100
fixed	2	10	8	355687	2	3	3	1	0	862	1	4	0	56	116	0	0	100
fixed	2	10	9	356861	3	2	2	1	0	636	1	4	0	48	117	0	0	100
fixed	2	10	10	358530	1	4	4	1	0	685	1	4	0	64	118	0	0	100
fixed	2	10	11	360135	5	2	2	1	0	777	1	4	0	48	119	0	0	100
fixed	2	10	12	361333	4	3	3	1	0	1023	1	4	0	56	120	0	0	100
fixed	3	1	1	363609	4	1	1	1	0	502	1	4	0	72	1	0	0	100
fixed	3	1	2	364838	1	2	2	1	0	1026	1	4	0	80	2	0	0	100
fixed	3	1	3	366348	6	4	4	1	0	674	1	4	0	96	3	0	0	100
fixed	3	1	4	367673	2	1	1	1	0	746	1	4	0	72	4	0	0	100
fixed	3	1	5	368784	5	3	3	1	0	987	1	4	0	88	5	0	0	100
fixed	3	1	6	370141	6	4	4	1	0	769	1	4	0	96	6	0	0	100
fixed	3	1	7	371660	3	1	1	1	0	649	1	4	0	72	7	0	0	100
fixed	3	1	8	372776	2	3	3	1	0	1074	1	4	0	88	8	0	0	100
fixed	3	1	9	374211	3	2	2	1	0	637	1	4	0	80	9	0	0	100
fixed	3	1	10	375561	1	4	4	1	0	596	1	4	0	96	10	0	0	100
fixed	3	1	11	376881	5	2	2	1	0	964	1	4	0	80	11	0	0	100
fixed	3	1	12	378446	4	3	3	1	0	737	1	4	0	88	12	0	0	100
fixed	3	2	1	379767	4	1	1	1	0	641	1	4	0	72	13	0	0	100
fixed	3	2	2	381447	1	2	2	1	0	1387	1	4	0	80	14	0	0	100
fixed	3	2	3	383208	6	4	4	1	0	696	1	4	0	96	15	0	0	100
fixed	3	2	4	384505	2	1	1	1	0	873	1	4	0	72	16	0	0	100
fixed	3	2	5	386080	5	3	3	1	0	606	1	4	0	88	17	0	0	100
fixed	3	2	6	387046	6	4	4	1	0	822	1	4	0	96	18	0	0	100
fixed	3	2	7	388598	3	1	1	1	0	596	1	4	0	72	19	0	0	100
fixed	3	2	8	389856	2	3	3	1	0	1142	1	4	0	88	20	0	0	100
fixed	3	2	9	391605	3	2	2	1	0	580	1	4	0	80	21	0	0	100
fixed	3	2	10	392475	1	4	4	1	0	856	1	4	0	96	22	0	0	100
fixed	3	2	11	394002	5	2	2	1	0	1023	1	4	0	80	23	0	0	100
fixed	3	2	12	395834	4	3	3	1	0	969	1	4	0	88	24	0	0	100
fixed	3	3	1	397912	4	1	1	1	0	713	1	4	0	72	25	0	0	100
fixed	3	3	2	399196	1	2	2	1	0	906	1	4	0	80	26	0	0	100
fixed	3	3	3	400705	6	4	4	1	0	675	1	4	0	96	27	0	0	100
fixed	3	3	4	402089	2	1	1	1	0	744	1	4	0	72	28	0	0	100
fixed	3	3	5	403223	5	3	3	1	0	768	1	4	0	88	29	0	0	100
fixed	3	3	6	404931	6	4	4	1	0	816	1	4	0	96	30	0	0	100
fixed	3	3	7	406317	3	1	1	1	0	693	1	4	0	72	31	0	0	100
fixed	3	3	8	407316	2	3	3	1	0	731	1	4	0	88	32	0	0	100
fixed	3	3	9	409047	3	2	2	1	0	530	1	4	0	80	33	0	0	100
fixed	3	3	10	410137	1	4	4	1	0	796	1	4	0	96	34	0	0	100
fixed	3	3	11	411812	5	2	2	1	0	876	1	4	0	80	35	0	0	100
fixed	3	3	12	413306	4	3	3	1	0	917	1	4	0	88	36	0	0	100
fixed	3	4	1	414803	4	1	1	1	0	654	1	4	0	72	37	0	0	100
fixed	3	4	2	416188	1	2	2	1	0	843	1	4	0	80	38	0	0	100
fixed	3	4	3	417475	6	4	4	1	0	684	1	4	0	96	39	0	0	100
fixed	3	4	4	418964	2	1	1	1	0	933	1	4	0	72	40	0	0	100
fixed	3	4	5	420706	5	3	3	1	0	1108	1	4	0	88	41	0	0	100
fixed	3	4	6	422290	6	4	4	1	0	712	1	4	0	96	42	0	0	100
fixed	3	4	7	423957	3	1	1	1	0	554	1	4	0	72	43	0	0	100
fixed	3	4	8	425369	2	3	3	1	0	694	1	4	0	88	44	0	0	100
fixed	3	4	9	426963	3	2	2	1	0	467	1	4	0	80	45	0	0	100
fixed	3	4	10	428071	1	4	4	1	0	756	1	4	0	96	46	0	0	100
fixed	3	4	11	429317	5	2	2	1	0	959	1	4	0	80	47	0	0	100
fixed	3	4	12	430791	4	3	3	1	0	984	1	4	0	88	48	0	0	100
fixed	3	5	1	432613	4	1	1	1	0	579	1	4	0	72	49	0	0	100
fixed	3	5	2	433900	1	2	2	1	0	717	1	4	0	80	50	0	0	100
fixed	3	5	3	435300	6	4	4	1	0	682	1	4	0	96	51	0	0	100
fixed	3	5	4	436300	2	1	1	1	0	807	1	4	0	72	52	0	0	100
fixed	3	5	5	437641	5	3	3	1	0	1374	1	4	0	88	53	0	0	100
fixed	3	5	6	439583	6	4	4	1	0	628	1	4	0	96	54	0	0	100
fixed	3	5	7	440608	3	1	1	1	0	777	1	4	0	72	55	0	0	100
fixed	3	5	8	442392	2	3	3	1	0	557	1	4	0	88	56	0	0	100
fixed	3	5	9	443355	3	2	2	1	0	708	1	4	0	80	57	0	0	100
fixed	3	5	10	444385	1	4	4	1	0	801	1	4	0	96	58	0	0	100
fixed	3	5	11	446039	5	2	2	1	0	875	1	4	0	80	59	0	0	100
fixed	3	5	12	447894	4	3	3	1	0	1004	1	4	0	88	60	0	0	100
fixed	3	6	1	449923	4	1	1	1	0	758	1	4	0	72	61	0	0	100
fixed	3	6	2	451605	1	2	2	1	0	943	1	4	0	80	62	0	0	100
fixed	3	6	3	453063	6	4	4	1	0	705	1	4	0	96	63	0	0	100
fixed	3	6	4	454230	2	1	1	1	0	720	1	4	0	72	64	0	0	100
fixed	3	6	5	455299	5	3	3	1	0	707	1	4	0	88	65	0	0	100
fixed	3	6	6	456928	6	4	4	1	0	566	1	4	0	96	66	0	0	100
fixed	3	6	7	458244	3	1	1	1	0	710	1	4	0	72	67	0	0	100
fixed	3	6	8	459426	2	3	3	1	0	723	1	4	0	88	68	0	0	100
fixed	3	6	9	460595	3	2	2	1	0	699	1	4	0	80	69	0	0	100
fixed	3	6	10	462212	1	4	4	1	0	646	1	4	0	96	70	0	0	100
fixed	3	6	11	463230	5	2	2	1	0	835	1	4	0	80	71	0	0	100
fixed	3	6	12	465020	4	3	3	1	0	783	1	4	0	88	72	0	0	100
fixed	3	7	1	466563	4	1	1	1	0	573	1	4	0	72	73	0	0	100
fixed	3	7	2	467842	1	2	2	1	0	815	1	4	0	80	74	0	0	100
fixed	3	7	3	469290	6	4	4	1	0	786	1	4	0	96	75	0	0	100
fixed	3	7	4	470770	2	1	1	1	0	676	1	4	0	72	76	0	0	100
fixed	3	7	5	472193	5	3	3	1	0	1231	1	4	0	88	77	0	0	100
fixed	3	7	6	474207	6	4	4	1	0	618	1	4	0	96	78	0	0	100
fixed	3	7	7	475652	3	1	1	1	0	572	1	4	0	72	79	0	0	100
fixed	3	7	8	476846	2	3	3	1	0	714	1	4	0	88	80	0	0	100
fixed	3	7	9	478104	3	2	2	1	0	477	1	4	0	80	81	0	0	100
fixed	3	7	10	479177	1	4	4	1	0	679	1	4	0	96	82	0	0	100
fixed	3	7	11	480277	5	2	2	1	0	857	1	4	0	80	83	0	0	100
fixed	3	7	12	481818	4	3	3	1	0	911	1	4	0	88	84	0	0	100
fixed	3	8	1	483722	4	1	1	1	0	678	1	4	0	72	85	0	0	100
fixed	3	8	2	485031	1	2	2	1	0	751	1	4	0	80	86	0	0	100
fixed	3	8	3	486474	6	4	4	1	0	778	1	4	0	96	87	0	0	100
fixed	3	8	4	487960	2	1	1	1	0	675	1	4	0	72	88	0	0	100
fixed	3	8	5	489316	5	3	3	1	0	698	1	4	0	88	89	0	0	100
fixed	3	8	6	490482	6	4	4	1	0	849	1	4	0	96	90	0	0	100
fixed	3	8	7	492127	3	1	1	1	0	762	1	4	0	72	91	0	0	100
fixed	3	8	8	493431	2	3	3	1	0	1043	1	4	0	88	92	0	0	100
fixed	3	8	9	494825	3	2	2	1	0	617	1	4	0	80	93	0	0	100
fixed	3	8	10	496008	1	4	4	1	0	678	1	4	0	96	94	0	0	100
fixed	3	8	11	497565	5	2	2	1	0	876	1	4	0	80	95	0	0	100
fixed	3	8	12	499389	4	3	3	1	0	943	1	4	0	88	96	0	0	100
fixed	3	9	1	501415	4	1	1	1	0	601	1	4	0	72	97	0	0	100
fixed	3	9	2	502897	1	2	2	1	0	763	1	4	0	80	98	0	0	100
fixed	3	9	3	504080	6	4	4	1	0	712	1	4	0	96	99	0	0	100
fixed	3	9	4	505289	2	1	1	1	0	725	1	4	0	72	100	0	0	100
fixed	3	9	5	506913	5	3	3	1	0	1432	1	4	0	88	101	0	0	100
fixed	3	9	6	508806	6	4	4	1	0	640	1	4	0	96	102	0	0	100
fixed	3	9	7	510078	3	1	1	1	0	578	1	4	0	72	103	0	0	100
fixed	3	9	8	511044	2	3	3	1	0	825	1	4	0	88	104	0	0	100
fixed	3	9	9	512167	3	2	2	1	0	618	1	4	0	80	105	0	0	100
fixed	3	9	10	513129	1	4	4	1	0	713	1	4	0	96	106	0	0	100
fixed	3	9	11	514603	5	2	2	1	0	907	1	4	0	80	107	0	0	100
fixed	3	9	12	516251	4	3	3	1	0	861	1	4	0	88	108	0	0	100
fixed	3	10	1	517906	4	1	1	1	0	599	1	4	0	72	109	0	0	100
fixed	3	10	2	519443	1	2	2	1	0	741	1	4	0	80	110	0	0	100
fixed	3	10	3	520722	6	4	4	1	0	680	1	4	0	96	111	0	0	100
fixed	3	10	4	521797	2	1	1	1	0	802	1	4	0	72	112	0	0	100
fixed	3	10	5	523043	5	3	3	1	0	645	1	4	0	88	113	0	0	100
fixed	3	10	6	524718	6	4	4	1	0	631	1	4	0	96	114	0	0	100
fixed	3	10	7	526364	3	1	1	1	0	688	1	4	0	72	115	0	0	100
fixed	3	10	8	527956	2	3	3	1	0	797	1	4	0	88	116	0	0	100
fixed	3	10	9	529065	3	2	2	1	0	518	1	4	0	80	117	0	0	100
fixed	3	10	10	530511	1	4	4	1	0	713	1	4	0	96	118	0	0	100
fixed	3	10	11	532103	5	2	2	1	0	1062	1	4	0	80	119	0	0	100
fixed	3	10	12	533976	4	3	3	1	0	726	1	4	0	88	120	0	0	100
fixed	4	1	1	643612	4	1	1	1	0	1682	1	4	0	104	1	0	0	100
fixed	4	1	2	646281	1	2	2	1	0	794	1	4	0	112	2	0	0	100
fixed	4	1	3	647463	6	4	4	1	0	831	1	4	0	128	3	0	0	100
fixed	4	1	4	648822	2	1	1	1	0	822	1	4	0	104	4	0	0	100
fixed	4	1	5	650500	5	3	3	1	0	791	1	4	0	120	5	0	0	100
fixed	4	1	6	652024	6	4	4	1	0	646	1	4	0	128	6	0	0	100
fixed	4	1	7	653067	3	1	1	1	0	882	1	4	0	104	7	0	0	100
fixed	4	1	8	654396	2	3	3	1	0	1034	1	4	0	120	8	0	0	100
fixed	4	1	9	656190	3	2	2	1	0	622	1	4	0	112	9	0	0	100
fixed	4	1	10	657137	1	4	4	1	0	734	1	4	0	128	10	0	0	100
fixed	4	1	11	658226	5	2	2	1	0	776	1	4	0	112	11	0	0	100
fixed	4	1	12	659668	4	3	3	1	0	786	1	4	0	120	12	0	0	100
fixed	4	2	1	661659	4	1	1	1	0	630	1	4	0	104	13	0	0	100
fixed	4	2	2	662949	1	2	2	1	0	1151	1	4	0	112	14	0	0	100
fixed	4	2	3	664713	6	4	4	1	0	877	1	4	0	128	15	0	0	100
fixed	4	2	4	666011	2	1	1	1	0	790	1	4	0	104	16	0	0	100
fixed	4	2	5	667765	5	3	3	1	0	884	1	4	0	120	17	0	0	100
fixed	4	2	6	669419	6	4	4	1	0	614	1	4	0	128	18	0	0	100
fixed	4	2	7	671055	3	1	1	1	0	672	1	4	0	104	19	0	0	100
fixed	4	2	8	672374	2	3	3	1	0	920	1	4	0	120	20	0	0	100
fixed	4	2	9	674118	3	2	2	1	0	487	1	4	0	112	21	0	0	100
fixed	4	2	10	674991	1	4	4	1	0	769	1	4	0	128	22	0	0	100
fixed	4	2	11	676723	5	2	2	1	0	864	1	4	0	112	23	0	0	100
fixed	4	2	12	678599	4	3	3	1	0	1000	1	4	0	120	24	0	0	100
fixed	4	3	1	680739	4	1	1	1	0	622	1	4	0	104	25	0	0	100
fixed	4	3	2	682103	1	2	2	1	0	1004	1	4	0	112	26	0	0	100
fixed	4	3	3	683800	6	4	4	1	0	548	1	4	0	128	27	0	0	100
fixed	4	3	4	684845	2	1	1	1	0	712	1	4	0	104	28	0	0	100
fixed	4	3	5	686070	5	3	3	1	0	580	1	4	0	120	29	0	0	100
fixed	4	3	6	687436	6	4	4	1	0	650	1	4	0	128	30	0	0	100
fixed	4	3	7	688899	3	1	1	1	0	756	1	4	0	104	31	0	0	100
fixed	4	3	8	690563	2	3	3	1	0	502	1	4	0	120	32	0	0	100
fixed	4	3	9	691971	3	2	2	1	0	458	1	4	0	112	33	0	0	100
fixed	4	3	10	692839	1	4	4	1	0	853	1	4	0	128	34	0	0	100
fixed	4	3	11	694276	5	2	2	1	0	1041	1	4	0	112	35	0	0	100
fixed	4	3	12	695857	4	3	3	1	0	901	1	4	0	120	36	0	0	100
fixed	4	4	1	697630	4	1	1	1	0	618	1	4	0	104	37	0	0	100
fixed	4	4	2	698593	1	2	2	1	0	826	1	4	0	112	38	0	0	100
fixed	4	4	3	700312	6	4	4	1	0	593	1	4	0	128	39	0	0	100
fixed	4	4	4	701378	2	1	1	1	0	764	1	4	0	104	40	0	0	100
fixed	4	4	5	703120	5	3	3	1	0	586	1	4	0	120	41	0	0	100
fixed	4	4	6	704206	6	4	4	1	0	804	1	4	0	128	42	0	0	100
fixed	4	4	7	705689	3	1	1	1	0	693	1	4	0	104	43	0	0	100
fixed	4	4	8	707349	2	3	3	1	0	527	1	4	0	120	44	0	0	100
fixed	4	4	9	708706	3	2	2	1	0	485	1	4	0	112	45	0	0	100
fixed	4	4	10	710110	1	4	4	1	0	490	1	4	0	128	46	0	0	100
fixed	4	4	11	710942	5	2	2	1	0	847	1	4	0	112	47	0	0	100
fixed	4	4	12	712752	4	3	3	1	0	802	1	4	0	120	48	0	0	100
fixed	4	5	1	714304	4	1	1	1	0	640	1	4	0	104	49	0	0	100
fixed	4	5	2	715915	1	2	2	1	0	772	1	4	0	112	50	0	0	100
fixed	4	5	3	717615	6	4	4	1	0	756	1	4	0	128	51	0	0	100
fixed	4	5	4	719345	2	1	1	1	0	699	1	4	0	104	52	0	0	100
fixed	4	5	5	720840	5	3	3	1	0	867	1	4	0	120	53	0	0	100
fixed	4	5	6	722377	6	4	4	1	0	706	1	4	0	128	54	0	0	100
fixed	4	5	7	723893	3	1	1	1	0	642	1	4	0	104	55	0	0	100
fixed	4	5	8	725510	2	3	3	1	0	798	1	4	0	120	56	0	0	100
fixed	4	5	9	727251	3	2	2	1	0	452	1	4	0	112	57	0	0	100
fixed	4	5	10	728207	1	4	4	1	0	819	1	4	0	128	58	0	0	100
fixed	4	5	11	729757	5	2	2	1	0	849	1	4	0	112	59	0	0	100
fixed	4	5	12	731356	4	3	3	1	0	806	1	4	0	120	60	0	0	100
fixed	4	6	1	733134	4	1	1	1	0	515	1	4	0	104	61	0	0	100
fixed	4	6	2	734401	1	2	2	1	0	1334	1	4	0	112	62	0	0	100
fixed	4	6	3	736361	6	4	4	1	0	690	1	4	0	128	63	0	0	100
fixed	4	6	4	737825	2	1	1	1	0	732	1	4	0	104	64	0	0	100
fixed	4	6	5	739485	5	3	3	1	0	582	1	4	0	120	65	0	0	100
fixed	4	6	6	740816	6	4	4	1	0	734	1	4	0	128	66	0	0	100
fixed	4	6	7	742563	3	1	1	1	0	747	1	4	0	104	67	0	0	100
fixed	4	6	8	744092	2	3	3	1	0	1210	1	4	0	120	68	0	0	100
fixed	4	6	9	745633	3	2	2	1	0	537	1	4	0	112	69	0	0	100
fixed	4	6	10	746752	1	4	4	1	0	762	1	4	0	128	70	0	0	100
fixed	4	6	11	748120	5	2	2	1	0	728	1	4	0	112	71	0	0	100
fixed	4	6	12	749622	4	3	3	2	0	1576	2	4	0	120	72	0	0	100
fixed	4	7	1	751780	4	1	1	1	0	677	1	4	0	104	73	0	0	100
fixed	4	7	2	753388	1	2	2	1	0	1081	1	4	0	112	74	0	0	100
fixed	4	7	3	754777	6	4	4	1	0	654	1	4	0	128	75	0	0	100
fixed	4	7	4	756050	2	1	1	1	0	728	1	4	0	104	76	0	0	100
fixed	4	7	5	757340	5	3	3	1	0	650	1	4	0	120	77	0	0	100
fixed	4	7	6	758567	6	4	4	1	0	798	1	4	0	128	78	0	0	100
fixed	4	7	7	759880	3	1	1	1	0	742	1	4	0	104	79	0	0	100
fixed	4	7	8	761379	2	3	3	1	0	535	1	4	0	120	80	0	0	100
fixed	4	7	9	762392	3	2	2	1	0	451	1	4	0	112	81	0	0	100
fixed	4	7	10	763610	1	4	4	1	0	608	1	4	0	128	82	0	0	100
fixed	4	7	11	764892	5	2	2	1	0	898	1	4	0	112	83	0	0	100
fixed	4	7	12	766633	4	3	3	1	0	952	1	4	0	120	84	0	0	100
fixed	4	8	1	768421	4	1	1	1	0	628	1	4	0	104	85	0	0	100
fixed	4	8	2	769811	1	2	2	1	0	817	1	4	0	112	86	0	0	100
fixed	4	8	3	771556	6	4	4	1	0	600	1	4	0	128	87	0	0	100
fixed	4	8	4	772840	2	1	1	1	0	673	1	4	0	104	88	0	0	100
fixed	4	8	5	773963	5	3	3	1	0	954	1	4	0	120	89	0	0	100
fixed	4	8	6	775261	6	4	4	1	0	850	1	4	0	128	90	0	0	100
fixed	4	8	7	776921	3	1	1	1	0	805	1	4	0	104	91	0	0	100
fixed	4	8	8	778226	2	3	3	1	0	837	1	4	0	120	92	0	0	100
fixed	4	8	9	779918	3	2	2	1	0	461	1	4	0	112	93	0	0	100
fixed	4	8	10	781399	1	4	4	1	0	711	1	4	0	128	94	0	0	100
fixed	4	8	11	782543	5	2	2	1	0	870	1	4	0	112	95	0	0	100
fixed	4	8	12	784446	4	3	3	1	0	797	1	4	0	120	96	0	0	100
fixed	4	9	1	786448	4	1	1	1	0	624	1	4	0	104	97	0	0	100
fixed	4	9	2	787617	1	2	2	1	0	879	1	4	0	112	98	0	0	100
fixed	4	9	3	788923	6	4	4	1	0	736	1	4	0	128	99	0	0	100
fixed	4	9	4	790654	2	1	1	1	0	751	1	4	0	104	100	0	0	100
fixed	4	9	5	792026	5	3	3	1	0	1005	1	4	0	120	101	0	0	100
fixed	4	9	6	793350	6	4	4	1	0	764	1	4	0	128	102	0	0	100
fixed	4	9	7	794798	3	1	1	1	0	711	1	4	0	104	103	0	0	100
fixed	4	9	8	796271	2	3	3	1	0	576	1	4	0	120	104	0	0	100
fixed	4	9	9	797178	3	2	2	1	0	498	1	4	0	112	105	0	0	100
fixed	4	9	10	798581	1	4	4	1	0	599	1	4	0	128	106	0	0	100
fixed	4	9	11	799818	5	2	2	1	0	730	1	4	0	112	107	0	0	100
fixed	4	9	12	801421	4	3	3	1	0	814	1	4	0	120	108	0	0	100
fixed	4	10	1	803490	4	1	1	1	0	703	1	4	0	104	109	0	0	100
fixed	4	10	2	805137	1	2	2	1	0	697	1	4	0	112	110	0	0	100
fixed	4	10	3	806200	6	4	4	1	0	636	1	4	0	128	111	0	0	100
fixed	4	10	4	807760	2	1	1	1	0	666	1	4	0	104	112	0	0	100
fixed	4	10	5	808955	5	3	3	1	0	855	1	4	0	120	113	0	0	100
fixed	4	10	6	810150	6	4	4	1	0	805	1	4	0	128	114	0	0	100
fixed	4	10	7	811516	3	1	1	1	0	659	1	4	0	104	115	0	0	100
fixed	4	10	8	812740	2	3	3	1	0	495	1	4	0	120	116	0	0	100
fixed	4	10	9	813794	3	2	2	1	0	451	1	4	0	112	117	0	0	100
fixed	4	10	10	814824	1	4	4	1	0	607	1	4	0	128	118	0	0	100
fixed	4	10	11	815823	5	2	2	1	0	660	1	4	0	112	119	0	0	100
fixed	4	10	12	817284	4	3	3	1	0	943	1	4	0	120	120	0	0	100
fixed	5	1	1	819778	4	1	1	1	0	469	1	4	0	136	1	0	0	100
fixed	5	1	2	821037	1	2	2	1	0	1184	1	4	0	144	2	0	0	100
fixed	5	1	3	822758	6	4	4	1	0	679	1	4	0	160	3	0	0	100
fixed	5	1	4	823725	2	1	1	1	0	758	1	4	0	136	4	0	0	100
fixed	5	1	5	824810	5	3	3	1	0	632	1	4	0	152	5	0	0	100
fixed	5	1	6	825939	6	4	4	1	0	720	1	4	0	160	6	0	0	100
fixed	5	1	7	827240	3	1	1	1	0	761	1	4	0	136	7	0	0	100
fixed	5	1	8	828741	2	3	3	1	0	817	1	4	0	152	8	0	0	100
fixed	5	1	9	829965	3	2	2	1	0	542	1	4	0	144	9	0	0	100
fixed	5	1	10	831536	1	4	4	1	0	531	1	4	0	160	10	0	0	100
fixed	5	1	11	832834	5	2	2	1	0	876	1	4	0	144	11	0	0	100
fixed	5	1	12	834676	4	3	3	1	0	1286	1	4	0	152	12	0	0	100
fixed	5	2	1	836955	4	1	1	1	0	645	1	4	0	136	13	0	0	100
fixed	5	2	2	838363	1	2	2	1	0	690	1	4	0	144	14	0	0	100
fixed	5	2	3	839461	6	4	4	1	0	723	1	4	0	160	15	0	0	100
fixed	5	2	4	840992	2	1	1	1	0	731	1	4	0	136	16	0	0	100
fixed	5	2	5	842606	5	3	3	1	0	974	1	4	0	152	17	0	0	100
fixed	5	2	6	843993	6	4	4	1	0	1059	1	4	0	160	18	0	0	100
fixed	5	2	7	846026	3	1	1	1	0	613	1	4	0	136	19	0	0	100
fixed	5	2	8	847200	2	3	3	1	0	827	1	4	0	152	20	0	0	100
fixed	5	2	9	848642	3	2	2	1	0	479	1	4	0	144	21	0	0	100
fixed	5	2	10	849869	1	4	4	1	0	442	1	4	0	160	22	0	0	100
fixed	5	2	11	851288	5	2	2	1	0	943	1	4	0	144	23	0	0	100
fixed	5	2	12	852733	4	3	3	1	0	873	1	4	0	152	24	0	0	100
fixed	5	3	1	854331	4	1	1	1	0	573	1	4	0	136	25	0	0	100
fixed	5	3	2	855737	1	2	2	1	0	706	1	4	0	144	26	0	0	100
fixed	5	3	3	857115	6	4	4	1	0	520	1	4	0	160	27	0	0	100
fixed	5	3	4	857957	2	1	1	1	0	796	1	4	0	136	28	0	0	100
fixed	5	3	5	859193	5	3	3	1	0	655	1	4	0	152	29	0	0	100
fixed	5	3	6	860376	6	4	4	1	0	670	1	4	0	160	30	0	0	100
fixed	5	3	7	861458	3	1	1	1	0	720	1	4	0	136	31	0	0	100
fixed	5	3	8	862512	2	3	3	1	0	715	1	4	0	152	32	0	0	100
fixed	5	3	9	863860	3	2	2	1	0	458	1	4	0	144	33	0	0	100
fixed	5	3	10	864897	1	4	4	1	0	566	1	4	0	160	34	0	0	100
fixed	5	3	11	866347	5	2	2	1	0	784	1	4	0	144	35	0	0	100
fixed	5	3	12	867834	4	3	3	1	0	993	1	4	0	152	36	0	0	100
fixed	5	4	1	869769	4	1	1	1	0	567	1	4	0	136	37	0	0	100
fixed	5	4	2	871059	1	2	2	1	0	785	1	4	0	144	38	0	0	100
fixed	5	4	3	872686	6	4	4	1	0	452	1	4	0	160	39	0	0	100
fixed	5	4	4	874177	2	1	1	1	0	629	1	4	0	136	40	0	0	100
fixed	5	4	5	875378	5	3	3	1	0	1106	1	4	0	152	41	0	0	100
fixed	5	4	6	877299	6	4	4	1	0	465	1	4	0	160	42	0	0	100
fixed	5	4	7	878479	3	1	1	1	0	847	1	4	0	136	43	0	0	100
fixed	5	4	8	880068	2	3	3	1	0	819	1	4	0	152	44	0	0	100
fixed	5	4	9	881485	3	2	0	1	2	0	3	4	0	144	44	0	1	98
fixed	5	4	10	884646	1	4	4	1	0	1010	1	4	0	160	45	0	1	98
fixed	5	4	11	886324	5	2	2	1	0	722	1	4	0	144	46	0	1	98
fixed	5	4	12	887346	4	3	3	1	0	1039	1	4	0	152	47	0	1	98
fixed	5	5	1	889651	4	1	1	1	0	605	1	4	0	136	48	0	1	98
fixed	5	5	2	890779	1	2	2	1	0	838	1	4	0	144	49	0	1	98
fixed	5	5	3	892457	6	4	4	1	0	982	1	4	0	160	50	0	1	98
fixed	5	5	4	894283	2	1	1	1	0	753	1	4	0	136	51	0	1	98
fixed	5	5	5	895959	5	3	3	1	0	1162	1	4	0	152	52	0	1	98
fixed	5	5	6	898006	6	4	4	1	0	379	1	4	0	160	53	0	1	98
fixed	5	5	7	898723	3	1	1	1	0	773	1	4	0	136	54	0	1	98
fixed	5	5	8	900366	2	3	3	1	0	560	1	4	0	152	55	0	1	98
fixed	5	5	9	901415	3	2	2	1	0	523	1	4	0	144	56	0	1	98
fixed	5	5	10	902874	1	4	4	1	0	437	1	4	0	160	57	0	1	98
fixed	5	5	11	904102	5	2	2	1	0	665	1	4	0	144	58	0	1	98
fixed	5	5	12	905453	4	3	3	1	0	761	1	4	0	152	59	0	1	98
fixed	5	6	1	907495	4	1	1	1	0	513	1	4	0	136	60	0	1	98
fixed	5	6	2	908760	1	2	2	1	0	828	1	4	0	144	61	0	1	98
fixed	5	6	3	910366	6	4	4	1	0	488	1	4	0	160	62	0	1	98
fixed	5	6	4	911257	2	1	1	1	0	770	1	4	0	136	63	0	1	98
fixed	5	6	5	912952	5	3	3	1	0	987	1	4	0	152	64	0	1	98
fixed	5	6	6	914582	6	4	4	1	0	517	1	4	0	160	65	0	1	98
fixed	5	6	7	916133	3	1	1	1	0	604	1	4	0	136	66	0	1	99
fixed	5	6	8	917041	2	3	3	1	0	765	1	4	0	152	67	0	1	99
fixed	5	6	9	918307	3	2	2	1	0	480	1	4	0	144	68	0	1	99
fixed	5	6	10	919705	1	4	4	1	0	573	1	4	0	160	69	0	1	99
fixed	5	6	11	920752	5	2	2	1	0	816	1	4	0	144	70	0	1	99
fixed	5	6	12	921949	4	3	3	1	0	821	1	4	0	152	71	0	1	99
fixed	5	7	1	923351	4	1	1	1	0	650	1	4	0	136	72	0	1	99
fixed	5	7	2	924672	1	2	2	1	0	674	1	4	0	144	73	0	1	99
fixed	5	7	3	925734	6	4	4	1	0	789	1	4	0	160	74	0	1	99
fixed	5	7	4	927497	2	1	1	1	0	650	1	4	0	136	75	0	1	99
fixed	5	7	5	928973	5	3	3	1	0	980	1	4	0	152	76	0	1	99
fixed	5	7	6	930454	6	4	4	1	0	677	1	4	0	160	77	0	1	99
fixed	5	7	7	931991	3	1	1	1	0	524	1	4	0	136	78	0	1	99
fixed	5	7	8	933377	2	3	3	1	0	393	1	4	0	152	79	0	1	99
fixed	5	7	9	934717	3	2	2	1	0	361	1	4	0	144	80	0	1	99
fixed	5	7	10	935557	1	4	4	1	0	669	1	4	0	160	81	0	1	99
fixed	5	7	11	936696	5	2	2	1	0	853	1	4	0	144	82	0	1	99
fixed	5	7	12	937951	4	3	3	1	0	1023	1	4	0	152	83	0	1	99
fixed	5	8	1	939891	4	1	1	1	0	469	1	4	0	136	84	0	1	99
fixed	5	8	2	940901	1	2	2	1	0	779	1	4	0	144	85	0	1	99
fixed	5	8	3	942554	6	4	4	1	0	445	1	4	0	160	86	0	1	99
fixed	5	8	4	943934	2	1	1	1	0	930	1	4	0	136	87	0	1	99
fixed	5	8	5	945168	5	3	3	1	0	854	1	4	0	152	88	0	1	99
fixed	5	8	6	947070	6	4	4	1	0	710	1	4	0	160	89	0	1	99
fixed	5	8	7	948250	3	1	1	1	0	739	1	4	0	136	90	0	1	99
fixed	5	8	8	949771	2	3	0	1	2	0	3	4	0	152	90	0	2	98
fixed	5	8	9	952694	3	2	2	2	0	991	2	4	0	144	91	0	2	98
fixed	5	8	10	954530	1	4	4	1	0	673	1	4	0	160	92	0	2	98
fixed	5	8	11	956088	5	2	2	1	0	752	1	4	0	144	93	0	2	98
fixed	5	8	12	957210	4	3	3	1	0	912	1	4	0	152	94	0	2	98
fixed	5	9	1	959289	4	1	1	1	0	648	1	4	0	136	95	0	2	98
fixed	5	9	2	960237	1	2	2	1	0	760	1	4	0	144	96	0	2	98
fixed	5	9	3	961745	6	4	4	1	0	456	1	4	0	160	97	0	2	98
fixed	5	9	4	963131	2	1	1	1	0	517	1	4	0	136	98	0	2	98
fixed	5	9	5	964181	5	3	3	1	0	1033	1	4	0	152	99	0	2	98
fixed	5	9	6	965696	6	4	4	1	0	641	1	4	0	160	100	0	2	98
fixed	5	9	7	967343	3	1	1	1	0	675	1	4	0	136	101	0	2	98
fixed	5	9	8	968449	2	3	3	1	0	548	1	4	0	152	102	0	2	98
fixed	5	9	9	969656	3	2	2	1	0	433	1	4	0	144	103	0	2	98
fixed	5	9	10	970665	1	4	4	1	0	486	1	4	0	160	104	0	2	98
fixed	5	9	11	971861	5	2	2	1	0	740	1	4	0	144	105	0	2	98
fixed	5	9	12	972931	4	3	3	1	0	990	1	4	0	152	106	0	2	98
fixed	5	10	1	974626	4	1	1	1	0	486	1	4	0	136	107	0	2	98
fixed	5	10	2	975878	1	2	2	1	0	801	1	4	0	144	108	0	2	98
fixed	5	10	3	977099	6	4	4	1	0	861	1	4	0	160	109	0	2	98
fixed	5	10	4	978535	2	1	1	1	0	657	1	4	0	136	110	0	2	98
fixed	5	10	5	979549	5	3	3	1	0	1822	1	4	0	152	111	0	2	98
fixed	5	10	6	982136	6	4	4	1	0	1064	1	4	0	160	112	0	2	98
fixed	5	10	7	983629	3	1	1	1	0	729	1	4	0	136	113	0	2	98
fixed	5	10	8	985117	2	3	3	1	0	1018	1	4	0	152	114	0	2	98
fixed	5	10	9	987092	3	2	2	1	0	510	1	4	0	144	115	0	2	98
fixed	5	10	10	987896	1	4	4	1	0	748	1	4	0	160	116	0	2	98
fixed	5	10	11	989532	5	2	2	1	0	911	1	4	0	144	117	0	2	98
fixed	5	10	12	991328	4	3	3	1	0	1083	1	4	0	152	118	0	2	98
random	6	1	1	1068588	6	1	1	1	0	842	1	4	0	168	1	0	0	100
random	6	1	2	1070212	4	4	4	1	0	782	1	4	0	192	2	0	0	100
random	6	1	3	1071739	2	2	2	1	0	773	1	4	0	176	3	0	0	100
random	6	1	4	1073154	3	3	3	1	0	673	1	4	0	184	4	0	0	100
random	6	1	5	1074647	5	2	2	1	0	802	1	4	0	176	5	0	0	100
random	6	1	6	1076341	1	4	4	1	0	730	1	4	0	192	6	0	0	100
random	6	1	7	1077611	6	1	1	1	0	956	1	4	0	168	7	0	0	100
random	6	1	8	1079436	2	3	3	1	0	1007	1	4	0	184	8	0	0	100
random	6	1	9	1081199	4	2	2	1	0	541	1	4	0	176	9	0	0	100
random	6	1	10	1082057	1	1	1	1	0	944	1	4	0	168	10	0	0	100
random	6	1	11	1083861	5	4	4	1	0	595	1	4	0	192	11	0	0	100
random	6	1	12	1085017	3	3	3	1	0	979	1	4	0	184	12	0	0	100
random	6	1	13	1086985	5	2	2	1	0	807	1	4	0	176	13	0	0	100
random	6	1	14	1088681	1	4	4	1	0	680	1	4	0	192	14	0	0	100
random	6	1	15	1089831	3	1	1	1	0	743	1	4	0	168	15	0	0	100
random	6	1	16	1091525	4	3	3	1	0	943	1	4	0	184	16	0	0	100
random	6	1	17	1093225	6	4	4	1	0	647	1	4	0	192	17	0	0	100
random	6	1	18	1094330	2	1	1	1	0	776	1	4	0	168	18	0	0	100
random	6	1	19	1096005	5	3	3	1	0	609	1	4	0	184	19	0	0	100
random	6	1	20	1097270	2	2	2	1	0	740	1	4	0	176	20	0	0	100
random	6	1	21	1098532	3	3	3	1	0	1110	1	4	0	184	21	0	0	100
random	6	1	22	1100264	6	1	1	1	0	701	1	4	0	168	22	0	0	100
random	6	1	23	1101875	4	2	2	1	0	673	1	4	0	176	23	0	0	100
random	6	1	24	1103485	1	4	4	1	0	565	1	4	0	192	24	0	0	100
random	6	1	25	1105046	4	3	3	1	0	1026	1	4	0	184	25	0	0	100
random	6	1	26	1106922	2	1	1	1	0	603	1	4	0	168	26	0	0	100
random	6	1	27	1108254	5	2	2	1	0	642	1	4	0	176	27	0	0	100
random	6	1	28	1109521	6	4	4	1	0	653	1	4	0	192	28	0	0	100
random	6	1	29	1110718	1	3	3	1	0	794	1	4	0	184	29	0	0	100
random	6	1	30	1112013	5	2	2	1	0	755	1	4	0	176	30	0	0	100
random	6	1	31	1113593	2	1	1	1	0	640	1	4	0	168	31	0	0	100
random	6	1	32	1114991	3	3	3	1	0	1037	1	4	0	184	32	0	0	100
random	6	1	33	1117041	6	4	4	1	0	654	1	4	0	192	33	0	0	100
random	6	1	34	1118501	4	2	2	1	0	736	1	4	0	176	34	0	0	100
random	6	1	35	1120160	3	4	4	1	0	882	1	4	0	192	35	0	0	100
random	6	1	36	1121357	1	1	1	1	0	639	1	4	0	168	36	0	0	100
random	6	1	37	1123024	3	4	4	1	0	1089	1	4	0	192	37	0	0	100
random	6	1	38	1124884	5	3	3	1	0	978	1	4	0	184	38	0	0	100
random	6	1	39	1126174	6	1	1	1	0	692	1	4	0	168	39	0	0	100
random	6	1	40	1127626	1	2	2	1	0	790	1	4	0	176	40	0	0	100
random	6	1	41	1129005	2	3	3	1	0	915	1	4	0	184	41	0	0	100
random	6	1	42	1130517	4	4	4	1	0	868	1	4	0	192	42	0	0	100
random	6	1	43	1131777	1	2	2	1	0	710	1	4	0	176	43	0	0	100
random	6	1	44	1132845	6	3	3	1	0	1065	1	4	0	184	44	0	0	100
random	6	1	45	1134583	3	1	1	1	0	816	1	4	0	168	45	0	0	100
random	6	1	46	1136268	4	4	4	1	0	712	1	4	0	192	46	0	0	100
random	6	1	47	1137343	2	2	2	1	0	698	1	4	0	176	47	0	0	100
random	6	1	48	1139014	5	1	1	1	0	691	1	4	0	168	48	0	0	100
random	6	1	49	1140550	2	3	3	1	0	1130	1	4	0	184	49	0	0	100
random	6	1	50	1142372	3	1	1	1	0	885	1	4	0	168	50	0	0	100
random	6	1	51	1143939	1	4	4	1	0	547	1	4	0	192	51	0	0	100
random	6	1	52	1145454	5	3	3	1	0	907	1	4	0	184	52	0	0	100
random	6	1	53	1146928	3	2	2	1	0	549	1	4	0	176	53	0	0	100
random	6	1	54	1148329	6	4	4	1	0	569	1	4	0	192	54	0	0	100
random	6	1	55	1149515	4	2	2	1	0	759	1	4	0	176	55	0	0	100
random	6	1	56	1150989	1	1	1	1	0	641	1	4	0	168	56	0	0	100
random	6	1	57	1152267	5	4	4	1	0	770	1	4	0	192	57	0	0	100
random	6	1	58	1153434	2	1	1	1	0	873	1	4	0	168	58	0	0	100
random	6	1	59	1154721	6	2	2	1	0	746	1	4	0	176	59	0	0	100
random	6	1	60	1156299	4	3	3	1	0	592	1	4	0	184	60	0	0	100
random	6	1	61	1157625	1	2	2	1	0	983	1	4	0	176	61	0	0	100
random	6	1	62	1159055	6	4	4	1	0	707	1	4	0	192	62	0	0	100
random	6	1	63	1160193	4	1	1	1	0	691	1	4	0	168	63	0	0	100
random	6	1	64	1161848	2	2	2	1	0	677	1	4	0	176	64	0	0	100
random	6	1	65	1163024	4	3	3	1	0	715	1	4	0	184	65	0	0	100
random	6	1	66	1164553	3	1	1	1	0	690	1	4	0	168	66	0	0	100
random	6	1	67	1165940	1	3	3	1	0	967	1	4	0	184	67	0	0	100
random	6	1	68	1167802	5	4	4	1	0	1160	1	4	0	192	68	0	0	100
random	6	1	69	1169540	2	2	2	1	0	871	1	4	0	176	69	0	0	100
random	6	1	70	1171097	3	1	1	1	0	669	1	4	0	168	70	0	0	100
random	6	1	71	1172105	5	4	4	1	0	658	1	4	0	192	71	0	0	100
random	6	1	72	1173402	6	3	3	1	0	723	1	4	0	184	72	0	0	100
random	6	1	73	1175285	2	1	1	1	0	755	1	4	0	168	73	0	0	100
random	6	1	74	1177054	5	3	3	1	0	984	1	4	0	184	74	0	0	100
random	6	1	75	1178750	1	4	4	1	0	665	1	4	0	192	75	0	0	100
random	6	1	76	1180000	6	2	2	1	0	956	1	4	0	176	76	0	0	100
random	6	1	77	1181551	2	1	1	1	0	994	1	4	0	168	77	0	0	100
random	6	1	78	1183377	4	4	4	1	0	773	1	4	0	192	78	0	0	100
random	6	1	79	1185129	3	2	2	1	0	714	1	4	0	176	79	0	0	100
random	6	1	80	1186181	4	3	3	1	0	798	1	4	0	184	80	0	0	100
random	6	1	81	1187684	1	4	4	1	0	638	1	4	0	192	81	0	0	100
random	6	1	82	1189013	5	1	1	1	0	750	1	4	0	168	82	0	0	100
random	6	1	83	1190152	3	2	2	1	0	702	1	4	0	176	83	0	0	100
random	6	1	84	1191471	6	3	3	1	0	750	1	4	0	184	84	0	0	100
random	6	1	85	1193380	3	2	2	1	0	1029	1	4	0	176	85	0	0	100
random	6	1	86	1194758	1	3	3	1	0	851	1	4	0	184	86	0	0	100
random	6	1	87	1196533	4	4	4	1	0	776	1	4	0	192	87	0	0	100
random	6	1	88	1197770	2	1	1	1	0	627	1	4	0	168	88	0	0	100
random	6	1	89	1199119	6	4	4	1	0	618	1	4	0	192	89	0	0	100
random	6	1	90	1200197	3	3	3	1	0	764	1	4	0	184	90	0	0	100
random	6	1	91	1201864	5	4	4	1	0	830	1	4	0	192	91	0	0	100
random	6	1	92	1203585	1	2	2	1	0	725	1	4	0	176	92	0	0	100
random	6	1	93	1204911	5	1	1	1	0	620	1	4	0	168	93	0	0	100
random	6	1	94	1206391	4	3	3	1	0	942	1	4	0	184	94	0	0	100
random	6	1	95	1208144	6	1	1	1	0	700	1	4	0	168	95	0	0	100
random	6	1	96	1209358	2	2	2	1	0	680	1	4	0	176	96	0	0	100
random	6	1	97	1210773	4	3	3	1	0	1084	1	4	0	184	97	0	0	100
random	6	1	98	1212223	3	2	2	1	0	743	1	4	0	176	98	0	0	100
random	6	1	99	1213337	6	3	3	1	0	800	1	4	0	184	99	0	0	100
random	6	1	100	1215135	1	4	4	1	0	739	1	4	0	192	100	0	0	100
random	6	1	101	1216594	4	1	1	1	0	710	1	4	0	168	101	0	0	100
random	6	1	102	1217890	5	2	2	1	0	791	1	4	0	176	102	0	0	100
random	6	1	103	1219691	2	4	4	1	0	635	1	4	0	192	103	0	0	100
random	6	1	104	1221230	3	1	1	1	0	753	1	4	0	168	104	0	0	100
random	6	1	105	1222712	1	3	3	1	0	731	1	4	0	184	105	0	0	100
random	6	1	106	1224181	2	2	2	1	0	692	1	4	0	176	106	0	0	100
random	6	1	107	1225338	5	4	4	1	0	788	1	4	0	192	107	0	0	100
random	6	1	108	1226569	6	1	1	1	0	823	1	4	0	168	108	0	0	100
random	6	1	109	1228583	5	4	4	1	0	930	1	4	0	192	109	0	0	100
random	6	1	110	1230035	6	3	3	1	0	900	1	4	0	184	110	0	0	100
random	6	1	111	1231790	2	2	2	1	0	898	1	4	0	176	111	0	0	100
random	6	1	112	1233332	3	1	1	1	0	729	1	4	0	168	112	0	0	100
random	6	1	113	1234825	1	2	2	1	0	666	1	4	0	176	113	0	0	100
random	6	1	114	1236005	2	3	3	1	0	719	1	4	0	184	114	0	0	100
random	6	1	115	1237561	3	1	1	1	0	598	1	4	0	168	115	0	0	100
random	6	1	116	1239087	4	4	4	1	0	533	1	4	0	192	116	0	0	100
random	6	1	117	1240045	6	1	1	1	0	724	1	4	0	168	117	0	0	100
random	6	1	118	1241631	5	3	3	1	0	665	1	4	0	184	118	0	0	100
random	6	1	119	1243240	1	4	4	1	0	733	1	4	0	192	119	0	0	100
random	6	1	120	1244764	4	2	2	1	0	597	1	4	0	176	120	0	0	100
fixed	7	1	1	1246876	4	1	1	1	0	627	1	4	0	200	1	0	0	100
fixed	7	1	2	1248457	1	2	2	1	0	728	1	4	0	208	2	0	0	100
fixed	7	1	3	1250190	6	4	4	1	0	647	1	4	0	224	3	0	0	100
fixed	7	1	4	1251170	2	1	1	1	0	701	1	4	0	200	4	0	0	100
fixed	7	1	5	1252723	5	3	3	1	0	571	1	4	0	216	5	0	0	100
fixed	7	1	6	1254159	6	4	4	1	0	647	1	4	0	224	6	0	0	100
fixed	7	1	7	1255153	3	1	1	1	0	1316	1	4	0	200	7	0	0	100
fixed	7	1	8	1257394	2	3	3	1	0	1102	1	4	0	216	8	0	0	100
fixed	7	1	9	1258992	3	2	2	1	0	634	1	4	0	208	9	0	0	100
fixed	7	1	10	1260275	1	4	4	1	0	523	1	4	0	224	10	0	0	100
fixed	7	1	11	1261711	5	2	2	1	0	1007	1	4	0	208	11	0	0	100
fixed	7	1	12	1263027	4	3	3	1	0	887	1	4	0	216	12	0	0	100
fixed	7	2	1	1264588	4	1	1	1	0	749	1	4	0	200	1	0	0	8
fixed	7	2	2	1265728	1	2	2	1	0	717	1	4	0	208	2	0	0	14
fixed	7	2	3	1267094	6	4	4	1	0	803	1	4	0	224	3	0	0	20
fixed	7	2	4	1268894	2	1	1	1	0	703	1	4	0	200	4	0	0	25
fixed	7	2	5	1270195	5	3	3	1	0	648	1	4	0	216	5	0	0	29
fixed	7	2	6	1271439	6	4	4	1	0	611	1	4	0	224	6	0	0	33
fixed	7	2	7	1272727	3	1	1	1	0	772	1	4	0	200	7	0	0	37
fixed	7	2	8	1274166	2	3	3	1	0	583	1	4	0	216	8	0	0	40
fixed	7	2	9	1275204	3	2	2	1	0	651	1	4	0	208	9	0	0	43
fixed	7	2	10	1276427	1	4	4	1	0	984	1	4	0	224	10	0	0	45
fixed	7	2	11	1278350	5	2	2	1	0	646	1	4	0	208	11	0	0	48
fixed	7	2	12	1279292	4	3	3	1	0	822	1	4	0	216	12	0	0	50
fixed	7	3	1	1280828	4	1	1	1	0	677	1	4	0	200	1	0	0	4
fixed	7	3	2	1282136	1	2	2	1	0	1062	1	4	0	208	2	0	0	8
fixed	7	3	3	1284021	6	4	4	1	0	622	1	4	0	224	3	0	0	11
fixed	7	3	4	1285418	2	1	1	1	0	771	1	4	0	200	4	0	0	14
fixed	7	3	5	1286735	5	3	3	1	0	611	1	4	0	216	5	0	0	17
fixed	7	3	6	1288156	6	4	4	1	0	703	1	4	0	224	6	0	0	20
fixed	7	3	7	1289698	3	1	1	1	0	677	1	4	0	200	7	0	0	23
fixed	7	3	8	1291048	2	3	3	1	0	957	1	4	0	216	8	0	0	25
fixed	7	3	9	1292481	3	2	2	1	0	912	1	4	0	208	9	0	0	27
fixed	7	3	10	1294345	1	4	4	1	0	672	1	4	0	224	10	0	0	29
fixed	7	3	11	1295447	5	2	2	1	0	730	1	4	0	208	11	0	0	31
fixed	7	3	12	1297128	4	3	3	1	0	939	1	4	0	216	12	0	0	33
fixed	7	4	1	1299323	4	1	1	1	0	629	1	4	0	200	1	0	0	3
fixed	7	4	2	1300446	1	2	2	1	0	1070	1	4	0	208	2	0	0	5
fixed	7	4	3	1302233	6	4	4	1	0	826	1	4	0	224	3	0	0	8
fixed	7	4	4	1303614	2	1	1	1	0	728	1	4	0	200	4	0	0	10
fixed	7	4	5	1304992	5	3	3	1	0	718	1	4	0	216	5	0	0	12
fixed	7	4	6	1306655	6	4	4	1	0	527	1	4	0	224	6	0	0	14
fixed	7	4	7	1308164	3	1	1	1	0	663	1	4	0	200	7	0	0	16
fixed	7	4	8	1309347	2	3	3	1	0	557	1	4	0	216	8	0	0	18
fixed	7	4	9	1310472	3	2	2	1	0	613	1	4	0	208	9	0	0	20
fixed	7	4	10	1311870	1	4	4	1	0	754	1	4	0	224	10	0	0	22
fixed	7	4	11	1313083	5	2	2	1	0	807	1	4	0	208	11	0	0	23
fixed	7	4	12	1314702	4	3	3	1	0	802	1	4	0	216	12	0	0	25
fixed	7	5	1	1316749	4	1	1	1	0	667	1	4	0	200	1	0	0	2
fixed	7	5	2	1318082	1	2	2	1	0	843	1	4	0	208	2	0	0	4
fixed	7	5	3	1319848	6	4	4	1	0	504	1	4	0	224	3	0	0	6
fixed	7	5	4	1321275	2	1	1	1	0	612	1	4	0	200	4	0	0	8
fixed	7	5	5	1322513	5	3	3	2	0	1535	2	4	0	216	5	0	0	9
fixed	7	5	6	1325037	6	4	4	1	0	916	1	4	0	224	6	0	0	11
fixed	7	5	7	1326777	3	1	1	1	0	1147	1	4	0	200	7	0	0	13
fixed	7	5	8	1328387	2	3	3	1	0	767	1	4	0	216	8	0	0	14
fixed	7	5	9	1330168	3	2	2	1	0	723	1	4	0	208	9	0	0	16
fixed	7	5	10	1331707	1	4	4	1	0	586	1	4	0	224	10	0	0	17
fixed	7	5	11	1333087	5	2	2	1	0	839	1	4	0	208	11	0	0	19
fixed	7	5	12	1334673	4	3	3	1	0	821	1	4	0	216	12	0	0	20
fixed	7	6	1	1336531	4	1	1	1	0	613	1	4	0	200	1	0	0	2
fixed	7	6	2	1338112	1	2	2	1	0	683	1	4	0	208	2	0	0	3
fixed	7	6	3	1339110	6	4	4	1	0	728	1	4	0	224	3	0	0	5
fixed	7	6	4	1340532	2	1	1	1	0	668	1	4	0	200	4	0	0	6
fixed	7	6	5	1342202	5	3	3	1	0	910	1	4	0	216	5	0	0	8
fixed	7	6	6	1344127	6	4	4	1	0	556	1	4	0	224	6	0	0	9
fixed	7	6	7	1345105	3	1	1	1	0	674	1	4	0	200	7	0	0	10
fixed	7	6	8	1346604	2	3	3	1	0	603	1	4	0	216	8	0	0	12
fixed	7	6	9	1348081	3	2	2	1	0	412	1	4	0	208	9	0	0	13
fixed	7	6	10	1349211	1	4	4	1	0	532	1	4	0	224	10	0	0	14
fixed	7	6	11	1350769	5	2	2	1	0	843	1	4	0	208	11	0	0	15
fixed	7	6	12	1352428	4	3	3	1	0	908	1	4	0	216	12	0	0	17
fixed	7	7	1	1354208	4	1	1	1	0	529	1	4	0	200	1	0	0	1
fixed	7	7	2	1355160	1	2	2	1	0	832	1	4	0	208	2	0	0	3
fixed	7	7	3	1356726	6	4	4	1	0	703	1	4	0	224	3	0	0	4
fixed	7	7	4	1357961	2	1	1	1	0	778	1	4	0	200	4	0	0	5
fixed	7	7	5	1359588	5	3	3	1	0	717	1	4	0	216	5	0	0	6
fixed	7	7	6	1361194	6	4	4	1	0	553	1	4	0	224	6	0	0	8
fixed	7	7	7	1362780	3	1	1	1	0	686	1	4	0	200	7	0	0	9
fixed	7	7	8	1363873	2	3	3	1	0	1000	1	4	0	216	8	0	0	10
fixed	7	7	9	1365223	3	2	2	1	0	614	1	4	0	208	9	0	0	11
fixed	7	7	10	1366794	1	4	4	1	0	676	1	4	0	224	10	0	0	12
fixed	7	7	11	1368032	5	2	2	1	0	760	1	4	0	208	11	0	0	13
fixed	7	7	12	1369388	4	3	3	1	0	966	1	4	0	216	12	0	0	14
fixed	7	8	1	1371149	4	1	1	1	0	635	1	4	0	200	1	0	0	1
fixed	7	8	2	1372674	1	2	2	1	0	699	1	4	0	208	2	0	0	2
fixed	7	8	3	1374300	6	4	4	1	0	678	1	4	0	224	3	0	0	3
fixed	7	8	4	1375379	2	1	1	1	0	656	1	4	0	200	4	0	0	5
fixed	7	8	5	1376834	5	3	3	1	0	731	1	4	0	216	5	0	0	6
fixed	7	8	6	1377865	6	4	4	1	0	879	1	4	0	224	6	0	0	7
fixed	7	8	7	1379071	3	1	1	1	0	740	1	4	0	200	7	0	0	8
fixed	7	8	8	1380785	2	3	3	1	0	588	1	4	0	216	8	0	0	9
fixed	7	8	9	1381938	3	2	2	1	0	515	1	4	0	208	9	0	0	10
fixed	7	8	10	1383047	1	4	4	1	0	731	1	4	0	224	10	0	0	11
fixed	7	8	11	1384256	5	2	2	1	0	688	1	4	0	208	11	0	0	12
fixed	7	8	12	1385877	4	3	3	1	0	908	1	4	0	216	12	0	0	13
fixed	7	9	1	1387590	4	1	1	1	0	595	1	4	0	200	1	0	0	1
fixed	7	9	2	1388965	1	2	2	1	0	633	1	4	0	208	2	0	0	2
fixed	7	9	3	1389996	6	4	4	1	0	637	1	4	0	224	3	0	0	3
fixed	7	9	4	1391004	2	1	1	1	0	666	1	4	0	200	4	0	0	4
fixed	7	9	5	1392225	5	3	3	1	0	967	1	4	0	216	5	0	0	5
fixed	7	9	6	1394135	6	4	4	1	0	438	1	4	0	224	6	0	0	6
fixed	7	9	7	1395352	3	1	1	1	0	707	1	4	0	200	7	0	0	7
fixed	7	9	8	1396609	2	3	3	1	0	653	1	4	0	216	8	0	0	8
fixed	7	9	9	1397639	3	2	2	1	0	602	1	4	0	208	9	0	0	9
fixed	7	9	10	1399107	1	4	4	1	0	707	1	4	0	224	10	0	0	9
fixed	7	9	11	1400588	5	2	2	1	0	652	1	4	0	208	11	0	0	10
fixed	7	9	12	1401567	4	3	3	1	0	915	1	4	0	216	12	0	0	11
fixed	7	10	1	1403128	4	1	1	1	0	601	1	4	0	200	1	0	0	1
fixed	7	10	2	1404324	1	2	2	1	0	798	1	4	0	208	2	0	0	2
fixed	7	10	3	1405954	6	4	4	1	0	705	1	4	0	224	3	0	0	3
fixed	7	10	4	1407317	2	1	1	1	0	816	1	4	0	200	4	0	0	4
fixed	7	10	5	1409106	5	3	3	1	0	1427	1	4	0	216	5	0	0	4
fixed	7	10	6	1411167	6	4	4	1	0	668	1	4	0	224	6	0	0	5
fixed	7	10	7	1412843	3	1	1	1	0	654	1	4	0	200	7	0	0	6
fixed	7	10	8	1414420	2	3	3	2	0	1058	2	4	0	216	8	0	0	7
fixed	7	10	9	1416059	3	2	2	1	0	669	1	4	0	208	9	0	0	8
fixed	7	10	10	1417765	1	4	4	1	0	741	1	4	0	224	10	0	0	8
fixed	7	10	11	1419112	5	2	2	1	0	676	1	4	0	208	11	0	0	9
fixed	7	10	12	1420669	4	3	3	1	0	874	1	4	0	216	12	0	0	10
