type	block	sequ.	trial	time	Pos.	Color	Button	NumRsp	Resp_1	RT_1	R_Code	Resp_2	RT_2	Trigg.	n_hit	n_inc	n_miss	score_%

random	1	1	1	1462	6	1	1	1	0	968	1	4	0	8	1	0	0	100
random	1	1	2	3431	4	4	4	1	0	797	1	4	0	32	2	0	0	100
random	1	1	3	4948	2	2	2	1	0	1253	1	4	0	16	3	0	0	100
random	1	1	4	6616	3	3	3	1	0	494	1	4	0	24	4	0	0	100
random	1	1	5	8038	5	2	2	1	0	1066	1	4	0	16	5	0	0	100
random	1	1	6	9880	1	4	4	1	0	612	1	4	0	32	6	0	0	100
random	1	1	7	11314	6	1	1	1	0	687	1	4	0	8	7	0	0	100
random	1	1	8	12459	2	3	3	1	0	1078	1	4	0	24	8	0	0	100
random	1	1	9	13941	4	2	2	1	0	1008	1	4	0	16	9	0	0	100
random	1	1	10	15767	1	1	1	1	0	746	1	4	0	8	10	0	0	100
random	1	1	11	17362	5	4	4	1	0	655	1	4	0	32	11	0	0	100
random	1	1	12	18582	3	3	3	1	0	1099	1	4	0	24	12	0	0	100
random	1	1	13	20711	5	2	2	1	0	1073	1	4	0	16	13	0	0	100
random	1	1	14	22239	1	4	4	1	0	840	1	4	0	32	14	0	0	100
random	1	1	15	23631	3	1	1	1	0	902	1	4	0	8	15	0	0	100
random	1	1	16	25487	4	3	3	1	0	735	1	4	0	24	16	0	0	100
random	1	1	17	26763	6	4	4	1	0	681	1	4	0	32	17	0	0	100
random	1	1	18	27995	2	1	1	1	0	892	1	4	0	8	18	0	0	100
random	1	1	19	29647	5	3	3	1	0	1135	1	4	0	24	19	0	0	100
random	1	1	20	31421	2	2	2	2	0	1291	2	4	0	16	20	0	0	100
random	1	1	21	33234	3	3	3	1	0	911	1	4	0	24	21	0	0	100
random	1	1	22	34753	6	1	1	1	0	670	1	4	0	8	22	0	0	100
random	1	1	23	35901	4	2	2	1	0	1206	1	4	0	16	23	0	0	100
random	1	1	24	37975	1	4	4	1	0	830	1	4	0	32	24	0	0	100
random	1	1	25	39909	4	3	3	1	0	1188	1	4	0	24	25	0	0	100
random	1	1	26	41866	2	1	1	1	0	785	1	4	0	8	26	0	0	100
random	1	1	27	43264	5	2	2	1	0	998	1	4	0	16	27	0	0	100
random	1	1	28	44863	6	4	4	1	0	602	1	4	0	32	28	0	0	100
random	1	1	29	46308	1	3	3	1	0	965	1	4	0	24	29	0	0	100
random	1	1	30	48062	5	2	2	1	0	658	1	4	0	16	30	0	0	100
random	1	1	31	49518	2	1	1	1	0	821	1	4	0	8	31	0	0	100
random	1	1	32	50770	3	3	3	1	0	976	1	4	0	24	32	0	0	100
random	1	1	33	52310	6	4	4	1	0	775	1	4	0	32	33	0	0	100
random	1	1	34	53898	4	2	2	1	0	707	1	4	0	16	34	0	0	100
random	1	1	35	55629	3	4	4	1	0	602	1	4	0	32	35	0	0	100
random	1	1	36	56950	1	1	1	1	0	898	1	4	0	8	36	0	0	100
random	1	1	37	58488	3	4	4	1	0	793	1	4	0	32	37	0	0	100
random	1	1	38	59959	5	3	3	1	0	923	1	4	0	24	38	0	0	100
random	1	1	39	61901	6	1	1	1	0	856	1	4	0	8	39	0	0	100
random	1	1	40	63636	1	2	2	1	0	695	1	4	0	16	40	0	0	100
random	1	1	41	65264	2	3	3	1	0	818	1	4	0	24	41	0	0	100
random	1	1	42	66785	4	4	4	1	0	1002	1	4	0	32	42	0	0	100
random	1	1	43	68743	1	2	2	1	0	799	1	4	0	16	43	0	0	100
random	1	1	44	69959	6	3	3	1	0	907	1	4	0	24	44	0	0	100
random	1	1	45	71866	3	1	1	1	0	715	1	4	0	8	45	0	0	100
random	1	1	46	73268	4	4	4	1	0	471	1	4	0	32	46	0	0	100
random	1	1	47	74306	2	2	2	1	0	995	1	4	0	16	47	0	0	100
random	1	1	48	76047	5	1	1	1	0	945	1	4	0	8	48	0	0	100
random	1	1	49	77836	2	3	3	1	0	909	1	4	0	24	49	0	0	100
random	1	1	50	79202	3	1	1	1	0	804	1	4	0	8	50	0	0	100
random	1	1	51	80880	1	4	4	1	0	693	1	4	0	32	51	0	0	100
random	1	1	52	82495	5	3	3	1	0	928	1	4	0	24	52	0	0	100
random	1	1	53	84209	3	2	2	1	0	720	1	4	0	16	53	0	0	100
random	1	1	54	85868	6	4	4	1	0	730	1	4	0	32	54	0	0	100
random	1	1	55	87436	4	2	2	1	0	999	1	4	0	16	55	0	0	100
random	1	1	56	89130	1	1	1	1	0	823	1	4	0	8	56	0	0	100
random	1	1	57	90785	5	4	4	1	0	881	1	4	0	32	57	0	0	100
random	1	1	58	92081	2	1	1	1	0	866	1	4	0	8	58	0	0	100
random	1	1	59	93880	6	2	2	1	0	782	1	4	0	16	59	0	0	100
random	1	1	60	95352	4	3	3	1	0	792	1	4	0	24	60	0	0	100
random	1	1	61	97300	1	2	2	1	0	965	1	4	0	16	61	0	0	100
random	1	1	62	98754	6	4	4	1	0	727	1	4	0	32	62	0	0	100
random	1	1	63	99901	4	1	1	1	0	775	1	4	0	8	63	0	0	100
random	1	1	64	101189	2	2	2	1	0	1065	1	4	0	16	64	0	0	100
random	1	1	65	102533	4	3	3	1	0	967	1	4	0	24	65	0	0	100
random	1	1	66	103931	3	1	1	1	0	988	1	4	0	8	66	0	0	100
random	1	1	67	105840	1	3	3	1	0	1059	1	4	0	24	67	0	0	100
random	1	1	68	107214	5	4	4	1	0	857	1	4	0	32	68	0	0	100
random	1	1	69	108911	2	2	2	1	0	769	1	4	0	16	69	0	0	100
random	1	1	70	110725	3	1	1	1	0	869	1	4	0	8	70	0	0	100
random	1	1	71	112180	5	4	4	1	0	735	1	4	0	32	71	0	0	100
random	1	1	72	113301	6	3	3	1	0	912	1	4	0	24	72	0	0	100
random	1	1	73	115378	2	1	1	1	0	967	1	4	0	8	73	0	0	100
random	1	1	74	116632	5	3	3	1	0	810	1	4	0	24	74	0	0	100
random	1	1	75	118221	1	4	4	1	0	575	1	4	0	32	75	0	0	100
random	1	1	76	119251	6	2	2	1	0	779	1	4	0	16	76	0	0	100
random	1	1	77	120590	2	1	1	1	0	842	1	4	0	8	77	0	0	100
random	1	1	78	122177	4	4	4	2	0	1823	2	4	0	32	78	0	0	100
random	1	1	79	124687	3	2	2	1	0	933	1	4	0	16	79	0	0	100
random	1	1	80	126272	4	3	3	1	0	626	1	4	0	24	80	0	0	100
random	1	1	81	127442	1	4	4	1	0	600	1	4	0	32	81	0	0	100
random	1	1	82	128846	5	1	1	1	0	677	1	4	0	8	82	0	0	100
random	1	1	83	129990	3	2	2	1	0	1045	1	4	0	16	83	0	0	100
random	1	1	84	132002	6	3	3	1	0	783	1	4	0	24	84	0	0	100
random	1	1	85	133405	3	2	2	1	0	868	1	4	0	16	85	0	0	100
random	1	1	86	134577	1	3	3	1	0	1002	1	4	0	24	86	0	0	100
random	1	1	87	136489	4	4	4	1	0	1241	1	4	0	32	87	0	0	100
random	1	1	88	138509	2	1	1	1	0	508	1	4	0	8	88	0	0	100
random	1	1	89	139817	6	4	4	1	0	789	1	4	0	32	89	0	0	100
random	1	1	90	141448	3	3	3	1	0	735	1	4	0	24	90	0	0	100
random	1	1	91	142681	5	4	4	1	0	979	1	4	0	32	91	0	0	100
random	1	1	92	144438	1	2	2	1	0	801	1	4	0	16	92	0	0	100
random	1	1	93	145862	5	1	1	1	0	1084	1	4	0	8	93	0	0	100
random	1	1	94	147353	4	3	3	2	0	1021	2	4	0	24	94	0	0	100
random	1	1	95	149120	6	1	1	1	0	754	1	4	0	8	95	0	0	100
random	1	1	96	150523	2	2	2	1	0	1079	1	4	0	16	96	0	0	100
random	1	1	97	152151	4	3	3	1	0	1034	1	4	0	24	97	0	0	100
random	1	1	98	153736	3	2	2	1	0	814	1	4	0	16	98	0	0	100
random	1	1	99	155161	6	3	3	1	0	1050	1	4	0	24	99	0	0	100
random	1	1	100	156504	1	4	4	1	0	650	1	4	0	32	100	0	0	100
random	1	1	101	157919	4	1	1	1	0	790	1	4	0	8	101	0	0	100
random	1	1	102	159512	5	2	2	1	0	1154	1	4	0	16	102	0	0	100
random	1	1	103	161014	2	4	4	1	0	747	1	4	0	32	103	0	0	100
random	1	1	104	162643	3	1	1	1	0	933	1	4	0	8	104	0	0	100
random	1	1	105	164359	1	3	3	1	0	765	1	4	0	24	105	0	0	100
random	1	1	106	165557	2	2	2	1	0	890	1	4	0	16	106	0	0	100
random	1	1	107	167248	5	4	4	1	0	787	1	4	0	32	107	0	0	100
random	1	1	108	168590	6	1	1	1	0	841	1	4	0	8	108	0	0	100
random	1	1	109	170212	5	4	4	1	0	757	1	4	0	32	109	0	0	100
random	1	1	110	171576	6	3	3	1	0	811	1	4	0	24	110	0	0	100
random	1	1	111	173375	2	2	2	1	0	663	1	4	0	16	111	0	0	100
random	1	1	112	174581	3	1	1	1	0	740	1	4	0	8	112	0	0	100
random	1	1	113	175791	1	2	2	2	0	1992	2	4	0	16	113	0	0	100
random	1	1	114	178208	2	3	3	1	0	858	1	4	0	24	114	0	0	100
random	1	1	115	179965	3	1	1	1	0	752	1	4	0	8	115	0	0	100
random	1	1	116	181398	4	4	4	1	0	483	1	4	0	32	116	0	0	100
random	1	1	117	182334	6	1	1	1	0	860	1	4	0	8	117	0	0	100
random	1	1	118	183855	5	3	3	1	0	795	1	4	0	24	118	0	0	100
random	1	1	119	185385	1	4	4	1	0	746	1	4	0	32	119	0	0	100
random	1	1	120	186695	4	2	2	1	0	827	1	4	0	16	120	0	0	100
fixed	2	1	1	188605	4	1	1	1	0	898	1	4	0	40	1	0	0	100
fixed	2	1	2	190165	1	2	2	2	0	1704	2	4	0	48	2	0	0	100
fixed	2	1	3	192460	6	4	4	1	0	687	1	4	0	64	3	0	0	100
fixed	2	1	4	193961	2	1	1	1	0	783	1	4	0	40	4	0	0	100
fixed	2	1	5	195242	5	3	3	1	0	1281	1	4	0	56	5	0	0	100
fixed	2	1	6	197289	6	4	4	1	0	642	1	4	0	64	6	0	0	100
fixed	2	1	7	198468	3	1	1	1	0	880	1	4	0	40	7	0	0	100
fixed	2	1	8	200216	2	3	3	1	0	870	1	4	0	56	8	0	0	100
fixed	2	1	9	201492	3	2	2	1	0	656	1	4	0	48	9	0	0	100
fixed	2	1	10	202695	1	4	4	1	0	661	1	4	0	64	10	0	0	100
fixed	2	1	11	204329	5	2	2	1	0	824	1	4	0	48	11	0	0	100
fixed	2	1	12	205530	4	3	3	1	0	597	1	4	0	56	12	0	0	100
fixed	2	2	1	207086	4	1	1	1	0	843	1	4	0	40	13	0	0	100
fixed	2	2	2	208926	1	2	2	1	0	589	1	4	0	48	14	0	0	100
fixed	2	2	3	210221	6	4	4	1	0	647	1	4	0	64	15	0	0	100
fixed	2	2	4	211834	2	1	1	1	0	890	1	4	0	40	16	0	0	100
fixed	2	2	5	213575	5	3	3	1	0	824	1	4	0	56	17	0	0	100
fixed	2	2	6	215295	6	4	4	1	0	775	1	4	0	64	18	0	0	100
fixed	2	2	7	216761	3	1	1	1	0	969	1	4	0	40	19	0	0	100
fixed	2	2	8	218199	2	3	3	1	0	868	1	4	0	56	20	0	0	100
fixed	2	2	9	220045	3	2	2	1	0	574	1	4	0	48	21	0	0	100
fixed	2	2	10	221084	1	4	4	1	0	690	1	4	0	64	22	0	0	100
fixed	2	2	11	222214	5	2	2	1	0	978	1	4	0	48	23	0	0	100
fixed	2	2	12	223808	4	3	3	1	0	863	1	4	0	56	24	0	0	100
fixed	2	3	1	225849	4	1	1	1	0	808	1	4	0	40	25	0	0	100
fixed	2	3	2	227650	1	2	2	1	0	324	1	4	0	48	26	0	0	100
fixed	2	3	3	228690	6	4	4	1	0	448	1	4	0	64	27	0	0	100
fixed	2	3	4	229798	2	1	1	1	0	809	1	4	0	40	28	0	0	100
fixed	2	3	5	231368	5	3	3	1	0	975	1	4	0	56	29	0	0	100
fixed	2	3	6	232956	6	4	4	1	0	819	1	4	0	64	30	0	0	100
fixed	2	3	7	234263	3	1	1	1	0	812	1	4	0	40	31	0	0	100
fixed	2	3	8	235623	2	3	3	1	0	1018	1	4	0	56	32	0	0	100
fixed	2	3	9	237133	3	2	2	1	0	627	1	4	0	48	33	0	0	100
fixed	2	3	10	238082	1	4	4	1	0	698	1	4	0	64	34	0	0	100
fixed	2	3	11	239467	5	2	2	1	0	751	1	4	0	48	35	0	0	100
fixed	2	3	12	241083	4	3	3	1	0	620	1	4	0	56	36	0	0	100
fixed	2	4	1	242757	4	1	1	1	0	796	1	4	0	40	37	0	0	100
fixed	2	4	2	244199	1	2	2	1	0	895	1	4	0	48	38	0	0	100
fixed	2	4	3	245560	6	4	4	1	0	542	1	4	0	64	39	0	0	100
fixed	2	4	4	246562	2	1	1	1	0	923	1	4	0	40	40	0	0	100
fixed	2	4	5	248415	5	3	3	1	0	949	1	4	0	56	41	0	0	100
fixed	2	4	6	249712	6	4	4	1	0	822	1	4	0	64	42	0	0	100
fixed	2	4	7	251476	3	1	1	1	0	883	1	4	0	40	43	0	0	100
fixed	2	4	8	252674	2	3	3	1	0	953	1	4	0	56	44	0	0	100
fixed	2	4	9	254517	3	2	2	1	0	690	1	4	0	48	45	0	0	100
fixed	2	4	10	255900	1	4	4	1	0	824	1	4	0	64	46	0	0	100
fixed	2	4	11	257227	5	2	2	1	0	863	1	4	0	48	47	0	0	100
fixed	2	4	12	258408	4	3	3	1	0	1182	1	4	0	56	48	0	0	100
fixed	2	5	1	260467	4	1	1	1	0	806	1	4	0	40	49	0	0	100
fixed	2	5	2	261890	1	2	2	1	0	746	1	4	0	48	50	0	0	100
fixed	2	5	3	263462	6	4	4	1	0	279	1	4	0	64	51	0	0	100
fixed	2	5	4	264126	2	1	1	1	0	779	1	4	0	40	52	0	0	100
fixed	2	5	5	265753	5	3	3	1	0	902	1	4	0	56	53	0	0	100
fixed	2	5	6	267165	6	4	4	1	0	834	1	4	0	64	54	0	0	100
fixed	2	5	7	268392	3	1	1	1	0	895	1	4	0	40	55	0	0	100
fixed	2	5	8	270271	2	3	3	1	0	1103	1	4	0	56	56	0	0	100
fixed	2	5	9	271984	3	2	2	1	0	598	1	4	0	48	57	0	0	100
fixed	2	5	10	273148	1	4	4	1	0	1501	1	4	0	64	58	0	0	100
fixed	2	5	11	275585	5	2	2	2	0	1558	2	4	0	48	59	0	0	100
fixed	2	5	12	277973	4	3	3	1	0	793	1	4	0	56	60	0	0	100
fixed	2	6	1	279313	4	1	1	1	0	824	1	4	0	40	61	0	0	100
fixed	2	6	2	281118	1	2	2	1	0	355	1	4	0	48	62	0	0	100
fixed	2	6	3	282194	6	4	4	1	0	382	1	4	0	64	63	0	0	100
fixed	2	6	4	283089	2	1	1	1	0	840	1	4	0	40	64	0	0	100
fixed	2	6	5	284944	5	3	3	1	0	745	1	4	0	56	65	0	0	100
fixed	2	6	6	286368	6	4	4	1	0	669	1	4	0	64	66	0	0	100
fixed	2	6	7	288000	3	1	1	1	0	744	1	4	0	40	67	0	0	100
fixed	2	6	8	289773	2	3	3	1	0	1189	1	4	0	56	68	0	0	100
fixed	2	6	9	291332	3	2	2	1	0	619	1	4	0	48	69	0	0	100
fixed	2	6	10	292970	1	4	4	1	0	822	1	4	0	64	70	0	0	100
fixed	2	6	11	294291	5	2	2	1	0	998	1	4	0	48	71	0	0	100
fixed	2	6	12	296209	4	3	3	1	0	860	1	4	0	56	72	0	0	100
fixed	2	7	1	298159	4	1	1	1	0	777	1	4	0	40	73	0	0	100
fixed	2	7	2	299361	1	2	2	1	0	703	1	4	0	48	74	0	0	100
fixed	2	7	3	300429	6	4	4	1	0	553	1	4	0	64	75	0	0	100
fixed	2	7	4	301449	2	1	1	1	0	542	1	4	0	40	76	0	0	100
fixed	2	7	5	302840	5	3	3	1	0	483	1	4	0	56	77	0	0	100
fixed	2	7	6	303988	6	4	4	1	0	683	1	4	0	64	78	0	0	100
fixed	2	7	7	305519	3	1	1	1	0	554	1	4	0	40	79	0	0	100
fixed	2	7	8	306878	2	3	3	1	0	824	1	4	0	56	80	0	0	100
fixed	2	7	9	308429	3	2	2	1	0	511	1	4	0	48	81	0	0	100
fixed	2	7	10	309419	1	4	4	1	0	797	1	4	0	64	82	0	0	100
fixed	2	7	11	310780	5	2	2	1	0	891	1	4	0	48	83	0	0	100
fixed	2	7	12	312220	4	3	3	1	0	750	1	4	0	56	84	0	0	100
fixed	2	8	1	314132	4	1	1	1	0	629	1	4	0	40	85	0	0	100
fixed	2	8	2	315145	1	2	2	1	0	1299	1	4	0	48	86	0	0	100
fixed	2	8	3	317450	6	4	4	1	0	305	1	4	0	64	87	0	0	100
fixed	2	8	4	318161	2	1	1	1	0	634	1	4	0	40	88	0	0	100
fixed	2	8	5	319427	5	3	3	1	0	749	1	4	0	56	89	0	0	100
fixed	2	8	6	320797	6	4	4	1	0	755	1	4	0	64	90	0	0	100
fixed	2	8	7	322536	3	1	1	2	0	1089	2	4	0	40	91	0	0	100
fixed	2	8	8	324330	2	3	3	1	0	973	1	4	0	56	92	0	0	100
fixed	2	8	9	325812	3	2	2	1	0	1022	1	4	0	48	93	0	0	100
fixed	2	8	10	327230	1	4	4	1	0	842	1	4	0	64	94	0	0	100
fixed	2	8	11	328570	5	2	2	1	0	762	1	4	0	48	95	0	0	100
fixed	2	8	12	329950	4	3	3	1	0	1080	1	4	0	56	96	0	0	100
fixed	2	9	1	331641	4	1	1	1	0	607	1	4	0	40	97	0	0	100
fixed	2	9	2	332582	1	2	2	1	0	2080	1	4	0	48	98	0	0	100
fixed	2	9	3	335331	6	4	4	1	0	484	1	4	0	64	99	0	0	100
fixed	2	9	4	336268	2	1	1	1	0	539	1	4	0	40	100	0	0	100
fixed	2	9	5	337259	5	3	3	1	0	1010	1	4	0	56	101	0	0	100
fixed	2	9	6	338931	6	4	4	1	0	987	1	4	0	64	102	0	0	100
fixed	2	9	7	340231	3	1	1	1	0	1132	1	4	0	40	103	0	0	100
fixed	2	9	8	341921	2	3	3	1	0	900	1	4	0	56	104	0	0	100
fixed	2	9	9	343387	3	2	2	1	0	806	1	4	0	48	105	0	0	100
fixed	2	9	10	344750	1	4	4	1	0	741	1	4	0	64	106	0	0	100
fixed	2	9	11	346036	5	2	2	2	0	1366	2	4	0	48	107	0	0	100
fixed	2	9	12	348377	4	3	3	1	0	859	1	4	0	56	108	0	0	100
fixed	2	10	1	350337	4	1	1	1	0	1000	1	4	0	40	109	0	0	100
fixed	2	10	2	352362	1	2	2	1	0	282	1	4	0	48	110	0	0	100
fixed	2	10	3	353189	6	4	4	1	0	615	1	4	0	64	111	0	0	100
fixed	2	10	4	354758	2	1	1	2	0	821	2	4	0	40	112	0	0	100
fixed	2	10	5	355938	5	3	3	1	0	1170	1	4	0	56	113	0	0	100
fixed	2	10	6	357549	6	4	4	1	0	783	1	4	0	64	114	0	0	100
fixed	2	10	7	359129	3	1	1	1	0	915	1	4	0	40	115	0	0	100
fixed	2	10	8	360592	2	3	3	1	0	1086	1	4	0	56	116	0	0	100
fixed	2	10	9	362711	3	2	2	1	0	604	1	4	0	48	117	0	0	100
fixed	2	10	10	364069	1	4	4	1	0	738	1	4	0	64	118	0	0	100
fixed	2	10	11	365258	5	2	2	1	0	640	1	4	0	48	119	0	0	100
fixed	2	10	12	366787	4	3	3	1	0	423	1	4	0	56	120	0	0	100
fixed	3	1	1	368045	4	1	1	1	0	721	1	4	0	72	1	0	0	100
fixed	3	1	2	369557	1	2	2	1	0	1170	1	4	0	80	2	0	0	100
fixed	3	1	3	371488	6	4	4	1	0	344	1	4	0	96	3	0	0	100
fixed	3	1	4	372295	2	1	1	1	0	486	1	4	0	72	4	0	0	100
fixed	3	1	5	373782	5	3	3	1	0	735	1	4	0	88	5	0	0	100
fixed	3	1	6	375439	6	4	4	1	0	697	1	4	0	96	6	0	0	100
fixed	3	1	7	376743	3	1	1	1	0	801	1	4	0	72	7	0	0	100
fixed	3	1	8	378441	2	3	3	1	0	793	1	4	0	88	8	0	0	100
fixed	3	1	9	379594	3	2	2	1	0	608	1	4	0	80	9	0	0	100
fixed	3	1	10	380793	1	4	4	1	0	686	1	4	0	96	10	0	0	100
fixed	3	1	11	381812	5	2	2	1	0	770	1	4	0	80	11	0	0	100
fixed	3	1	12	382885	4	3	3	1	0	765	1	4	0	88	12	0	0	100
fixed	3	2	1	384521	4	1	1	1	0	608	1	4	0	72	13	0	0	100
fixed	3	2	2	386029	1	2	2	1	0	424	1	4	0	80	14	0	0	100
fixed	3	2	3	386915	6	4	4	1	0	394	1	4	0	96	15	0	0	100
fixed	3	2	4	387793	2	1	1	1	0	365	1	4	0	72	16	0	0	100
fixed	3	2	5	388497	5	3	3	1	0	703	1	4	0	88	17	0	0	100
fixed	3	2	6	389721	6	4	4	1	0	764	1	4	0	96	18	0	0	100
fixed	3	2	7	391069	3	1	1	1	0	810	1	4	0	72	19	0	0	100
fixed	3	2	8	392452	2	3	3	1	0	976	1	4	0	88	20	0	0	100
fixed	3	2	9	394317	3	2	2	1	0	289	1	4	0	80	21	0	0	100
fixed	3	2	10	395622	1	4	4	1	0	602	1	4	0	96	22	0	0	100
fixed	3	2	11	397160	5	2	2	1	0	273	1	4	0	80	23	0	0	100
fixed	3	2	12	397765	4	3	3	1	0	895	1	4	0	88	24	0	0	100
fixed	3	3	1	399224	4	1	1	1	0	665	1	4	0	72	25	0	0	100
fixed	3	3	2	400601	1	2	2	2	0	1207	2	4	0	80	26	0	0	100
fixed	3	3	3	402411	6	4	4	1	0	331	1	4	0	96	27	0	0	100
fixed	3	3	4	403196	2	1	1	1	0	633	1	4	0	72	28	0	0	100
fixed	3	3	5	404840	5	3	3	1	0	787	1	4	0	88	29	0	0	100
fixed	3	3	6	406020	6	4	4	1	0	738	1	4	0	96	30	0	0	100
fixed	3	3	7	407700	3	1	1	1	0	786	1	4	0	72	31	0	0	100
fixed	3	3	8	408866	2	3	3	1	0	945	1	4	0	88	32	0	0	100
fixed	3	3	9	410582	3	2	2	1	0	432	1	4	0	80	33	0	0	100
fixed	3	3	10	411749	1	4	4	1	0	735	1	4	0	96	34	0	0	100
fixed	3	3	11	413447	5	2	2	1	0	471	1	4	0	80	35	0	0	100
fixed	3	3	12	414667	4	3	3	1	0	355	1	4	0	88	36	0	0	100
fixed	3	4	1	415798	4	1	1	1	0	619	1	4	0	72	37	0	0	100
fixed	3	4	2	417432	1	2	2	1	0	1102	1	4	0	80	38	0	0	100
fixed	3	4	3	419312	6	4	4	1	0	398	1	4	0	96	39	0	0	100
fixed	3	4	4	420499	2	1	1	1	0	300	1	4	0	72	40	0	0	100
fixed	3	4	5	421706	5	3	3	1	0	801	1	4	0	88	41	0	0	100
fixed	3	4	6	423115	6	4	4	1	0	837	1	4	0	96	42	0	0	100
fixed	3	4	7	424990	3	1	1	1	0	806	1	4	0	72	43	0	0	100
fixed	3	4	8	426838	2	3	3	1	0	384	1	4	0	88	44	0	0	100
fixed	3	4	9	428191	3	2	2	1	0	655	1	4	0	80	45	0	0	100
fixed	3	4	10	429159	1	4	4	1	0	1037	1	4	0	96	46	0	0	100
fixed	3	4	11	430493	5	2	2	1	0	1117	1	4	0	80	47	0	0	100
fixed	3	4	12	432109	4	3	3	1	0	896	1	4	0	88	48	0	0	100
fixed	3	5	1	434026	4	1	1	1	0	423	1	4	0	72	49	0	0	100
fixed	3	5	2	434956	1	2	2	1	0	704	1	4	0	80	50	0	0	100
fixed	3	5	3	436063	6	4	4	1	0	568	1	4	0	96	51	0	0	100
fixed	3	5	4	436936	2	1	1	1	0	1156	1	4	0	72	52	0	0	100
fixed	3	5	5	438568	5	3	3	1	0	774	1	4	0	88	53	0	0	100
fixed	3	5	6	440234	6	4	4	1	0	424	1	4	0	96	54	0	0	100
fixed	3	5	7	441156	3	1	1	1	0	777	1	4	0	72	55	0	0	100
fixed	3	5	8	442551	2	3	3	1	0	598	1	4	0	88	56	0	0	100
fixed	3	5	9	443923	3	2	2	1	0	404	1	4	0	80	57	0	0	100
fixed	3	5	10	444902	1	4	4	1	0	682	1	4	0	96	58	0	0	100
fixed	3	5	11	446239	5	2	2	1	0	506	1	4	0	80	59	0	0	100
fixed	3	5	12	447161	4	3	3	1	0	923	1	4	0	88	60	0	0	100
fixed	3	6	1	449247	4	1	1	1	0	834	1	4	0	72	61	0	0	100
fixed	3	6	2	450724	1	2	2	1	0	844	1	4	0	80	62	0	0	100
fixed	3	6	3	451891	6	4	4	1	0	922	1	4	0	96	63	0	0	100
fixed	3	6	4	453237	2	1	1	1	0	825	1	4	0	72	64	0	0	100
fixed	3	6	5	454591	5	3	3	1	0	760	1	4	0	88	65	0	0	100
fixed	3	6	6	455925	6	4	4	1	0	720	1	4	0	96	66	0	0	100
fixed	3	6	7	457211	3	1	1	1	0	953	1	4	0	72	67	0	0	100
fixed	3	6	8	458550	2	3	3	1	0	1081	1	4	0	88	68	0	0	100
fixed	3	6	9	460539	3	2	2	1	0	372	1	4	0	80	69	0	0	100
fixed	3	6	10	461616	1	4	4	1	0	663	1	4	0	96	70	0	0	100
fixed	3	6	11	463289	5	2	2	1	0	288	1	4	0	80	71	0	0	100
fixed	3	6	12	464333	4	3	3	1	0	275	1	4	0	88	72	0	0	100
fixed	3	7	1	465303	4	1	1	1	0	754	1	4	0	72	73	0	0	100
fixed	3	7	2	467076	1	2	2	2	0	1791	2	4	0	80	74	0	0	100
fixed	3	7	3	469756	6	4	4	1	0	350	1	4	0	96	75	0	0	100
fixed	3	7	4	470790	2	1	1	1	0	418	1	4	0	72	76	0	0	100
fixed	3	7	5	471812	5	3	3	2	0	1167	2	4	0	88	77	0	0	100
fixed	3	7	6	473419	6	4	4	1	0	771	1	4	0	96	78	0	0	100
fixed	3	7	7	475128	3	1	1	1	0	1018	1	4	0	72	79	0	0	100
fixed	3	7	8	477152	2	3	3	1	0	372	1	4	0	88	80	0	0	100
fixed	3	7	9	478099	3	2	2	1	0	636	1	4	0	80	81	0	0	100
fixed	3	7	10	479413	1	4	4	2	0	1837	2	4	0	96	82	0	0	100
fixed	3	7	11	481571	5	2	2	1	0	922	1	4	0	80	83	0	0	100
fixed	3	7	12	483271	4	3	3	1	0	913	1	4	0	88	84	0	0	100
fixed	3	8	1	484817	4	1	1	1	0	776	1	4	0	72	85	0	0	100
fixed	3	8	2	486446	1	2	2	1	0	395	1	4	0	80	86	0	0	100
fixed	3	8	3	487314	6	4	4	1	0	710	1	4	0	96	87	0	0	100
fixed	3	8	4	489056	2	1	1	1	0	1045	1	4	0	72	88	0	0	100
fixed	3	8	5	490681	5	3	3	1	0	991	1	4	0	88	89	0	0	100
fixed	3	8	6	491992	6	4	4	1	0	888	1	4	0	96	90	0	0	100
fixed	3	8	7	493635	3	1	1	1	0	987	1	4	0	72	91	0	0	100
fixed	3	8	8	495293	2	3	3	1	0	860	1	4	0	88	92	0	0	100
fixed	3	8	9	497128	3	2	2	1	0	398	1	4	0	80	93	0	0	100
fixed	3	8	10	498171	1	4	4	1	0	506	1	4	0	96	94	0	0	100
fixed	3	8	11	499603	5	2	2	1	0	493	1	4	0	80	95	0	0	100
fixed	3	8	12	500991	4	3	3	1	0	459	1	4	0	88	96	0	0	100
fixed	3	9	1	502444	4	1	1	1	0	653	1	4	0	72	97	0	0	100
fixed	3	9	2	503871	1	2	2	1	0	617	1	4	0	80	98	0	0	100
fixed	3	9	3	504951	6	4	4	1	0	843	1	4	0	96	99	0	0	100
fixed	3	9	4	506245	2	1	1	1	0	956	1	4	0	72	100	0	0	100
fixed	3	9	5	507954	5	3	3	1	0	900	1	4	0	88	101	0	0	100
fixed	3	9	6	509763	6	4	4	1	0	1143	1	4	0	96	102	0	0	100
fixed	3	9	7	511499	3	1	1	1	0	854	1	4	0	72	103	0	0	100
fixed	3	9	8	513369	2	3	3	1	0	782	1	4	0	88	104	0	0	100
fixed	3	9	9	514642	3	2	2	1	0	552	1	4	0	80	105	0	0	100
fixed	3	9	10	515909	1	4	4	1	0	403	1	4	0	96	106	0	0	100
fixed	3	9	11	516641	5	2	2	1	0	780	1	4	0	80	107	0	0	100
fixed	3	9	12	518147	4	3	3	1	0	260	1	4	0	88	108	0	0	100
fixed	3	10	1	519669	4	1	1	1	0	891	1	4	0	72	109	0	0	100
fixed	3	10	2	520955	1	2	2	1	0	621	1	4	0	80	110	0	0	100
fixed	3	10	3	522067	6	4	4	1	0	462	1	4	0	96	111	0	0	100
fixed	3	10	4	523398	2	1	1	1	0	262	1	4	0	72	112	0	0	100
fixed	3	10	5	524373	5	3	3	1	0	909	1	4	0	88	113	0	0	100
fixed	3	10	6	525793	6	4	4	1	0	912	1	4	0	96	114	0	0	100
fixed	3	10	7	527205	3	1	1	1	0	1020	1	4	0	72	115	0	0	100
fixed	3	10	8	529158	2	3	3	1	0	658	1	4	0	88	116	0	0	100
fixed	3	10	9	530298	3	2	2	1	0	737	1	4	0	80	117	0	0	100
fixed	3	10	10	531622	1	4	4	1	0	874	1	4	0	96	118	0	0	100
fixed	3	10	11	533015	5	2	2	1	0	831	1	4	0	80	119	0	0	100
fixed	3	10	12	534554	4	3	3	1	0	597	1	4	0	88	120	0	0	100
fixed	4	1	1	634148	4	1	1	1	0	1107	1	4	0	104	1	0	0	100
fixed	4	1	2	635771	1	2	2	1	0	342	1	4	0	112	2	0	0	100
fixed	4	1	3	636778	6	4	4	1	0	284	1	4	0	128	3	0	0	100
fixed	4	1	4	637925	2	1	1	1	0	803	1	4	0	104	4	0	0	100
fixed	4	1	5	639549	5	3	3	1	0	454	1	4	0	120	5	0	0	100
fixed	4	1	6	640398	6	4	4	1	0	802	1	4	0	128	6	0	0	100
fixed	4	1	7	641690	3	1	1	1	0	979	1	4	0	104	7	0	0	100
fixed	4	1	8	643185	2	3	3	1	0	884	1	4	0	120	8	0	0	100
fixed	4	1	9	644866	3	2	2	1	0	437	1	4	0	112	9	0	0	100
fixed	4	1	10	645958	1	4	4	1	0	503	1	4	0	128	10	0	0	100
fixed	4	1	11	647163	5	2	2	1	0	347	1	4	0	112	11	0	0	100
fixed	4	1	12	647805	4	3	3	1	0	456	1	4	0	120	12	0	0	100
fixed	4	2	1	648820	4	1	1	1	0	597	1	4	0	104	13	0	0	100
fixed	4	2	2	650260	1	2	2	1	0	296	1	4	0	112	14	0	0	100
fixed	4	2	3	651500	6	4	4	1	0	564	1	4	0	128	15	0	0	100
fixed	4	2	4	653095	2	1	1	1	0	400	1	4	0	104	16	0	0	100
fixed	4	2	5	654116	5	3	3	1	0	869	1	4	0	120	17	0	0	100
fixed	4	2	6	655880	6	4	4	1	0	595	1	4	0	128	18	0	0	100
fixed	4	2	7	656767	3	1	1	1	0	941	1	4	0	104	19	0	0	100
fixed	4	2	8	658333	2	3	3	1	0	1803	1	4	0	120	20	0	0	100
fixed	4	2	9	660421	3	2	2	1	0	538	1	4	0	112	21	0	0	100
fixed	4	2	10	661973	1	4	4	1	0	288	1	4	0	128	22	0	0	100
fixed	4	2	11	662888	5	2	2	1	0	553	1	4	0	112	23	0	0	100
fixed	4	2	12	663757	4	3	3	1	0	413	1	4	0	120	24	0	0	100
fixed	4	3	1	665461	4	1	1	1	0	636	1	4	0	104	25	0	0	100
fixed	4	3	2	666397	1	2	2	1	0	949	1	4	0	112	26	0	0	100
fixed	4	3	3	668155	6	4	4	1	0	731	1	4	0	128	27	0	0	100
fixed	4	3	4	669539	2	1	1	1	0	704	1	4	0	104	28	0	0	100
fixed	4	3	5	671272	5	3	3	1	0	743	1	4	0	120	29	0	0	100
fixed	4	3	6	672755	6	4	4	1	0	808	1	4	0	128	30	0	0	100
fixed	4	3	7	674502	3	1	1	2	0	878	2	4	0	104	31	0	0	100
fixed	4	3	8	676338	2	3	3	1	0	808	1	4	0	120	32	0	0	100
fixed	4	3	9	677856	3	2	2	1	0	271	1	4	0	112	33	0	0	100
fixed	4	3	10	679118	1	4	4	1	0	402	1	4	0	128	34	0	0	100
fixed	4	3	11	680400	5	2	2	1	0	252	1	4	0	112	35	0	0	100
fixed	4	3	12	681159	4	3	3	1	0	316	1	4	0	120	36	0	0	100
fixed	4	4	1	682201	4	1	1	1	0	895	1	4	0	104	37	0	0	100
fixed	4	4	2	683741	1	2	2	1	0	422	1	4	0	112	38	0	0	100
fixed	4	4	3	684857	6	4	4	1	0	303	1	4	0	128	39	0	0	100
fixed	4	4	4	686087	2	1	1	1	0	291	1	4	0	104	40	0	0	100
fixed	4	4	5	687139	5	3	3	1	0	479	1	4	0	120	41	0	0	100
fixed	4	4	6	688346	6	4	4	2	0	956	2	4	0	128	42	0	0	100
fixed	4	4	7	689877	3	1	1	1	0	811	1	4	0	104	43	0	0	100
fixed	4	4	8	691254	2	3	3	1	0	752	1	4	0	120	44	0	0	100
fixed	4	4	9	693037	3	2	2	1	0	669	1	4	0	112	45	0	0	100
fixed	4	4	10	694339	1	4	4	1	0	686	1	4	0	128	46	0	0	100
fixed	4	4	11	696057	5	2	2	1	0	245	1	4	0	112	47	0	0	100
fixed	4	4	12	697217	4	3	3	1	0	276	1	4	0	120	48	0	0	100
fixed	4	5	1	698441	4	1	1	1	0	768	1	4	0	104	49	0	0	100
fixed	4	5	2	699529	1	2	2	1	0	530	1	4	0	112	50	0	0	100
fixed	4	5	3	700696	6	4	4	1	0	336	1	4	0	128	51	0	0	100
fixed	4	5	4	701706	2	1	1	1	0	302	1	4	0	104	52	0	0	100
fixed	4	5	5	702366	5	3	3	1	0	921	1	4	0	120	53	0	0	100
fixed	4	5	6	704023	6	4	4	1	0	1099	1	4	0	128	54	0	0	100
fixed	4	5	7	706114	3	1	1	1	0	899	1	4	0	104	55	0	0	100
fixed	4	5	8	707829	2	3	3	1	0	882	1	4	0	120	56	0	0	100
fixed	4	5	9	709570	3	2	2	1	0	328	1	4	0	112	57	0	0	100
fixed	4	5	10	710419	1	4	4	1	0	484	1	4	0	128	58	0	0	100
fixed	4	5	11	711782	5	2	2	1	0	235	1	4	0	112	59	0	0	100
fixed	4	5	12	712901	4	3	3	1	0	195	1	4	0	120	60	0	0	100
fixed	4	6	1	713996	4	1	1	1	0	733	1	4	0	104	61	0	0	100
fixed	4	6	2	715267	1	2	2	1	0	359	1	4	0	112	62	0	0	100
fixed	4	6	3	716255	6	4	4	1	0	661	1	4	0	128	63	0	0	100
fixed	4	6	4	717844	2	1	1	1	0	946	1	4	0	104	64	0	0	100
fixed	4	6	5	719349	5	3	3	1	0	1050	1	4	0	120	65	0	0	100
fixed	4	6	6	721018	6	4	4	1	0	644	1	4	0	128	66	0	0	100
fixed	4	6	7	722383	3	1	1	1	0	921	1	4	0	104	67	0	0	100
fixed	4	6	8	723860	2	3	3	1	0	1043	1	4	0	120	68	0	0	100
fixed	4	6	9	725918	3	2	2	1	0	372	1	4	0	112	69	0	0	100
fixed	4	6	10	727116	1	4	4	1	0	641	1	4	0	128	70	0	0	100
fixed	4	6	11	728523	5	2	2	1	0	318	1	4	0	112	71	0	0	100
fixed	4	6	12	729875	4	3	3	1	0	220	1	4	0	120	72	0	0	100
fixed	4	7	1	730871	4	1	1	1	0	538	1	4	0	104	73	0	0	100
fixed	4	7	2	732093	1	2	2	1	0	350	1	4	0	112	74	0	0	100
fixed	4	7	3	733482	6	4	4	1	0	348	1	4	0	128	75	0	0	100
fixed	4	7	4	734263	2	1	1	1	0	818	1	4	0	104	76	0	0	100
fixed	4	7	5	736009	5	3	3	1	0	793	1	4	0	120	77	0	0	100
fixed	4	7	6	737702	6	4	4	1	0	369	1	4	0	128	78	0	0	100
fixed	4	7	7	738892	3	1	1	1	0	1030	1	4	0	104	79	0	0	100
fixed	4	7	8	740212	2	3	3	1	0	830	1	4	0	120	80	0	0	100
fixed	4	7	9	741977	3	2	2	1	0	580	1	4	0	112	81	0	0	100
fixed	4	7	10	743130	1	4	4	1	0	715	1	4	0	128	82	0	0	100
fixed	4	7	11	744133	5	2	2	1	0	921	1	4	0	112	83	0	0	100
fixed	4	7	12	745352	4	3	3	1	0	349	1	4	0	120	84	0	0	100
fixed	4	8	1	746860	4	1	1	1	0	469	1	4	0	104	85	0	0	100
fixed	4	8	2	747830	1	2	2	1	0	1108	1	4	0	112	86	0	0	100
fixed	4	8	3	749892	6	4	4	1	0	277	1	4	0	128	87	0	0	100
fixed	4	8	4	750474	2	1	1	1	0	756	1	4	0	104	88	0	0	100
fixed	4	8	5	751846	5	3	3	1	0	882	1	4	0	120	89	0	0	100
fixed	4	8	6	753324	6	4	4	1	0	811	1	4	0	128	90	0	0	100
fixed	4	8	7	754847	3	1	1	1	0	850	1	4	0	104	91	0	0	100
fixed	4	8	8	756730	2	3	3	1	0	1123	1	4	0	120	92	0	0	100
fixed	4	8	9	758773	3	2	2	1	0	268	1	4	0	112	93	0	0	100
fixed	4	8	10	759444	1	4	4	1	0	456	1	4	0	128	94	0	0	100
fixed	4	8	11	760819	5	2	2	1	0	246	1	4	0	112	95	0	0	100
fixed	4	8	12	761718	4	3	3	1	0	272	1	4	0	120	96	0	0	100
fixed	4	9	1	763150	4	1	1	1	0	1539	1	4	0	104	97	0	0	100
fixed	4	9	2	765579	1	2	2	1	0	268	1	4	0	112	98	0	0	100
fixed	4	9	3	766817	6	4	4	1	0	96	1	4	0	128	99	0	0	100
fixed	4	9	4	767452	2	1	1	1	0	261	1	4	0	104	100	0	0	100
fixed	4	9	5	768482	5	3	3	1	0	393	1	4	0	120	101	0	0	100
fixed	4	9	6	769322	6	4	4	1	0	710	1	4	0	128	102	0	0	100
fixed	4	9	7	770887	3	1	1	1	0	875	1	4	0	104	103	0	0	100
fixed	4	9	8	772128	2	3	3	1	0	815	1	4	0	120	104	0	0	100
fixed	4	9	9	773747	3	2	2	1	0	794	1	4	0	112	105	0	0	100
fixed	4	9	10	775439	1	4	4	1	0	203	1	4	0	128	106	0	0	100
fixed	4	9	11	776119	5	2	2	1	0	654	1	4	0	112	107	0	0	100
fixed	4	9	12	777356	4	3	3	1	0	233	1	4	0	120	108	0	0	100
fixed	4	10	1	778672	4	1	1	1	0	353	1	4	0	104	109	0	0	100
fixed	4	10	2	779907	1	2	2	1	0	293	1	4	0	112	110	0	0	100
fixed	4	10	3	780530	6	4	4	1	0	691	1	4	0	128	111	0	0	100
fixed	4	10	4	782137	2	1	1	1	0	631	1	4	0	104	112	0	0	100
fixed	4	10	5	783420	5	3	3	1	0	536	1	4	0	120	113	0	0	100
fixed	4	10	6	784590	6	4	4	1	0	703	1	4	0	128	114	0	0	100
fixed	4	10	7	786087	3	1	1	1	0	552	1	4	0	104	115	0	0	100
fixed	4	10	8	787462	2	3	3	1	0	901	1	4	0	120	116	0	0	100
fixed	4	10	9	788707	3	2	2	1	0	529	1	4	0	112	117	0	0	100
fixed	4	10	10	789765	1	4	4	1	0	243	1	4	0	128	118	0	0	100
fixed	4	10	11	790515	5	2	2	1	0	364	1	4	0	112	119	0	0	100
fixed	4	10	12	791286	4	3	3	1	0	347	1	4	0	120	120	0	0	100
fixed	5	1	1	792503	4	1	1	1	0	559	1	4	0	136	1	0	0	100
fixed	5	1	2	794058	1	2	2	1	0	94	1	4	0	144	2	0	0	100
fixed	5	1	3	795162	6	4	4	2	0	607	2	4	0	160	3	0	0	100
fixed	5	1	4	796261	2	1	1	1	0	849	1	4	0	136	4	0	0	100
fixed	5	1	5	797385	5	3	3	1	0	745	1	4	0	152	5	0	0	100
fixed	5	1	6	799059	6	4	4	1	0	594	1	4	0	160	6	0	0	100
fixed	5	1	7	800067	3	1	1	1	0	680	1	4	0	136	7	0	0	100
fixed	5	1	8	801202	2	3	3	1	0	719	1	4	0	152	8	0	0	100
fixed	5	1	9	802866	3	2	2	1	0	273	1	4	0	144	9	0	0	100
fixed	5	1	10	803885	1	4	4	1	0	270	1	4	0	160	10	0	0	100
fixed	5	1	11	804996	5	2	2	1	0	207	1	4	0	144	11	0	0	100
fixed	5	1	12	805615	4	3	3	1	0	381	1	4	0	152	12	0	0	100
fixed	5	2	1	806757	4	1	1	1	0	1268	1	4	0	136	13	0	0	100
fixed	5	2	2	808582	1	2	2	1	0	407	1	4	0	144	14	0	0	100
fixed	5	2	3	809479	6	4	4	1	0	352	1	4	0	160	15	0	0	100
fixed	5	2	4	810334	2	1	1	1	0	572	1	4	0	136	16	0	0	100
fixed	5	2	5	811337	5	3	3	1	0	866	1	4	0	152	17	0	0	100
fixed	5	2	6	812650	6	4	4	1	0	659	1	4	0	160	18	0	0	100
fixed	5	2	7	814025	3	1	1	1	0	808	1	4	0	136	19	0	0	100
fixed	5	2	8	815304	2	3	3	1	0	834	1	4	0	152	20	0	0	100
fixed	5	2	9	816850	3	2	2	1	0	328	1	4	0	144	21	0	0	100
fixed	5	2	10	818054	1	4	4	1	0	277	1	4	0	160	22	0	0	100
fixed	5	2	11	819004	5	2	2	1	0	309	1	4	0	144	23	0	0	100
fixed	5	2	12	819753	4	3	3	1	0	381	1	4	0	152	24	0	0	100
fixed	5	3	1	821309	4	1	1	1	0	483	1	4	0	136	25	0	0	100
fixed	5	3	2	822098	1	2	2	1	0	2410	1	4	0	144	26	0	0	100
fixed	5	3	3	825009	6	4	4	1	0	679	1	4	0	160	27	0	0	100
fixed	5	3	4	826096	2	1	1	1	0	793	1	4	0	136	28	0	0	100
fixed	5	3	5	827612	5	3	3	1	0	585	1	4	0	152	29	0	0	100
fixed	5	3	6	828711	6	4	4	1	0	826	1	4	0	160	30	0	0	100
fixed	5	3	7	830531	3	1	1	1	0	581	1	4	0	136	31	0	0	100
fixed	5	3	8	831743	2	3	3	1	0	834	1	4	0	152	32	0	0	100
fixed	5	3	9	833518	3	2	2	1	0	703	1	4	0	144	33	0	0	100
fixed	5	3	10	834766	1	4	4	1	0	450	1	4	0	160	34	0	0	100
fixed	5	3	11	836055	5	2	2	1	0	459	1	4	0	144	35	0	0	100
fixed	5	3	12	836803	4	3	3	1	0	315	1	4	0	152	36	0	0	100
fixed	5	4	1	837984	4	1	1	1	0	537	1	4	0	136	37	0	0	100
fixed	5	4	2	839346	1	2	2	1	0	280	1	4	0	144	38	0	0	100
fixed	5	4	3	840057	6	4	4	1	0	401	1	4	0	160	39	0	0	100
fixed	5	4	4	840900	2	1	1	1	0	454	1	4	0	136	40	0	0	100
fixed	5	4	5	841821	5	3	3	1	0	623	1	4	0	152	41	0	0	100
fixed	5	4	6	842979	6	4	4	1	0	662	1	4	0	160	42	0	0	100
fixed	5	4	7	844055	3	1	1	1	0	736	1	4	0	136	43	0	0	100
fixed	5	4	8	845267	2	3	3	1	0	909	1	4	0	152	44	0	0	100
fixed	5	4	9	847027	3	2	2	1	0	250	1	4	0	144	45	0	0	100
fixed	5	4	10	847757	1	4	4	1	0	451	1	4	0	160	46	0	0	100
fixed	5	4	11	849210	5	2	2	1	0	598	1	4	0	144	47	0	0	100
fixed	5	4	12	850556	4	3	3	1	0	133	1	4	0	152	48	0	0	100
fixed	5	5	1	851433	4	1	1	1	0	176	1	4	0	136	49	0	0	100
fixed	5	5	2	852158	1	2	2	1	0	521	1	4	0	144	50	0	0	100
fixed	5	5	3	853078	6	4	4	1	0	354	1	4	0	160	51	0	0	100
fixed	5	5	4	853727	2	1	1	1	0	631	1	4	0	136	52	0	0	100
fixed	5	5	5	855254	5	3	3	1	0	918	1	4	0	152	53	0	0	100
fixed	5	5	6	856893	6	4	4	2	0	1505	2	4	0	160	54	0	0	100
fixed	5	5	7	859146	3	1	1	1	0	913	1	4	0	136	55	0	0	100
fixed	5	5	8	860720	2	3	3	1	0	855	1	4	0	152	56	0	0	100
fixed	5	5	9	862043	3	2	2	1	0	678	1	4	0	144	57	0	0	100
fixed	5	5	10	863160	1	4	4	1	0	335	1	4	0	160	58	0	0	100
fixed	5	5	11	864540	5	2	2	1	0	285	1	4	0	144	59	0	0	100
fixed	5	5	12	865141	4	3	3	1	0	299	1	4	0	152	60	0	0	100
fixed	5	6	1	866036	4	1	1	2	0	1109	2	4	0	136	61	0	0	100
fixed	5	6	2	868181	1	2	2	1	0	298	1	4	0	144	62	0	0	100
fixed	5	6	3	869466	6	4	4	1	0	20	1	4	0	160	63	0	0	100
fixed	5	6	4	869913	2	1	1	1	0	929	1	4	0	136	64	0	0	100
fixed	5	6	5	871874	5	3	3	1	0	230	1	4	0	152	65	0	0	100
fixed	5	6	6	872907	6	4	4	1	0	906	1	4	0	160	66	0	0	100
fixed	5	6	7	874691	3	1	1	1	0	798	1	4	0	136	67	0	0	100
fixed	5	6	8	876154	2	3	3	1	0	737	1	4	0	152	68	0	0	100
fixed	5	6	9	877782	3	2	2	1	0	620	1	4	0	144	69	0	0	100
fixed	5	6	10	878864	1	4	4	1	0	310	1	4	0	160	70	0	0	100
fixed	5	6	11	879954	5	2	2	1	0	280	1	4	0	144	71	0	0	100
fixed	5	6	12	881240	4	3	3	1	0	489	1	4	0	152	72	0	0	100
fixed	5	7	1	883011	4	1	1	1	0	646	1	4	0	136	73	0	0	100
fixed	5	7	2	884217	1	2	2	1	0	363	1	4	0	144	74	0	0	100
fixed	5	7	3	885176	6	4	4	1	0	299	1	4	0	160	75	0	0	100
fixed	5	7	4	885802	2	1	1	1	0	440	1	4	0	136	76	0	0	100
fixed	5	7	5	886844	5	3	3	2	0	724	2	4	0	152	77	0	0	100
fixed	5	7	6	888068	6	4	4	1	0	1256	1	4	0	160	78	0	0	100
fixed	5	7	7	890318	3	1	1	1	0	873	1	4	0	136	79	0	0	100
fixed	5	7	8	892108	2	3	3	1	0	741	1	4	0	152	80	0	0	100
fixed	5	7	9	893644	3	2	2	1	0	276	1	4	0	144	81	0	0	100
fixed	5	7	10	894259	1	4	4	1	0	378	1	4	0	160	82	0	0	100
fixed	5	7	11	895672	5	2	2	1	0	270	1	4	0	144	83	0	0	100
fixed	5	7	12	896898	4	3	3	1	0	250	1	4	0	152	84	0	0	100
fixed	5	8	1	898031	4	1	1	1	0	1258	1	4	0	136	85	0	0	100
fixed	5	8	2	899698	1	2	2	1	0	412	1	4	0	144	86	0	0	100
fixed	5	8	3	900840	6	4	4	1	0	307	1	4	0	160	87	0	0	100
fixed	5	8	4	901602	2	1	1	1	0	1211	1	4	0	136	88	0	0	100
fixed	5	8	5	903644	5	3	3	1	0	324	1	4	0	152	89	0	0	100
fixed	5	8	6	904431	6	4	4	1	0	907	1	4	0	160	90	0	0	100
fixed	5	8	7	906046	3	1	1	1	0	855	1	4	0	136	91	0	0	100
fixed	5	8	8	907788	2	3	3	1	0	773	1	4	0	152	92	0	0	100
fixed	5	8	9	908955	3	2	2	1	0	508	1	4	0	144	93	0	0	100
fixed	5	8	10	910425	1	4	4	1	0	261	1	4	0	160	94	0	0	100
fixed	5	8	11	911703	5	2	2	1	0	271	1	4	0	144	95	0	0	100
fixed	5	8	12	912369	4	3	3	1	0	315	1	4	0	152	96	0	0	100
fixed	5	9	1	913469	4	1	1	1	0	1716	1	4	0	136	97	0	0	100
fixed	5	9	2	915563	1	2	2	1	0	468	1	4	0	144	98	0	0	100
fixed	5	9	3	916633	6	4	4	1	0	598	1	4	0	160	99	0	0	100
fixed	5	9	4	918237	2	1	1	1	0	322	1	4	0	136	100	0	0	100
fixed	5	9	5	919237	5	3	3	1	0	480	1	4	0	152	101	0	0	100
fixed	5	9	6	920497	6	4	4	1	0	827	1	4	0	160	102	0	0	100
fixed	5	9	7	922179	3	1	1	1	0	803	1	4	0	136	103	0	0	100
fixed	5	9	8	923741	2	3	3	3	0	1521	2	4	0	152	104	0	0	100
fixed	5	9	9	926206	3	2	2	1	0	825	1	4	0	144	105	0	0	100
fixed	5	9	10	927944	1	4	4	1	0	343	1	4	0	160	106	0	0	100
fixed	5	9	11	929099	5	2	2	1	0	262	1	4	0	144	107	0	0	100
fixed	5	9	12	929886	4	3	3	1	0	325	1	4	0	152	108	0	0	100
fixed	5	10	1	931129	4	1	1	1	0	704	1	4	0	136	109	0	0	100
fixed	5	10	2	932367	1	2	2	1	0	388	1	4	0	144	110	0	0	100
fixed	5	10	3	933058	6	4	4	1	0	631	1	4	0	160	111	0	0	100
fixed	5	10	4	934086	2	1	1	1	0	739	1	4	0	136	112	0	0	100
fixed	5	10	5	935670	5	3	3	1	0	744	1	4	0	152	113	0	0	100
fixed	5	10	6	937361	6	4	4	1	0	600	1	4	0	160	114	0	0	100
fixed	5	10	7	938282	3	1	1	1	0	953	1	4	0	136	115	0	0	100
fixed	5	10	8	939775	2	3	3	1	0	970	1	4	0	152	116	0	0	100
fixed	5	10	9	941143	3	2	2	1	0	424	1	4	0	144	117	0	0	100
fixed	5	10	10	942013	1	4	4	1	0	443	1	4	0	160	118	0	0	100
fixed	5	10	11	943310	5	2	2	1	0	220	1	4	0	144	119	0	0	100
fixed	5	10	12	944257	4	3	3	1	0	236	1	4	0	152	120	0	0	100
random	6	1	1	1025926	6	1	1	1	0	857	1	4	0	168	1	0	0	100
random	6	1	2	1027375	4	4	4	2	0	1020	2	4	0	192	2	0	0	100
random	6	1	3	1029411	2	2	2	1	0	878	1	4	0	176	3	0	0	100
random	6	1	4	1030718	3	3	3	1	0	542	1	4	0	184	4	0	0	100
random	6	1	5	1032173	5	2	2	1	0	889	1	4	0	176	5	0	0	100
random	6	1	6	1033803	1	4	4	1	0	835	1	4	0	192	6	0	0	100
random	6	1	7	1035598	6	1	1	1	0	784	1	4	0	168	7	0	0	100
random	6	1	8	1037064	2	3	0	0	2	0	3	4	0	184	7	0	1	88
random	6	1	9	1040422	4	2	2	1	0	651	1	4	0	176	8	0	1	89
random	6	1	10	1041405	1	1	1	1	0	761	1	4	0	168	9	0	1	90
random	6	1	11	1043075	5	4	4	1	0	499	1	4	0	192	10	0	1	91
random	6	1	12	1044194	3	3	3	1	0	883	1	4	0	184	11	0	1	92
random	6	1	13	1046044	5	2	2	1	0	1181	1	4	0	176	12	0	1	92
random	6	1	14	1048210	1	4	4	1	0	817	1	4	0	192	13	0	1	93
random	6	1	15	1049410	3	1	1	1	0	711	1	4	0	168	14	0	1	93
random	6	1	16	1050445	4	3	3	1	0	1083	1	4	0	184	15	0	1	94
random	6	1	17	1052312	6	4	4	1	0	947	1	4	0	192	16	0	1	94
random	6	1	18	1053946	2	1	1	1	0	686	1	4	0	168	17	0	1	94
random	6	1	19	1055197	5	3	3	1	0	914	1	4	0	184	18	0	1	95
random	6	1	20	1056854	2	2	2	1	0	923	1	4	0	176	19	0	1	95
random	6	1	21	1058584	3	3	3	1	0	1290	1	4	0	184	20	0	1	95
random	6	1	22	1060626	6	1	1	2	0	1020	2	4	0	168	21	0	1	95
random	6	1	23	1062329	4	2	2	1	0	931	1	4	0	176	22	0	1	96
random	6	1	24	1064073	1	4	4	1	0	673	1	4	0	192	23	0	1	96
random	6	1	25	1065358	4	3	3	2	0	1771	2	4	0	184	24	0	1	96
random	6	1	26	1067721	2	1	1	1	0	1743	1	4	0	168	25	0	1	96
random	6	1	27	1070132	5	2	2	1	0	1225	1	4	0	176	26	0	1	96
random	6	1	28	1072369	6	4	4	1	0	818	1	4	0	192	27	0	1	96
random	6	1	29	1073618	1	3	3	1	0	965	1	4	0	184	28	0	1	97
random	6	1	30	1075260	5	2	2	1	0	752	1	4	0	176	29	0	1	97
random	6	1	31	1076937	2	1	1	1	0	800	1	4	0	168	30	0	1	97
random	6	1	32	1078658	3	3	3	1	0	863	1	4	0	184	31	0	1	97
random	6	1	33	1080415	6	4	4	1	0	669	1	4	0	192	32	0	1	97
random	6	1	34	1081561	4	2	2	1	0	789	1	4	0	176	33	0	1	97
random	6	1	35	1082828	3	4	4	1	0	1359	1	4	0	192	34	0	1	97
random	6	1	36	1084567	1	1	1	1	0	774	1	4	0	168	35	0	1	97
random	6	1	37	1086427	3	4	4	1	0	1342	1	4	0	192	36	0	1	97
random	6	1	38	1088638	5	3	3	1	0	849	1	4	0	184	37	0	1	97
random	6	1	39	1090359	6	1	1	1	0	760	1	4	0	168	38	0	1	97
random	6	1	40	1091634	1	2	2	1	0	954	1	4	0	176	39	0	1	98
random	6	1	41	1093033	2	3	3	1	0	607	1	4	0	184	40	0	1	98
random	6	1	42	1094522	4	4	4	1	0	800	1	4	0	192	41	0	1	98
random	6	1	43	1095981	1	2	2	1	0	970	1	4	0	176	42	0	1	98
random	6	1	44	1097565	6	3	3	1	0	903	1	4	0	184	43	0	1	98
random	6	1	45	1099502	3	1	1	1	0	701	1	4	0	168	44	0	1	98
random	6	1	46	1101207	4	4	4	2	0	1109	2	4	0	192	45	0	1	98
random	6	1	47	1102974	2	2	2	1	0	914	1	4	0	176	46	0	1	98
random	6	1	48	1104352	5	1	1	1	0	831	1	4	0	168	47	0	1	98
random	6	1	49	1106242	2	3	3	1	0	1447	1	4	0	184	48	0	1	98
random	6	1	50	1108601	3	1	1	1	0	843	1	4	0	168	49	0	1	98
random	6	1	51	1110462	1	4	4	1	0	717	1	4	0	192	50	0	1	98
random	6	1	52	1111643	5	3	3	1	0	931	1	4	0	184	51	0	1	98
random	6	1	53	1113576	3	2	2	1	0	640	1	4	0	176	52	0	1	98
random	6	1	54	1114990	6	4	4	1	0	1045	1	4	0	192	53	0	1	98
random	6	1	55	1116690	4	2	2	1	0	845	1	4	0	176	54	0	1	98
random	6	1	56	1118507	1	1	1	1	0	808	1	4	0	168	55	0	1	98
random	6	1	57	1119874	5	4	4	1	0	942	1	4	0	192	56	0	1	98
random	6	1	58	1121533	2	1	1	1	0	816	1	4	0	168	57	0	1	98
random	6	1	59	1122963	6	2	2	2	0	1387	2	4	0	176	58	0	1	98
random	6	1	60	1125300	4	3	3	1	0	640	1	4	0	184	59	0	1	98
random	6	1	61	1126642	1	2	2	1	0	863	1	4	0	176	60	0	1	98
random	6	1	62	1127916	6	4	4	1	0	769	1	4	0	192	61	0	1	98
random	6	1	63	1129566	4	1	1	1	0	747	1	4	0	168	62	0	1	98
random	6	1	64	1130688	2	2	2	1	0	1228	1	4	0	176	63	0	1	98
random	6	1	65	1132841	4	3	3	1	0	865	1	4	0	184	64	0	1	98
random	6	1	66	1134290	3	1	1	1	0	852	1	4	0	168	65	0	1	98
random	6	1	67	1135981	1	3	3	1	0	803	1	4	0	184	66	0	1	99
random	6	1	68	1137736	5	4	4	1	0	1433	1	4	0	192	67	0	1	99
random	6	1	69	1140102	2	2	2	1	0	837	1	4	0	176	68	0	1	99
random	6	1	70	1141838	3	1	1	1	0	772	1	4	0	168	69	0	1	99
random	6	1	71	1143103	5	4	4	1	0	822	1	4	0	192	70	0	1	99
random	6	1	72	1144685	6	3	3	1	0	1451	1	4	0	184	71	0	1	99
random	6	1	73	1147293	2	1	1	1	0	804	1	4	0	168	72	0	1	99
random	6	1	74	1148985	5	3	3	1	0	1477	1	4	0	184	73	0	1	99
random	6	1	75	1151460	1	4	4	1	0	700	1	4	0	192	74	0	1	99
random	6	1	76	1153120	6	2	2	1	0	814	1	4	0	176	75	0	1	99
random	6	1	77	1154234	2	1	1	1	0	879	1	4	0	168	76	0	1	99
random	6	1	78	1155642	4	4	4	1	0	963	1	4	0	192	77	0	1	99
random	6	1	79	1157051	3	2	2	1	0	879	1	4	0	176	78	0	1	99
random	6	1	80	1158695	4	3	3	1	0	802	1	4	0	184	79	0	1	99
random	6	1	81	1160512	1	4	4	1	0	997	1	4	0	192	80	0	1	99
random	6	1	82	1162239	5	1	1	1	0	788	1	4	0	168	81	0	1	99
random	6	1	83	1163698	3	2	2	1	0	790	1	4	0	176	82	0	1	99
random	6	1	84	1164802	6	3	3	1	0	871	1	4	0	184	83	0	1	99
random	6	1	85	1166490	3	2	2	1	0	1343	1	4	0	176	84	0	1	99
random	6	1	86	1168356	1	3	3	1	0	665	1	4	0	184	85	0	1	99
random	6	1	87	1169717	4	4	4	1	0	791	1	4	0	192	86	0	1	99
random	6	1	88	1171361	2	1	1	1	0	761	1	4	0	168	87	0	1	99
random	6	1	89	1172631	6	4	4	1	0	1380	1	4	0	192	88	0	1	99
random	6	1	90	1174643	3	3	3	1	0	2190	1	4	0	184	89	0	1	99
random	6	1	91	1177556	5	4	4	1	0	747	1	4	0	192	90	0	1	99
random	6	1	92	1179058	1	2	2	1	0	1275	1	4	0	176	91	0	1	99
random	6	1	93	1181068	5	1	1	1	0	726	1	4	0	168	92	0	1	99
random	6	1	94	1182244	4	3	3	1	0	1444	1	4	0	184	93	0	1	99
random	6	1	95	1184717	6	1	1	1	0	1003	1	4	0	168	94	0	1	99
random	6	1	96	1186257	2	2	2	1	0	810	1	4	0	176	95	0	1	99
random	6	1	97	1187775	4	3	3	1	0	690	1	4	0	184	96	0	1	99
random	6	1	98	1189091	3	2	2	2	0	1715	2	4	0	176	97	0	1	99
random	6	1	99	1191225	6	3	3	1	0	872	1	4	0	184	98	0	1	99
random	6	1	100	1192924	1	4	4	1	0	808	1	4	0	192	99	0	1	99
random	6	1	101	1194210	4	1	1	1	0	889	1	4	0	168	100	0	1	99
random	6	1	102	1195508	5	2	2	1	0	1026	1	4	0	176	101	0	1	99
random	6	1	103	1197271	2	4	4	1	0	752	1	4	0	192	102	0	1	99
random	6	1	104	1198629	3	1	1	1	0	751	1	4	0	168	103	0	1	99
random	6	1	105	1200001	1	3	3	1	0	892	1	4	0	184	104	0	1	99
random	6	1	106	1201603	2	2	2	1	0	729	1	4	0	176	105	0	1	99
random	6	1	107	1202810	5	4	4	1	0	677	1	4	0	192	106	0	1	99
random	6	1	108	1204207	6	1	1	1	0	658	1	4	0	168	107	0	1	99
random	6	1	109	1205736	5	4	4	1	0	1393	1	4	0	192	108	0	1	99
random	6	1	110	1207924	6	3	3	1	0	964	1	4	0	184	109	0	1	99
random	6	1	111	1209289	2	2	2	1	0	691	1	4	0	176	110	0	1	99
random	6	1	112	1210481	3	1	1	1	0	824	1	4	0	168	111	0	1	99
random	6	1	113	1211803	1	2	0	1	2	0	3	4	0	176	111	0	2	98
random	6	1	114	1215326	2	3	3	1	0	723	1	4	0	184	112	0	2	98
random	6	1	115	1216694	3	1	1	1	0	697	1	4	0	168	113	0	2	98
random	6	1	116	1217837	4	4	4	1	0	721	1	4	0	192	114	0	2	98
random	6	1	117	1219343	6	1	1	1	0	1033	1	4	0	168	115	0	2	98
random	6	1	118	1221200	5	3	3	1	0	834	1	4	0	184	116	0	2	98
random	6	1	119	1222987	1	4	4	1	0	711	1	4	0	192	117	0	2	98
random	6	1	120	1224067	4	2	2	1	0	673	1	4	0	176	118	0	2	98
fixed	7	1	1	1225666	4	1	1	1	0	749	1	4	0	200	1	0	0	100
fixed	7	1	2	1226883	1	2	2	2	0	1362	2	4	0	208	2	0	0	100
fixed	7	1	3	1228556	6	4	4	1	0	586	1	4	0	224	3	0	0	100
fixed	7	1	4	1230117	2	1	1	1	0	873	1	4	0	200	4	0	0	100
fixed	7	1	5	1231688	5	3	3	1	0	966	1	4	0	216	5	0	0	100
fixed	7	1	6	1233308	6	4	4	1	0	905	1	4	0	224	6	0	0	100
fixed	7	1	7	1235032	3	1	1	1	0	1153	1	4	0	200	7	0	0	100
fixed	7	1	8	1237074	2	3	3	1	0	938	1	4	0	216	8	0	0	100
fixed	7	1	9	1238354	3	2	2	1	0	564	1	4	0	208	9	0	0	100
fixed	7	1	10	1239601	1	4	4	1	0	775	1	4	0	224	10	0	0	100
fixed	7	1	11	1240686	5	2	2	1	0	785	1	4	0	208	11	0	0	100
fixed	7	1	12	1242109	4	3	3	1	0	260	1	4	0	216	12	0	0	100
fixed	7	2	1	1242944	4	1	1	1	0	1057	1	4	0	200	1	0	0	8
fixed	7	2	2	1244785	1	2	2	1	0	803	1	4	0	208	2	0	0	14
fixed	7	2	3	1246422	6	4	4	1	0	462	1	4	0	224	3	0	0	20
fixed	7	2	4	1247308	2	1	1	1	0	904	1	4	0	200	4	0	0	25
fixed	7	2	5	1249014	5	3	3	1	0	816	1	4	0	216	5	0	0	29
fixed	7	2	6	1250526	6	4	4	1	0	872	1	4	0	224	6	0	0	33
fixed	7	2	7	1252200	3	1	1	1	0	729	1	4	0	200	7	0	0	37
fixed	7	2	8	1253493	2	3	3	1	0	1059	1	4	0	216	8	0	0	40
fixed	7	2	9	1254910	3	2	2	1	0	646	1	4	0	208	9	0	0	43
fixed	7	2	10	1256225	1	4	4	1	0	518	1	4	0	224	10	0	0	45
fixed	7	2	11	1257125	5	2	2	1	0	601	1	4	0	208	11	0	0	48
fixed	7	2	12	1258623	4	3	3	1	0	273	1	4	0	216	12	0	0	50
fixed	7	3	1	1259635	4	1	1	1	0	766	1	4	0	200	1	0	0	4
fixed	7	3	2	1261012	1	2	2	1	0	1580	1	4	0	208	2	0	0	8
fixed	7	3	3	1263568	6	4	4	1	0	704	1	4	0	224	3	0	0	11
fixed	7	3	4	1265148	2	1	1	1	0	925	1	4	0	200	4	0	0	14
fixed	7	3	5	1266426	5	3	3	1	0	1007	1	4	0	216	5	0	0	17
fixed	7	3	6	1268130	6	4	4	1	0	903	1	4	0	224	6	0	0	20
fixed	7	3	7	1269911	3	1	1	1	0	891	1	4	0	200	7	0	0	23
fixed	7	3	8	1271841	2	3	3	1	0	1074	1	4	0	216	8	0	0	25
fixed	7	3	9	1273281	3	2	2	1	0	669	1	4	0	208	9	0	0	27
fixed	7	3	10	1274569	1	4	4	1	0	869	1	4	0	224	10	0	0	29
fixed	7	3	11	1276063	5	2	2	1	0	831	1	4	0	208	11	0	0	31
fixed	7	3	12	1277641	4	3	3	1	0	308	1	4	0	216	12	0	0	33
fixed	7	4	1	1278631	4	1	1	1	0	1018	1	4	0	200	1	0	0	3
fixed	7	4	2	1280097	1	2	2	1	0	660	1	4	0	208	2	0	0	5
fixed	7	4	3	1281333	6	4	4	1	0	392	1	4	0	224	3	0	0	8
fixed	7	4	4	1282709	2	1	1	1	0	1157	1	4	0	200	4	0	0	10
fixed	7	4	5	1284794	5	3	3	1	0	844	1	4	0	216	5	0	0	12
fixed	7	4	6	1286107	6	4	4	1	0	877	1	4	0	224	6	0	0	14
fixed	7	4	7	1287282	3	1	1	1	0	812	1	4	0	200	7	0	0	16
fixed	7	4	8	1288821	2	3	3	1	0	786	1	4	0	216	8	0	0	18
fixed	7	4	9	1290576	3	2	2	1	0	368	1	4	0	208	9	0	0	20
fixed	7	4	10	1291618	1	4	4	1	0	316	1	4	0	224	10	0	0	22
fixed	7	4	11	1292342	5	2	2	1	0	325	1	4	0	208	11	0	0	23
fixed	7	4	12	1293507	4	3	3	1	0	420	1	4	0	216	12	0	0	25
fixed	7	5	1	1294888	4	1	1	1	0	761	1	4	0	200	1	0	0	2
fixed	7	5	2	1296606	1	2	2	1	0	281	1	4	0	208	2	0	0	4
fixed	7	5	3	1297699	6	4	4	1	0	274	1	4	0	224	3	0	0	6
fixed	7	5	4	1299003	2	1	1	1	0	1179	1	4	0	200	4	0	0	8
fixed	7	5	5	1300848	5	3	3	1	0	853	1	4	0	216	5	0	0	9
fixed	7	5	6	1302029	6	4	4	1	0	1243	1	4	0	224	6	0	0	11
fixed	7	5	7	1304071	3	1	1	1	0	1140	1	4	0	200	7	0	0	13
fixed	7	5	8	1305969	2	3	3	1	0	587	1	4	0	216	8	0	0	14
fixed	7	5	9	1307239	3	2	2	1	0	694	1	4	0	208	9	0	0	16
fixed	7	5	10	1308555	1	4	4	1	0	854	1	4	0	224	10	0	0	17
fixed	7	5	11	1309893	5	2	2	1	0	454	1	4	0	208	11	0	0	19
fixed	7	5	12	1311181	4	3	3	1	0	247	1	4	0	216	12	0	0	20
fixed	7	6	1	1312047	4	1	1	1	0	954	1	4	0	200	1	0	0	2
fixed	7	6	2	1313387	1	2	2	1	0	578	1	4	0	208	2	0	0	3
fixed	7	6	3	1314450	6	4	4	1	0	1052	1	4	0	224	3	0	0	5
fixed	7	6	4	1316082	2	1	1	1	0	1800	1	4	0	200	4	0	0	6
fixed	7	6	5	1318626	5	3	3	1	0	884	1	4	0	216	5	0	0	8
fixed	7	6	6	1320149	6	4	4	1	0	819	1	4	0	224	6	0	0	9
fixed	7	6	7	1321286	3	1	1	1	0	907	1	4	0	200	7	0	0	10
fixed	7	6	8	1322886	2	3	3	1	0	744	1	4	0	216	8	0	0	12
fixed	7	6	9	1324392	3	2	2	1	0	287	1	4	0	208	9	0	0	13
fixed	7	6	10	1325160	1	4	4	1	0	639	1	4	0	224	10	0	0	14
fixed	7	6	11	1326629	5	2	2	1	0	329	1	4	0	208	11	0	0	15
fixed	7	6	12	1327691	4	3	3	1	0	252	1	4	0	216	12	0	0	17
fixed	7	7	1	1328654	4	1	1	1	0	891	1	4	0	200	1	0	0	1
fixed	7	7	2	1330363	1	2	2	1	0	323	1	4	0	208	2	0	0	3
fixed	7	7	3	1331718	6	4	4	1	0	761	1	4	0	224	3	0	0	4
fixed	7	7	4	1332873	2	1	1	1	0	776	1	4	0	200	4	0	0	5
fixed	7	7	5	1334572	5	3	3	1	0	1008	1	4	0	216	5	0	0	6
fixed	7	7	6	1336362	6	4	0	0	2	0	3	4	0	224	5	0	1	6
fixed	7	7	7	1339205	3	1	1	1	0	1004	1	4	0	200	6	0	1	8
fixed	7	7	8	1340803	2	3	3	1	0	808	1	4	0	216	7	0	1	9
fixed	7	7	9	1342033	3	2	2	1	0	533	1	4	0	208	8	0	1	10
fixed	7	7	10	1342989	1	4	4	1	0	724	1	4	0	224	9	0	1	11
fixed	7	7	11	1344040	5	2	2	1	0	695	1	4	0	208	10	0	1	12
fixed	7	7	12	1345076	4	3	3	1	0	563	1	4	0	216	11	0	1	13
fixed	7	8	1	1346882	4	1	1	1	0	735	1	4	0	200	1	0	0	1
fixed	7	8	2	1348334	1	2	2	1	0	321	1	4	0	208	2	0	0	2
fixed	7	8	3	1349452	6	4	4	1	0	1010	1	4	0	224	3	0	0	3
fixed	7	8	4	1351400	2	1	1	1	0	536	1	4	0	200	4	0	0	5
fixed	7	8	5	1352397	5	3	3	1	0	837	1	4	0	216	5	0	0	6
fixed	7	8	6	1353544	6	4	4	1	0	789	1	4	0	224	6	0	0	7
fixed	7	8	7	1354782	3	1	1	1	0	1041	1	4	0	200	7	0	0	8
fixed	7	8	8	1356735	2	3	3	1	0	1110	1	4	0	216	8	0	0	9
fixed	7	8	9	1358257	3	2	2	1	0	309	1	4	0	208	9	0	0	10
fixed	7	8	10	1359028	1	4	4	1	0	580	1	4	0	224	10	0	0	11
fixed	7	8	11	1359969	5	2	2	1	0	461	1	4	0	208	11	0	0	12
fixed	7	8	12	1361392	4	3	3	2	0	345	2	4	0	216	12	0	0	13
fixed	7	9	1	1362420	4	1	1	1	0	917	1	4	0	200	1	0	0	1
fixed	7	9	2	1363695	1	2	2	1	0	1015	1	4	0	208	2	0	0	2
fixed	7	9	3	1365153	6	4	4	1	0	601	1	4	0	224	3	0	0	3
fixed	7	9	4	1366254	2	1	1	1	0	819	1	4	0	200	4	0	0	4
fixed	7	9	5	1367435	5	3	3	1	0	856	1	4	0	216	5	0	0	5
fixed	7	9	6	1368649	6	4	4	1	0	717	1	4	0	224	6	0	0	6
fixed	7	9	7	1370270	3	1	1	2	0	1033	2	4	0	200	7	0	0	7
fixed	7	9	8	1371663	2	3	3	1	0	1085	1	4	0	216	8	0	0	8
fixed	7	9	9	1373352	3	2	2	1	0	310	1	4	0	208	9	0	0	9
fixed	7	9	10	1374539	1	4	4	1	0	908	1	4	0	224	10	0	0	9
fixed	7	9	11	1376039	5	2	2	1	0	524	1	4	0	208	11	0	0	10
fixed	7	9	12	1377287	4	3	3	1	0	312	1	4	0	216	12	0	0	11
fixed	7	10	1	1378510	4	1	1	1	0	323	1	4	0	200	1	0	0	1
fixed	7	10	2	1379410	1	2	2	1	0	421	1	4	0	208	2	0	0	2
fixed	7	10	3	1380484	6	4	4	1	0	736	1	4	0	224	3	0	0	3
fixed	7	10	4	1382100	2	1	1	1	0	683	1	4	0	200	4	0	0	4
fixed	7	10	5	1383267	5	3	3	1	0	1274	1	4	0	216	5	0	0	4
fixed	7	10	6	1385042	6	4	4	1	0	718	1	4	0	224	6	0	0	5
fixed	7	10	7	1386578	3	1	1	1	0	861	1	4	0	200	7	0	0	6
fixed	7	10	8	1388273	2	3	3	1	0	734	1	4	0	216	8	0	0	7
fixed	7	10	9	1389865	3	2	2	1	0	291	1	4	0	208	9	0	0	8
fixed	7	10	10	1390458	1	4	4	1	0	601	1	4	0	224	10	0	0	8
fixed	7	10	11	1391893	5	2	2	1	0	564	1	4	0	208	11	0	0	9
fixed	7	10	12	1393452	4	3	3	1	0	451	1	4	0	216	12	0	0	10
