type	block	sequ.	trial	time	Pos.	Color	Button	NumRsp	Resp_1	RT_1	R_Code	Resp_2	RT_2	Trigg.	n_hit	n_inc	n_miss	score_%

random	1	1	1	3598	6	1	1	1	0	2016	1	4	0	8	1	0	0	100
random	1	1	2	6409	4	4	0	1	2	0	3	4	0	32	1	0	1	50
random	1	1	3	9464	2	2	2	1	0	1551	1	4	0	16	2	0	1	67
random	1	1	4	11344	3	3	3	1	0	1688	1	4	0	24	3	0	1	75
random	1	1	5	13950	5	2	2	1	0	1922	1	4	0	16	4	0	1	80
random	1	1	6	16204	1	4	4	1	0	1786	1	4	0	32	5	0	1	83
random	1	1	7	18859	6	1	1	1	0	1562	1	4	0	8	6	0	1	86
random	1	1	8	21191	2	3	3	1	0	1671	1	4	0	24	7	0	1	88
random	1	1	9	23604	4	2	2	1	0	2017	1	4	0	16	8	0	1	89
random	1	1	10	26415	1	1	1	1	0	1258	1	4	0	8	9	0	1	90
random	1	1	11	28411	5	4	4	1	0	1277	1	4	0	32	10	0	1	91
random	1	1	12	30099	3	3	3	1	0	1686	1	4	0	24	11	0	1	92
random	1	1	13	33072	5	2	2	1	0	1928	1	4	0	16	12	0	1	92
random	1	1	14	35888	1	4	4	1	0	1073	1	4	0	32	13	0	1	93
random	1	1	15	37958	3	1	1	1	0	1129	1	4	0	8	14	0	1	93
random	1	1	16	39978	4	3	3	1	0	1187	1	4	0	24	15	0	1	94
random	1	1	17	41552	6	4	4	1	0	1217	1	4	0	32	16	0	1	94
random	1	1	18	43372	2	1	1	1	0	1196	1	4	0	8	17	0	1	94
random	1	1	19	44961	5	3	0	1	2	0	3	4	0	24	17	0	2	89
random	1	1	20	47795	2	2	2	1	0	1968	1	4	0	16	18	0	2	90
random	1	1	21	50725	3	3	3	1	0	1260	1	4	0	24	19	0	2	90
random	1	1	22	52982	6	1	1	1	0	1149	1	4	0	8	20	0	2	91
random	1	1	23	54814	4	2	2	1	0	1367	1	4	0	16	21	0	2	91
random	1	1	24	56558	1	4	4	1	0	1093	1	4	0	32	22	0	2	92
random	1	1	25	58836	4	3	3	1	0	1764	1	4	0	24	23	0	2	92
random	1	1	26	61319	2	1	1	1	0	1796	1	4	0	8	24	0	2	92
random	1	1	27	63935	5	2	2	1	0	1293	1	4	0	16	25	0	2	93
random	1	1	28	65706	6	4	4	1	0	1145	1	4	0	32	26	0	2	93
random	1	1	29	67738	1	3	3	1	0	1812	1	4	0	24	27	0	2	93
random	1	1	30	70171	5	2	0	1	2	0	3	4	0	16	27	0	3	90
random	1	1	31	73082	2	1	0	1	2	0	3	4	0	8	27	0	4	87
random	1	1	32	75900	3	3	3	1	0	2178	1	4	0	24	28	0	4	88
random	1	1	33	78939	6	4	4	1	0	1017	1	4	0	32	29	0	4	88
random	1	1	34	80691	4	2	2	1	0	1399	1	4	0	16	30	0	4	88
random	1	1	35	82918	3	4	4	1	0	1033	1	4	0	32	31	0	4	89
random	1	1	36	84785	1	1	0	1	2	0	3	4	0	8	31	0	5	86
random	1	1	37	88075	3	4	4	1	0	1414	1	4	0	32	32	0	5	86
random	1	1	38	90152	5	3	3	1	0	2030	1	4	0	24	33	0	5	87
random	1	1	39	92691	6	1	1	1	0	1163	1	4	0	8	34	0	5	87
random	1	1	40	94600	1	2	2	1	0	1202	1	4	0	16	35	0	5	88
random	1	1	41	96560	2	3	3	1	0	1598	1	4	0	24	36	0	5	88
random	1	1	42	98578	4	4	4	1	0	1394	1	4	0	32	37	0	5	88
random	1	1	43	100694	1	2	2	1	0	1864	1	4	0	16	38	0	5	88
random	1	1	44	103400	6	3	3	1	0	1973	1	4	0	24	39	0	5	89
random	1	1	45	106252	3	1	1	1	0	1180	1	4	0	8	40	0	5	89
random	1	1	46	108207	4	4	4	1	0	1225	1	4	0	32	41	0	5	89
random	1	1	47	109921	2	2	2	1	0	2137	1	4	0	16	42	0	5	89
random	1	1	48	112992	5	1	1	1	0	1255	1	4	0	8	43	0	5	90
random	1	1	49	115208	2	3	3	1	0	1689	1	4	0	24	44	0	5	90
random	1	1	50	117365	3	1	1	1	0	1037	1	4	0	8	45	0	5	90
random	1	1	51	119021	1	4	4	1	0	1135	1	4	0	32	46	0	5	90
random	1	1	52	120554	5	3	0	1	2	0	3	4	0	24	46	0	6	88
random	1	1	53	123510	3	2	2	2	0	2313	2	4	0	16	47	0	6	89
random	1	1	54	126297	6	4	4	1	0	1484	1	4	0	32	48	0	6	89
random	1	1	55	128092	4	2	2	1	0	2055	1	4	0	16	49	0	6	89
random	1	1	56	130661	1	1	1	1	0	1226	1	4	0	8	50	0	6	89
random	1	1	57	132374	5	4	4	1	0	1122	1	4	0	32	51	0	6	89
random	1	1	58	134424	2	1	1	1	0	1459	1	4	0	8	52	0	6	90
random	1	1	59	136518	6	2	2	1	0	1586	1	4	0	16	53	0	6	90
random	1	1	60	138988	4	3	3	1	0	1098	1	4	0	24	54	0	6	90
random	1	1	61	140904	1	2	2	1	0	1896	1	4	0	16	55	0	6	90
random	1	1	62	143843	6	4	4	1	0	1316	1	4	0	32	56	0	6	90
random	1	1	63	146082	4	1	1	1	0	1317	1	4	0	8	57	0	6	90
random	1	1	64	147808	2	2	2	1	0	1748	1	4	0	16	58	0	6	91
random	1	1	65	149913	4	3	3	1	0	1531	1	4	0	24	59	0	6	91
random	1	1	66	151887	3	1	1	1	0	1223	1	4	0	8	60	0	6	91
random	1	1	67	153872	1	3	3	1	0	1611	1	4	0	24	61	0	6	91
random	1	1	68	156258	5	4	4	1	0	974	1	4	0	32	62	0	6	91
random	1	1	69	157969	2	2	2	1	0	1270	1	4	0	16	63	0	6	91
random	1	1	70	159533	3	1	1	1	0	1083	1	4	0	8	64	0	6	91
random	1	1	71	161617	5	4	4	1	0	964	1	4	0	32	65	0	6	92
random	1	1	72	163441	6	3	3	1	0	1430	1	4	0	24	66	0	6	92
random	1	1	73	165832	2	1	1	1	0	1152	1	4	0	8	67	0	6	92
random	1	1	74	167840	5	3	3	1	0	1300	1	4	0	24	68	0	6	92
random	1	1	75	169976	1	4	4	1	0	1169	1	4	0	32	69	0	6	92
random	1	1	76	171691	6	2	2	1	0	1201	1	4	0	16	70	0	6	92
random	1	1	77	173287	2	1	1	1	0	1197	1	4	0	8	71	0	6	92
random	1	1	78	174884	4	4	4	1	0	1066	1	4	0	32	72	0	6	92
random	1	1	79	176486	3	2	2	1	0	1126	1	4	0	16	73	0	6	92
random	1	1	80	178171	4	3	3	1	0	1694	1	4	0	24	74	0	6	93
random	1	1	81	180207	1	4	4	1	0	992	1	4	0	32	75	0	6	93
random	1	1	82	182079	5	1	1	1	0	1225	1	4	0	8	76	0	6	93
random	1	1	83	184126	3	2	2	1	0	1250	1	4	0	16	77	0	6	93
random	1	1	84	186034	6	3	3	1	0	1481	1	4	0	24	78	0	6	93
random	1	1	85	188738	3	2	2	1	0	1230	1	4	0	16	79	0	6	93
random	1	1	86	190388	1	3	3	1	0	1217	1	4	0	24	80	0	6	93
random	1	1	87	192486	4	4	4	1	0	1312	1	4	0	32	81	0	6	93
random	1	1	88	194784	2	1	1	1	0	1190	1	4	0	8	82	0	6	93
random	1	1	89	196447	6	4	4	1	0	1168	1	4	0	32	83	0	6	93
random	1	1	90	198236	3	3	3	1	0	1732	1	4	0	24	84	0	6	93
random	1	1	91	200447	5	4	4	1	0	1079	1	4	0	32	85	0	6	93
random	1	1	92	202014	1	2	0	0	2	0	3	4	0	16	85	0	7	92
random	1	1	93	205339	5	1	1	1	0	1296	1	4	0	8	86	0	7	92
random	1	1	94	207254	4	3	3	1	0	2454	1	4	0	24	87	0	7	93
random	1	1	95	210671	6	1	1	1	0	1086	1	4	0	8	88	0	7	93
random	1	1	96	212278	2	2	2	1	0	1449	1	4	0	16	89	0	7	93
random	1	1	97	214936	4	3	3	1	0	1961	1	4	0	24	90	0	7	93
random	1	1	98	217370	3	2	2	1	0	1410	1	4	0	16	91	0	7	93
random	1	1	99	219386	6	3	3	1	0	2332	1	4	0	24	92	0	7	93
random	1	1	100	222636	1	4	4	1	0	1218	1	4	0	32	93	0	7	93
random	1	1	101	224162	4	1	1	1	0	1490	1	4	0	8	94	0	7	93
random	1	1	102	226594	5	2	2	1	0	1723	1	4	0	16	95	0	7	93
random	1	1	103	228636	2	4	4	1	0	1124	1	4	0	32	96	0	7	93
random	1	1	104	230415	3	1	1	1	0	1249	1	4	0	8	97	0	7	93
random	1	1	105	232001	1	3	3	1	0	1478	1	4	0	24	98	0	7	93
random	1	1	106	233805	2	2	2	1	0	1378	1	4	0	16	99	0	7	93
random	1	1	107	236169	5	4	4	1	0	901	1	4	0	32	100	0	7	93
random	1	1	108	237479	6	1	1	1	0	1158	1	4	0	8	101	0	7	94
random	1	1	109	239680	5	4	4	1	0	1089	1	4	0	32	102	0	7	94
random	1	1	110	241461	6	3	3	1	0	1582	1	4	0	24	103	0	7	94
random	1	1	111	243901	2	2	2	1	0	1638	1	4	0	16	104	0	7	94
random	1	1	112	245859	3	1	1	1	0	1996	1	4	0	8	105	0	7	94
random	1	1	113	248783	1	2	0	1	2	0	3	4	0	16	105	0	8	93
random	1	1	114	252213	2	3	3	1	0	1454	1	4	0	24	106	0	8	93
random	1	1	115	253974	3	1	1	1	0	1244	1	4	0	8	107	0	8	93
random	1	1	116	256029	4	4	4	1	0	877	1	4	0	32	108	0	8	93
random	1	1	117	257305	6	1	1	1	0	1534	1	4	0	8	109	0	8	93
random	1	1	118	259555	5	3	3	1	0	1399	1	4	0	24	110	0	8	93
random	1	1	119	261323	1	4	4	1	0	1284	1	4	0	32	111	0	8	93
random	1	1	120	262995	4	2	2	1	0	1829	1	4	0	16	112	0	8	93
fixed	2	1	1	265825	4	1	1	1	0	1341	1	4	0	40	1	0	0	100
fixed	2	1	2	267573	1	2	2	1	0	1524	1	4	0	48	2	0	0	100
fixed	2	1	3	269430	6	4	4	1	0	1013	1	4	0	64	3	0	0	100
fixed	2	1	4	271278	2	1	1	1	0	1950	1	4	0	40	4	0	0	100
fixed	2	1	5	274219	5	3	3	1	0	1170	1	4	0	56	5	0	0	100
fixed	2	1	6	276045	6	4	4	1	0	1509	1	4	0	64	6	0	0	100
fixed	2	1	7	278046	3	1	1	1	0	1368	1	4	0	40	7	0	0	100
fixed	2	1	8	280328	2	3	3	1	0	1695	1	4	0	56	8	0	0	100
fixed	2	1	9	282730	3	2	2	1	0	1602	1	4	0	48	9	0	0	100
fixed	2	1	10	285118	1	4	4	1	0	1093	1	4	0	64	10	0	0	100
fixed	2	1	11	286851	5	2	2	1	0	1659	1	4	0	48	11	0	0	100
fixed	2	1	12	289161	4	3	3	1	0	2265	1	4	0	56	12	0	0	100
fixed	2	2	1	292643	4	1	1	1	0	1333	1	4	0	40	13	0	0	100
fixed	2	2	2	294639	1	2	0	0	2	0	3	4	0	48	13	0	1	93
fixed	2	2	3	297569	6	4	4	2	0	1429	2	4	0	64	14	0	1	93
fixed	2	2	4	299784	2	1	1	1	0	1247	1	4	0	40	15	0	1	94
fixed	2	2	5	301917	5	3	3	1	0	1629	1	4	0	56	16	0	1	94
fixed	2	2	6	304436	6	4	4	1	0	970	1	4	0	64	17	0	1	94
fixed	2	2	7	306363	3	1	1	1	0	1072	1	4	0	40	18	0	1	95
fixed	2	2	8	308002	2	3	0	1	2	0	3	4	0	56	18	0	2	90
fixed	2	2	9	310881	3	2	2	1	0	1401	1	4	0	48	19	0	2	90
fixed	2	2	10	313203	1	4	4	1	0	1295	1	4	0	64	20	0	2	91
fixed	2	2	11	314913	5	2	2	1	0	1494	1	4	0	48	21	0	2	91
fixed	2	2	12	316824	4	3	0	0	2	0	3	4	0	56	21	0	3	88
fixed	2	3	1	320027	4	1	1	1	0	1549	1	4	0	40	22	0	3	88
fixed	2	3	2	322009	1	2	2	1	0	1290	1	4	0	48	23	0	3	88
fixed	2	3	3	324212	6	4	4	1	0	1205	1	4	0	64	24	0	3	89
fixed	2	3	4	326233	2	1	1	1	0	1303	1	4	0	40	25	0	3	89
fixed	2	3	5	328534	5	3	3	1	0	1693	1	4	0	56	26	0	3	90
fixed	2	3	6	330706	6	4	4	1	0	1505	1	4	0	64	27	0	3	90
fixed	2	3	7	333256	3	1	1	1	0	1038	1	4	0	40	28	0	3	90
fixed	2	3	8	334609	2	3	3	1	0	1405	1	4	0	56	29	0	3	91
fixed	2	3	9	336480	3	2	2	1	0	1213	1	4	0	48	30	0	3	91
fixed	2	3	10	338200	1	4	4	1	0	1156	1	4	0	64	31	0	3	91
fixed	2	3	11	339814	5	2	2	1	0	1640	1	4	0	48	32	0	3	91
fixed	2	3	12	342428	4	3	3	1	0	1585	1	4	0	56	33	0	3	92
fixed	2	4	1	344838	4	1	1	1	0	1043	1	4	0	40	34	0	3	92
fixed	2	4	2	346431	1	2	2	1	0	1727	1	4	0	48	35	0	3	92
fixed	2	4	3	348667	6	4	4	1	0	2041	1	4	0	64	36	0	3	92
fixed	2	4	4	351554	2	1	1	1	0	1598	1	4	0	40	37	0	3	93
fixed	2	4	5	353753	5	3	3	1	0	1673	1	4	0	56	38	0	3	93
fixed	2	4	6	356413	6	4	4	1	0	1161	1	4	0	64	39	0	3	93
fixed	2	4	7	358598	3	1	1	1	0	1236	1	4	0	40	40	0	3	93
fixed	2	4	8	360731	2	3	3	1	0	1530	1	4	0	56	41	0	3	93
fixed	2	4	9	363015	3	2	2	1	0	1481	1	4	0	48	42	0	3	93
fixed	2	4	10	365508	1	4	4	1	0	1351	1	4	0	64	43	0	3	93
fixed	2	4	11	367743	5	2	2	1	0	1144	1	4	0	48	44	0	3	94
fixed	2	4	12	369193	4	3	3	1	0	1516	1	4	0	56	45	0	3	94
fixed	2	5	1	371637	4	1	1	1	0	1108	1	4	0	40	46	0	3	94
fixed	2	5	2	373356	1	2	2	1	0	1395	1	4	0	48	47	0	3	94
fixed	2	5	3	375411	6	4	4	1	0	988	1	4	0	64	48	0	3	94
fixed	2	5	4	376828	2	1	1	1	0	1376	1	4	0	40	49	0	3	94
fixed	2	5	5	378822	5	3	3	1	0	1155	1	4	0	56	50	0	3	94
fixed	2	5	6	380710	6	4	4	1	0	1099	1	4	0	64	51	0	3	94
fixed	2	5	7	382682	3	1	1	1	0	1128	1	4	0	40	52	0	3	95
fixed	2	5	8	384564	2	3	3	1	0	1529	1	4	0	56	53	0	3	95
fixed	2	5	9	386845	3	2	2	1	0	1008	1	4	0	48	54	0	3	95
fixed	2	5	10	388739	1	4	4	1	0	920	1	4	0	64	55	0	3	95
fixed	2	5	11	390193	5	2	2	1	0	1322	1	4	0	48	56	0	3	95
fixed	2	5	12	392460	4	3	3	1	0	1346	1	4	0	56	57	0	3	95
fixed	2	6	1	394760	4	1	1	1	0	1048	1	4	0	40	58	0	3	95
fixed	2	6	2	396451	1	2	2	1	0	1377	1	4	0	48	59	0	3	95
fixed	2	6	3	398762	6	4	4	1	0	975	1	4	0	64	60	0	3	95
fixed	2	6	4	400299	2	1	1	1	0	1118	1	4	0	40	61	0	3	95
fixed	2	6	5	401942	5	3	3	1	0	1128	1	4	0	56	62	0	3	95
fixed	2	6	6	404109	6	4	4	1	0	1053	1	4	0	64	63	0	3	95
fixed	2	6	7	405512	3	1	1	1	0	1097	1	4	0	40	64	0	3	96
fixed	2	6	8	407274	2	3	3	1	0	1734	1	4	0	56	65	0	3	96
fixed	2	6	9	409529	3	2	2	1	0	1207	1	4	0	48	66	0	3	96
fixed	2	6	10	411723	1	4	4	1	0	930	1	4	0	64	67	0	3	96
fixed	2	6	11	413670	5	2	2	1	0	1120	1	4	0	48	68	0	3	96
fixed	2	6	12	415177	4	3	0	1	2	0	3	4	0	56	68	0	4	94
fixed	2	7	1	418903	4	1	1	1	0	1210	1	4	0	40	69	0	4	95
fixed	2	7	2	421032	1	2	2	1	0	1392	1	4	0	48	70	0	4	95
fixed	2	7	3	423133	6	4	4	1	0	1023	1	4	0	64	71	0	4	95
fixed	2	7	4	425034	2	1	1	1	0	1382	1	4	0	40	72	0	4	95
fixed	2	7	5	427311	5	3	3	1	0	1350	1	4	0	56	73	0	4	95
fixed	2	7	6	428970	6	4	4	1	0	1192	1	4	0	64	74	0	4	95
fixed	2	7	7	430658	3	1	1	1	0	1144	1	4	0	40	75	0	4	95
fixed	2	7	8	432171	2	3	3	1	0	1608	1	4	0	56	76	0	4	95
fixed	2	7	9	434586	3	2	2	1	0	1314	1	4	0	48	77	0	4	95
fixed	2	7	10	436705	1	4	4	1	0	1000	1	4	0	64	78	0	4	95
fixed	2	7	11	438438	5	2	2	1	0	1334	1	4	0	48	79	0	4	95
fixed	2	7	12	440413	4	3	0	1	2	0	3	4	0	56	79	0	5	94
fixed	2	8	1	443981	4	1	1	1	0	1339	1	4	0	40	80	0	5	94
fixed	2	8	2	446185	1	2	2	1	0	1902	1	4	0	48	81	0	5	94
fixed	2	8	3	448860	6	4	4	1	0	1141	1	4	0	64	82	0	5	94
fixed	2	8	4	450521	2	1	1	1	0	1447	1	4	0	40	83	0	5	94
fixed	2	8	5	452555	5	3	0	0	2	0	3	4	0	56	83	0	6	93
fixed	2	8	6	455532	6	4	4	1	0	1498	1	4	0	64	84	0	6	93
fixed	2	8	7	457440	3	1	1	1	0	1194	1	4	0	40	85	0	6	93
fixed	2	8	8	459184	2	3	3	1	0	2295	1	4	0	56	86	0	6	93
fixed	2	8	9	462521	3	2	2	2	0	1467	2	4	0	48	87	0	6	94
fixed	2	8	10	464429	1	4	4	1	0	1441	1	4	0	64	88	0	6	94
fixed	2	8	11	466222	5	2	2	1	0	1469	1	4	0	48	89	0	6	94
fixed	2	8	12	468362	4	3	3	1	0	1371	1	4	0	56	90	0	6	94
fixed	2	9	1	470647	4	1	1	1	0	1354	1	4	0	40	91	0	6	94
fixed	2	9	2	472622	1	2	2	1	0	1222	1	4	0	48	92	0	6	94
fixed	2	9	3	474286	6	4	4	1	0	1192	1	4	0	64	93	0	6	94
fixed	2	9	4	476158	2	1	1	1	0	1536	1	4	0	40	94	0	6	94
fixed	2	9	5	478417	5	3	3	1	0	1449	1	4	0	56	95	0	6	94
fixed	2	9	6	480450	6	4	4	1	0	1603	1	4	0	64	96	0	6	94
fixed	2	9	7	482796	3	1	1	1	0	1567	1	4	0	40	97	0	6	94
fixed	2	9	8	485240	2	3	3	1	0	1744	1	4	0	56	98	0	6	94
fixed	2	9	9	487366	3	2	2	1	0	1174	1	4	0	48	99	0	6	94
fixed	2	9	10	489539	1	4	4	1	0	946	1	4	0	64	100	0	6	94
fixed	2	9	11	491357	5	2	2	1	0	1397	1	4	0	48	101	0	6	94
fixed	2	9	12	493368	4	3	3	1	0	1296	1	4	0	56	102	0	6	94
fixed	2	10	1	495825	4	1	1	1	0	1256	1	4	0	40	103	0	6	94
fixed	2	10	2	497873	1	2	2	1	0	1129	1	4	0	48	104	0	6	95
fixed	2	10	3	499790	6	4	4	1	0	1024	1	4	0	64	105	0	6	95
fixed	2	10	4	501797	2	1	1	1	0	1579	1	4	0	40	106	0	6	95
fixed	2	10	5	503753	5	3	3	1	0	1416	1	4	0	56	107	0	6	95
fixed	2	10	6	505832	6	4	4	1	0	1320	1	4	0	64	108	0	6	95
fixed	2	10	7	507545	3	1	1	1	0	1455	1	4	0	40	109	0	6	95
fixed	2	10	8	509739	2	3	3	1	0	1379	1	4	0	56	110	0	6	95
fixed	2	10	9	511987	3	2	2	1	0	1059	1	4	0	48	111	0	6	95
fixed	2	10	10	513608	1	4	4	1	0	1127	1	4	0	64	112	0	6	95
fixed	2	10	11	515496	5	2	0	1	2	0	3	4	0	48	112	0	7	94
fixed	2	10	12	518338	4	3	3	1	0	1790	1	4	0	56	113	0	7	94
fixed	3	1	1	521569	4	1	1	1	0	1741	1	4	0	72	1	0	0	100
fixed	3	1	2	523835	1	2	2	1	0	1317	1	4	0	80	2	0	0	100
fixed	3	1	3	526158	6	4	4	1	0	1107	1	4	0	96	3	0	0	100
fixed	3	1	4	528055	2	1	1	1	0	1234	1	4	0	72	4	0	0	100
fixed	3	1	5	530067	5	3	3	1	0	1102	1	4	0	88	5	0	0	100
fixed	3	1	6	531721	6	4	4	1	0	1519	1	4	0	96	6	0	0	100
fixed	3	1	7	533815	3	1	1	1	0	1182	1	4	0	72	7	0	0	100
fixed	3	1	8	535493	2	3	3	1	0	1656	1	4	0	88	8	0	0	100
fixed	3	1	9	537568	3	2	2	1	0	1224	1	4	0	80	9	0	0	100
fixed	3	1	10	539509	1	4	4	1	0	1054	1	4	0	96	10	0	0	100
fixed	3	1	11	540948	5	2	2	1	0	1553	1	4	0	80	11	0	0	100
fixed	3	1	12	543131	4	3	0	1	2	0	3	4	0	88	11	0	1	92
fixed	3	2	1	546783	4	1	1	1	0	1441	1	4	0	72	12	0	1	92
fixed	3	2	2	548861	1	2	2	1	0	1617	1	4	0	80	13	0	1	93
fixed	3	2	3	551368	6	4	4	1	0	1167	1	4	0	96	14	0	1	93
fixed	3	2	4	553244	2	1	1	1	0	1440	1	4	0	72	15	0	1	94
fixed	3	2	5	555451	5	3	3	1	0	1435	1	4	0	88	16	0	1	94
fixed	3	2	6	557678	6	4	4	1	0	1500	1	4	0	96	17	0	1	94
fixed	3	2	7	559760	3	1	1	1	0	1892	1	4	0	72	18	0	1	95
fixed	3	2	8	561984	2	3	3	1	0	2286	1	4	0	88	19	0	1	95
fixed	3	2	9	564857	3	2	0	0	2	0	3	4	0	80	19	0	2	90
fixed	3	2	10	567896	1	4	4	1	0	1043	1	4	0	96	20	0	2	91
fixed	3	2	11	569235	5	2	2	1	0	1531	1	4	0	80	21	0	2	91
fixed	3	2	12	571541	4	3	3	1	0	1785	1	4	0	88	22	0	2	92
fixed	3	3	1	573866	4	1	1	1	0	1302	1	4	0	72	23	0	2	92
fixed	3	3	2	575614	1	2	2	1	0	1516	1	4	0	80	24	0	2	92
fixed	3	3	3	577931	6	4	4	1	0	1010	1	4	0	96	25	0	2	93
fixed	3	3	4	579868	2	1	1	1	0	1480	1	4	0	72	26	0	2	93
fixed	3	3	5	582221	5	3	0	1	2	0	3	4	0	88	26	0	3	90
fixed	3	3	6	585028	6	4	4	1	0	1325	1	4	0	96	27	0	3	90
fixed	3	3	7	586859	3	1	1	1	0	1416	1	4	0	72	28	0	3	90
fixed	3	3	8	589139	2	3	0	0	2	0	3	4	0	88	28	0	4	88
fixed	3	3	9	592558	3	2	2	1	0	1559	1	4	0	80	29	0	4	88
fixed	3	3	10	594959	1	4	4	1	0	1017	1	4	0	96	30	0	4	88
fixed	3	3	11	596487	5	2	2	1	0	1408	1	4	0	80	31	0	4	89
fixed	3	3	12	598679	4	3	3	1	0	1195	1	4	0	88	32	0	4	89
fixed	3	4	1	600849	4	1	1	1	0	1023	1	4	0	72	33	0	4	89
fixed	3	4	2	602395	1	2	2	1	0	1926	1	4	0	80	34	0	4	89
fixed	3	4	3	605137	6	4	4	1	0	2002	1	4	0	96	35	0	4	90
fixed	3	4	4	607489	2	1	1	1	0	1830	1	4	0	72	36	0	4	90
fixed	3	4	5	610327	5	3	3	1	0	2062	1	4	0	88	37	0	4	90
fixed	3	4	6	613085	6	4	4	1	0	1121	1	4	0	96	38	0	4	90
fixed	3	4	7	614832	3	1	1	1	0	1487	1	4	0	72	39	0	4	91
fixed	3	4	8	616636	2	3	3	1	0	1570	1	4	0	88	40	0	4	91
fixed	3	4	9	619203	3	2	2	1	0	1502	1	4	0	80	41	0	4	91
fixed	3	4	10	621149	1	4	4	1	0	1267	1	4	0	96	42	0	4	91
fixed	3	4	11	623122	5	2	2	1	0	1456	1	4	0	80	43	0	4	91
fixed	3	4	12	624976	4	3	3	1	0	1481	1	4	0	88	44	0	4	92
fixed	3	5	1	627398	4	1	1	1	0	1051	1	4	0	72	45	0	4	92
fixed	3	5	2	629256	1	2	2	1	0	1300	1	4	0	80	46	0	4	92
fixed	3	5	3	631167	6	4	4	1	0	1163	1	4	0	96	47	0	4	92
fixed	3	5	4	632859	2	1	1	1	0	1123	1	4	0	72	48	0	4	92
fixed	3	5	5	634394	5	3	3	1	0	1371	1	4	0	88	49	0	4	92
fixed	3	5	6	636471	6	4	4	1	0	1274	1	4	0	96	50	0	4	93
fixed	3	5	7	638559	3	1	1	1	0	1602	1	4	0	72	51	0	4	93
fixed	3	5	8	641111	2	3	3	1	0	1526	1	4	0	88	52	0	4	93
fixed	3	5	9	643133	3	2	2	1	0	1257	1	4	0	80	53	0	4	93
fixed	3	5	10	644746	1	4	4	1	0	1076	1	4	0	96	54	0	4	93
fixed	3	5	11	646480	5	2	0	1	2	0	3	4	0	80	54	0	5	92
fixed	3	5	12	649354	4	3	3	1	0	2473	1	4	0	88	55	0	5	92
fixed	3	6	1	652610	4	1	1	1	0	1351	1	4	0	72	56	0	5	92
fixed	3	6	2	654772	1	2	2	1	0	1348	1	4	0	80	57	0	5	92
fixed	3	6	3	656544	6	4	4	1	0	1073	1	4	0	96	58	0	5	92
fixed	3	6	4	658480	2	1	1	1	0	2206	1	4	0	72	59	0	5	92
fixed	3	6	5	661016	5	3	3	1	0	1451	1	4	0	88	60	0	5	92
fixed	3	6	6	662784	6	4	4	1	0	1825	1	4	0	96	61	0	5	92
fixed	3	6	7	664988	3	1	1	1	0	1299	1	4	0	72	62	0	5	93
fixed	3	6	8	666730	2	3	3	1	0	1825	1	4	0	88	63	0	5	93
fixed	3	6	9	668950	3	2	2	1	0	1355	1	4	0	80	64	0	5	93
fixed	3	6	10	670683	1	4	4	1	0	1074	1	4	0	96	65	0	5	93
fixed	3	6	11	672487	5	2	2	1	0	1270	1	4	0	80	66	0	5	93
fixed	3	6	12	674747	4	3	3	1	0	1349	1	4	0	88	67	0	5	93
fixed	3	7	1	676669	4	1	1	1	0	1100	1	4	0	72	68	0	5	93
fixed	3	7	2	678761	1	2	2	1	0	1459	1	4	0	80	69	0	5	93
fixed	3	7	3	681247	6	4	4	1	0	1098	1	4	0	96	70	0	5	93
fixed	3	7	4	682770	2	1	1	1	0	1538	1	4	0	72	71	0	5	93
fixed	3	7	5	685228	5	3	0	0	2	0	3	4	0	88	71	0	6	92
fixed	3	7	6	688377	6	4	4	1	0	1229	1	4	0	96	72	0	6	92
fixed	3	7	7	690616	3	1	1	1	0	1238	1	4	0	72	73	0	6	92
fixed	3	7	8	692477	2	3	3	1	0	1718	1	4	0	88	74	0	6	93
fixed	3	7	9	694960	3	2	2	1	0	886	1	4	0	80	75	0	6	93
fixed	3	7	10	696532	1	4	4	1	0	891	1	4	0	96	76	0	6	93
fixed	3	7	11	697784	5	2	2	1	0	1349	1	4	0	80	77	0	6	93
fixed	3	7	12	700031	4	3	3	1	0	1511	1	4	0	88	78	0	6	93
fixed	3	8	1	702716	4	1	1	1	0	1133	1	4	0	72	79	0	6	93
fixed	3	8	2	704286	1	2	2	1	0	1306	1	4	0	80	80	0	6	93
fixed	3	8	3	706590	6	4	4	1	0	1441	1	4	0	96	81	0	6	93
fixed	3	8	4	708463	2	1	1	1	0	1401	1	4	0	72	82	0	6	93
fixed	3	8	5	710609	5	3	3	1	0	1719	1	4	0	88	83	0	6	93
fixed	3	8	6	713154	6	4	4	1	0	1067	1	4	0	96	84	0	6	93
fixed	3	8	7	714937	3	1	1	1	0	1583	1	4	0	72	85	0	6	93
fixed	3	8	8	717467	2	3	3	1	0	1980	1	4	0	88	86	0	6	93
fixed	3	8	9	720173	3	2	2	1	0	1217	1	4	0	80	87	0	6	94
fixed	3	8	10	722174	1	4	4	1	0	997	1	4	0	96	88	0	6	94
fixed	3	8	11	723515	5	2	2	1	0	1868	1	4	0	80	89	0	6	94
fixed	3	8	12	725693	4	3	0	0	2	0	3	4	0	88	89	0	7	93
fixed	3	9	1	728863	4	1	1	1	0	1513	1	4	0	72	90	0	7	93
fixed	3	9	2	730983	1	2	2	1	0	1807	1	4	0	80	91	0	7	93
fixed	3	9	3	733730	6	4	4	1	0	995	1	4	0	96	92	0	7	93
fixed	3	9	4	735575	2	1	1	1	0	1949	1	4	0	72	93	0	7	93
fixed	3	9	5	738264	5	3	3	1	0	1379	1	4	0	88	94	0	7	93
fixed	3	9	6	740493	6	4	4	1	0	1173	1	4	0	96	95	0	7	93
fixed	3	9	7	742620	3	1	1	1	0	883	1	4	0	72	96	0	7	93
fixed	3	9	8	744527	2	3	3	1	0	2058	1	4	0	88	97	0	7	93
fixed	3	9	9	747412	3	2	2	1	0	968	1	4	0	80	98	0	7	93
fixed	3	9	10	749124	1	4	4	1	0	903	1	4	0	96	99	0	7	93
fixed	3	9	11	750557	5	2	2	1	0	1307	1	4	0	80	100	0	7	93
fixed	3	9	12	752862	4	3	3	1	0	1425	1	4	0	88	101	0	7	94
fixed	3	10	1	755228	4	1	1	1	0	1005	1	4	0	72	102	0	7	94
fixed	3	10	2	756837	1	2	2	1	0	1208	1	4	0	80	103	0	7	94
fixed	3	10	3	758394	6	4	4	1	0	1103	1	4	0	96	104	0	7	94
fixed	3	10	4	759908	2	1	1	1	0	1510	1	4	0	72	105	0	7	94
fixed	3	10	5	762304	5	3	3	1	0	1265	1	4	0	88	106	0	7	94
fixed	3	10	6	764178	6	4	4	1	0	1050	1	4	0	96	107	0	7	94
fixed	3	10	7	765953	3	1	0	1	2	0	3	4	0	72	107	0	8	93
fixed	3	10	8	769471	2	3	3	1	0	1562	1	4	0	88	108	0	8	93
fixed	3	10	9	771562	3	2	2	1	0	1217	1	4	0	80	109	0	8	93
fixed	3	10	10	773271	1	4	4	1	0	1080	1	4	0	96	110	0	8	93
fixed	3	10	11	775177	5	2	0	1	2	0	3	4	0	80	110	0	9	92
fixed	3	10	12	778389	4	3	3	1	0	2032	1	4	0	88	111	0	9	93
fixed	4	1	1	899363	4	1	1	1	0	1964	1	4	0	104	1	0	0	100
fixed	4	1	2	902032	1	2	2	1	0	1243	1	4	0	112	2	0	0	100
fixed	4	1	3	904059	6	4	4	1	0	1021	1	4	0	128	3	0	0	100
fixed	4	1	4	905835	2	1	1	1	0	1058	1	4	0	104	4	0	0	100
fixed	4	1	5	907235	5	3	3	1	0	1366	1	4	0	120	5	0	0	100
fixed	4	1	6	909470	6	4	4	1	0	1063	1	4	0	128	6	0	0	100
fixed	4	1	7	911560	3	1	1	1	0	1279	1	4	0	104	7	0	0	100
fixed	4	1	8	913780	2	3	3	1	0	2106	1	4	0	120	8	0	0	100
fixed	4	1	9	916319	3	2	2	1	0	1206	1	4	0	112	9	0	0	100
fixed	4	1	10	918491	1	4	4	1	0	986	1	4	0	128	10	0	0	100
fixed	4	1	11	919797	5	2	2	1	0	1266	1	4	0	112	11	0	0	100
fixed	4	1	12	921372	4	3	3	1	0	1208	1	4	0	120	12	0	0	100
fixed	4	2	1	923307	4	1	1	1	0	957	1	4	0	104	13	0	0	100
fixed	4	2	2	924905	1	2	2	1	0	1074	1	4	0	112	14	0	0	100
fixed	4	2	3	926605	6	4	4	1	0	1050	1	4	0	128	15	0	0	100
fixed	4	2	4	928432	2	1	1	1	0	1117	1	4	0	104	16	0	0	100
fixed	4	2	5	930197	5	3	3	1	0	1122	1	4	0	120	17	0	0	100
fixed	4	2	6	931933	6	4	4	1	0	1088	1	4	0	128	18	0	0	100
fixed	4	2	7	933811	3	1	1	1	0	1225	1	4	0	104	19	0	0	100
fixed	4	2	8	935863	2	3	3	1	0	1242	1	4	0	120	20	0	0	100
fixed	4	2	9	937505	3	2	2	1	0	1093	1	4	0	112	21	0	0	100
fixed	4	2	10	938973	1	4	4	1	0	998	1	4	0	128	22	0	0	100
fixed	4	2	11	940776	5	2	2	1	0	1210	1	4	0	112	23	0	0	100
fixed	4	2	12	942904	4	3	3	1	0	1215	1	4	0	120	24	0	0	100
fixed	4	3	1	944693	4	1	1	1	0	1020	1	4	0	104	25	0	0	100
fixed	4	3	2	946116	1	2	2	1	0	1128	1	4	0	112	26	0	0	100
fixed	4	3	3	948208	6	4	4	1	0	927	1	4	0	128	27	0	0	100
fixed	4	3	4	949690	2	1	1	1	0	1136	1	4	0	104	28	0	0	100
fixed	4	3	5	951533	5	3	3	1	0	1482	1	4	0	120	29	0	0	100
fixed	4	3	6	953914	6	4	4	1	0	1029	1	4	0	128	30	0	0	100
fixed	4	3	7	955298	3	1	1	1	0	1163	1	4	0	104	31	0	0	100
fixed	4	3	8	957133	2	3	3	1	0	1493	1	4	0	120	32	0	0	100
fixed	4	3	9	959635	3	2	2	1	0	1179	1	4	0	112	33	0	0	100
fixed	4	3	10	961105	1	4	4	1	0	957	1	4	0	128	34	0	0	100
fixed	4	3	11	962932	5	2	2	1	0	1256	1	4	0	112	35	0	0	100
fixed	4	3	12	964578	4	3	3	1	0	1562	1	4	0	120	36	0	0	100
fixed	4	4	1	967115	4	1	1	1	0	966	1	4	0	104	37	0	0	100
fixed	4	4	2	968461	1	2	2	1	0	1077	1	4	0	112	38	0	0	100
fixed	4	4	3	970040	6	4	4	1	0	1090	1	4	0	128	39	0	0	100
fixed	4	4	4	971475	2	1	1	1	0	1093	1	4	0	104	40	0	0	100
fixed	4	4	5	972935	5	3	3	1	0	1120	1	4	0	120	41	0	0	100
fixed	4	4	6	974512	6	4	4	1	0	1013	1	4	0	128	42	0	0	100
fixed	4	4	7	975858	3	1	1	1	0	1180	1	4	0	104	43	0	0	100
fixed	4	4	8	977658	2	3	0	1	2	0	3	4	0	120	43	0	1	98
fixed	4	4	9	980829	3	2	0	1	2	0	3	4	0	112	43	0	2	96
fixed	4	4	10	984275	1	4	4	1	0	1151	1	4	0	128	44	0	2	96
fixed	4	4	11	986270	5	2	2	1	0	1619	1	4	0	112	45	0	2	96
fixed	4	4	12	988903	4	3	3	1	0	1331	1	4	0	120	46	0	2	96
fixed	4	5	1	991407	4	1	1	1	0	1017	1	4	0	104	47	0	2	96
fixed	4	5	2	993444	1	2	2	1	0	1323	1	4	0	112	48	0	2	96
fixed	4	5	3	995139	6	4	4	1	0	995	1	4	0	128	49	0	2	96
fixed	4	5	4	996987	2	1	1	1	0	1413	1	4	0	104	50	0	2	96
fixed	4	5	5	998938	5	3	3	1	0	1179	1	4	0	120	51	0	2	96
fixed	4	5	6	1000618	6	4	4	1	0	1131	1	4	0	128	52	0	2	96
fixed	4	5	7	1002284	3	1	1	1	0	1604	1	4	0	104	53	0	2	96
fixed	4	5	8	1004482	2	3	3	2	0	1560	2	4	0	120	54	0	2	96
fixed	4	5	9	1006708	3	2	2	1	0	1514	1	4	0	112	55	0	2	96
fixed	4	5	10	1008580	1	4	4	1	0	994	1	4	0	128	56	0	2	97
fixed	4	5	11	1010360	5	2	2	1	0	1431	1	4	0	112	57	0	2	97
fixed	4	5	12	1012564	4	3	3	1	0	1297	1	4	0	120	58	0	2	97
fixed	4	6	1	1014965	4	1	1	1	0	1011	1	4	0	104	59	0	2	97
fixed	4	6	2	1016411	1	2	2	1	0	1286	1	4	0	112	60	0	2	97
fixed	4	6	3	1018249	6	4	4	1	0	953	1	4	0	128	61	0	2	97
fixed	4	6	4	1020125	2	1	1	1	0	1297	1	4	0	104	62	0	2	97
fixed	4	6	5	1021981	5	3	3	1	0	1034	1	4	0	120	63	0	2	97
fixed	4	6	6	1023427	6	4	4	1	0	1013	1	4	0	128	64	0	2	97
fixed	4	6	7	1025040	3	1	1	1	0	1345	1	4	0	104	65	0	2	97
fixed	4	6	8	1026990	2	3	3	1	0	1206	1	4	0	120	66	0	2	97
fixed	4	6	9	1028792	3	2	2	1	0	1106	1	4	0	112	67	0	2	97
fixed	4	6	10	1030243	1	4	4	1	0	1108	1	4	0	128	68	0	2	97
fixed	4	6	11	1032167	5	2	2	1	0	1771	1	4	0	112	69	0	2	97
fixed	4	6	12	1034656	4	3	3	1	0	1674	1	4	0	120	70	0	2	97
fixed	4	7	1	1037253	4	1	1	1	0	883	1	4	0	104	71	0	2	97
fixed	4	7	2	1039004	1	2	2	1	0	1218	1	4	0	112	72	0	2	97
fixed	4	7	3	1040970	6	4	4	1	0	1150	1	4	0	128	73	0	2	97
fixed	4	7	4	1042687	2	1	1	1	0	1613	1	4	0	104	74	0	2	97
fixed	4	7	5	1045136	5	3	3	1	0	1406	1	4	0	120	75	0	2	97
fixed	4	7	6	1046861	6	4	4	1	0	1068	1	4	0	128	76	0	2	97
fixed	4	7	7	1048922	3	1	1	1	0	1381	1	4	0	104	77	0	2	97
fixed	4	7	8	1050694	2	3	3	1	0	1490	1	4	0	120	78	0	2	98
fixed	4	7	9	1052970	3	2	2	1	0	1242	1	4	0	112	79	0	2	98
fixed	4	7	10	1055127	1	4	4	1	0	1103	1	4	0	128	80	0	2	98
fixed	4	7	11	1057230	5	2	2	1	0	1750	1	4	0	112	81	0	2	98
fixed	4	7	12	1060001	4	3	3	1	0	1392	1	4	0	120	82	0	2	98
fixed	4	8	1	1062265	4	1	1	1	0	1096	1	4	0	104	83	0	2	98
fixed	4	8	2	1064213	1	2	2	1	0	1621	1	4	0	112	84	0	2	98
fixed	4	8	3	1066550	6	4	4	1	0	995	1	4	0	128	85	0	2	98
fixed	4	8	4	1068375	2	1	1	1	0	1390	1	4	0	104	86	0	2	98
fixed	4	8	5	1070089	5	3	3	1	0	1517	1	4	0	120	87	0	2	98
fixed	4	8	6	1072268	6	4	4	1	0	1057	1	4	0	128	88	0	2	98
fixed	4	8	7	1073875	3	1	1	1	0	1092	1	4	0	104	89	0	2	98
fixed	4	8	8	1075413	2	3	3	1	0	1587	1	4	0	120	90	0	2	98
fixed	4	8	9	1077524	3	2	2	1	0	1194	1	4	0	112	91	0	2	98
fixed	4	8	10	1079279	1	4	4	1	0	1000	1	4	0	128	92	0	2	98
fixed	4	8	11	1080623	5	2	0	1	2	0	3	4	0	112	92	0	3	97
fixed	4	8	12	1083427	4	3	3	1	0	1424	1	4	0	120	93	0	3	97
fixed	4	9	1	1085672	4	1	1	1	0	1081	1	4	0	104	94	0	3	97
fixed	4	9	2	1087684	1	2	2	1	0	1204	1	4	0	112	95	0	3	97
fixed	4	9	3	1089870	6	4	4	1	0	959	1	4	0	128	96	0	3	97
fixed	4	9	4	1091498	2	1	1	1	0	1514	1	4	0	104	97	0	3	97
fixed	4	9	5	1093865	5	3	3	1	0	1078	1	4	0	120	98	0	3	97
fixed	4	9	6	1095554	6	4	4	1	0	1366	1	4	0	128	99	0	3	97
fixed	4	9	7	1097910	3	1	1	1	0	986	1	4	0	104	100	0	3	97
fixed	4	9	8	1099898	2	3	3	1	0	1366	1	4	0	120	101	0	3	97
fixed	4	9	9	1101931	3	2	2	1	0	1104	1	4	0	112	102	0	3	97
fixed	4	9	10	1103413	1	4	4	1	0	1065	1	4	0	128	103	0	3	97
fixed	4	9	11	1105210	5	2	2	1	0	1397	1	4	0	112	104	0	3	97
fixed	4	9	12	1107327	4	3	3	1	0	1995	1	4	0	120	105	0	3	97
fixed	4	10	1	1110583	4	1	1	1	0	1121	1	4	0	104	106	0	3	97
fixed	4	10	2	1112204	1	2	2	1	0	1781	1	4	0	112	107	0	3	97
fixed	4	10	3	1114304	6	4	4	1	0	1132	1	4	0	128	108	0	3	97
fixed	4	10	4	1116269	2	1	1	1	0	1681	1	4	0	104	109	0	3	97
fixed	4	10	5	1118796	5	3	3	1	0	1966	1	4	0	120	110	0	3	97
fixed	4	10	6	1121738	6	4	4	1	0	1145	1	4	0	128	111	0	3	97
fixed	4	10	7	1123368	3	1	1	1	0	1132	1	4	0	104	112	0	3	97
fixed	4	10	8	1125073	2	3	3	1	0	1964	1	4	0	120	113	0	3	97
fixed	4	10	9	1127897	3	2	2	1	0	1116	1	4	0	112	114	0	3	97
fixed	4	10	10	1129424	1	4	4	1	0	1404	1	4	0	128	115	0	3	97
fixed	4	10	11	1131663	5	2	2	1	0	1333	1	4	0	112	116	0	3	97
fixed	4	10	12	1133445	4	3	3	1	0	1625	1	4	0	120	117	0	3	98
fixed	5	1	1	1136177	4	1	1	1	0	909	1	4	0	136	1	0	0	100
fixed	5	1	2	1137402	1	2	2	1	0	1698	1	4	0	144	2	0	0	100
fixed	5	1	3	1139782	6	4	4	1	0	981	1	4	0	160	3	0	0	100
fixed	5	1	4	1141463	2	1	1	1	0	1430	1	4	0	136	4	0	0	100
fixed	5	1	5	1143673	5	3	3	1	0	1160	1	4	0	152	5	0	0	100
fixed	5	1	6	1145639	6	4	4	1	0	1045	1	4	0	160	6	0	0	100
fixed	5	1	7	1147466	3	1	1	1	0	1176	1	4	0	136	7	0	0	100
fixed	5	1	8	1149193	2	3	3	1	0	1646	1	4	0	152	8	0	0	100
fixed	5	1	9	1151253	3	2	2	1	0	1023	1	4	0	144	9	0	0	100
fixed	5	1	10	1152746	1	4	4	1	0	888	1	4	0	160	10	0	0	100
fixed	5	1	11	1154472	5	2	2	1	0	1222	1	4	0	144	11	0	0	100
fixed	5	1	12	1156297	4	3	3	1	0	1193	1	4	0	152	12	0	0	100
fixed	5	2	1	1158651	4	1	1	1	0	981	1	4	0	136	13	0	0	100
fixed	5	2	2	1160403	1	2	2	1	0	1739	1	4	0	144	14	0	0	100
fixed	5	2	3	1162487	6	4	4	1	0	1075	1	4	0	160	15	0	0	100
fixed	5	2	4	1164561	2	1	1	1	0	1164	1	4	0	136	16	0	0	100
fixed	5	2	5	1166614	5	3	3	1	0	1117	1	4	0	152	17	0	0	100
fixed	5	2	6	1168403	6	4	4	1	0	969	1	4	0	160	18	0	0	100
fixed	5	2	7	1170100	3	1	1	1	0	1081	1	4	0	136	19	0	0	100
fixed	5	2	8	1172001	2	3	3	1	0	1248	1	4	0	152	20	0	0	100
fixed	5	2	9	1173690	3	2	2	1	0	1049	1	4	0	144	21	0	0	100
fixed	5	2	10	1175502	1	4	4	1	0	940	1	4	0	160	22	0	0	100
fixed	5	2	11	1176798	5	2	2	1	0	1301	1	4	0	144	23	0	0	100
fixed	5	2	12	1179095	4	3	3	1	0	1044	1	4	0	152	24	0	0	100
fixed	5	3	1	1181307	4	1	1	1	0	1286	1	4	0	136	25	0	0	100
fixed	5	3	2	1183115	1	2	2	1	0	1369	1	4	0	144	26	0	0	100
fixed	5	3	3	1185528	6	4	4	1	0	924	1	4	0	160	27	0	0	100
fixed	5	3	4	1187420	2	1	1	1	0	1403	1	4	0	136	28	0	0	100
fixed	5	3	5	1189226	5	3	3	1	0	1814	1	4	0	152	29	0	0	100
fixed	5	3	6	1191576	6	4	4	1	0	1051	1	4	0	160	30	0	0	100
fixed	5	3	7	1193311	3	1	1	1	0	954	1	4	0	136	31	0	0	100
fixed	5	3	8	1195092	2	3	3	1	0	1542	1	4	0	152	32	0	0	100
fixed	5	3	9	1197402	3	2	2	1	0	1308	1	4	0	144	33	0	0	100
fixed	5	3	10	1199119	1	4	4	1	0	1067	1	4	0	160	34	0	0	100
fixed	5	3	11	1201122	5	2	2	1	0	1247	1	4	0	144	35	0	0	100
fixed	5	3	12	1202783	4	3	0	0	2	0	3	4	0	152	35	0	1	97
fixed	5	4	1	1206151	4	1	1	1	0	1226	1	4	0	136	36	0	1	97
fixed	5	4	2	1208366	1	2	2	1	0	1076	1	4	0	144	37	0	1	97
fixed	5	4	3	1209730	6	4	4	1	0	1122	1	4	0	160	38	0	1	97
fixed	5	4	4	1211625	2	1	1	1	0	1202	1	4	0	136	39	0	1	98
fixed	5	4	5	1213116	5	3	3	1	0	1234	1	4	0	152	40	0	1	98
fixed	5	4	6	1215123	6	4	4	1	0	1174	1	4	0	160	41	0	1	98
fixed	5	4	7	1217009	3	1	1	1	0	1358	1	4	0	136	42	0	1	98
fixed	5	4	8	1218762	2	3	3	1	0	1628	1	4	0	152	43	0	1	98
fixed	5	4	9	1221277	3	2	2	1	0	993	1	4	0	144	44	0	1	98
fixed	5	4	10	1222759	1	4	4	1	0	1034	1	4	0	160	45	0	1	98
fixed	5	4	11	1224495	5	2	2	1	0	1785	1	4	0	144	46	0	1	98
fixed	5	4	12	1226579	4	3	3	1	0	1241	1	4	0	152	47	0	1	98
fixed	5	5	1	1228974	4	1	1	1	0	1115	1	4	0	136	48	0	1	98
fixed	5	5	2	1230803	1	2	2	1	0	1214	1	4	0	144	49	0	1	98
fixed	5	5	3	1232834	6	4	4	1	0	1175	1	4	0	160	50	0	1	98
fixed	5	5	4	1234390	2	1	1	1	0	1318	1	4	0	136	51	0	1	98
fixed	5	5	5	1236414	5	3	3	1	0	1544	1	4	0	152	52	0	1	98
fixed	5	5	6	1238324	6	4	4	1	0	1231	1	4	0	160	53	0	1	98
fixed	5	5	7	1240339	3	1	1	1	0	1466	1	4	0	136	54	0	1	98
fixed	5	5	8	1242214	2	3	3	1	0	1554	1	4	0	152	55	0	1	98
fixed	5	5	9	1244202	3	2	2	1	0	1062	1	4	0	144	56	0	1	98
fixed	5	5	10	1245878	1	4	4	1	0	863	1	4	0	160	57	0	1	98
fixed	5	5	11	1247544	5	2	2	1	0	1233	1	4	0	144	58	0	1	98
fixed	5	5	12	1249223	4	3	0	1	2	0	3	4	0	152	58	0	2	97
fixed	5	6	1	1252799	4	1	1	1	0	1258	1	4	0	136	59	0	2	97
fixed	5	6	2	1254566	1	2	2	1	0	1423	1	4	0	144	60	0	2	97
fixed	5	6	3	1256643	6	4	4	1	0	1191	1	4	0	160	61	0	2	97
fixed	5	6	4	1258443	2	1	1	1	0	1331	1	4	0	136	62	0	2	97
fixed	5	6	5	1260570	5	3	3	1	0	1137	1	4	0	152	63	0	2	97
fixed	5	6	6	1262593	6	4	4	1	0	1139	1	4	0	160	64	0	2	97
fixed	5	6	7	1264117	3	1	1	1	0	1163	1	4	0	136	65	0	2	97
fixed	5	6	8	1265744	2	3	3	1	0	1694	1	4	0	152	66	0	2	97
fixed	5	6	9	1268137	3	2	2	1	0	1208	1	4	0	144	67	0	2	97
fixed	5	6	10	1269960	1	4	4	1	0	947	1	4	0	160	68	0	2	97
fixed	5	6	11	1271720	5	2	2	1	0	1281	1	4	0	144	69	0	2	97
fixed	5	6	12	1273797	4	3	3	1	0	1224	1	4	0	152	70	0	2	97
fixed	5	7	1	1276323	4	1	1	1	0	965	1	4	0	136	71	0	2	97
fixed	5	7	2	1278301	1	2	2	1	0	1426	1	4	0	144	72	0	2	97
fixed	5	7	3	1280390	6	4	4	1	0	1089	1	4	0	160	73	0	2	97
fixed	5	7	4	1282213	2	1	1	1	0	1244	1	4	0	136	74	0	2	97
fixed	5	7	5	1283964	5	3	3	1	0	2258	1	4	0	152	75	0	2	97
fixed	5	7	6	1286940	6	4	4	1	0	1116	1	4	0	160	76	0	2	97
fixed	5	7	7	1288604	3	1	1	1	0	1021	1	4	0	136	77	0	2	97
fixed	5	7	8	1290353	2	3	3	1	0	1332	1	4	0	152	78	0	2	98
fixed	5	7	9	1292175	3	2	2	1	0	1119	1	4	0	144	79	0	2	98
fixed	5	7	10	1293894	1	4	4	1	0	1334	1	4	0	160	80	0	2	98
fixed	5	7	11	1295779	5	2	2	1	0	1670	1	4	0	144	81	0	2	98
fixed	5	7	12	1298446	4	3	3	1	0	1708	1	4	0	152	82	0	2	98
fixed	5	8	1	1301168	4	1	1	1	0	1137	1	4	0	136	83	0	2	98
fixed	5	8	2	1302790	1	2	2	1	0	1852	1	4	0	144	84	0	2	98
fixed	5	8	3	1305661	6	4	4	1	0	947	1	4	0	160	85	0	2	98
fixed	5	8	4	1306999	2	1	1	1	0	1258	1	4	0	136	86	0	2	98
fixed	5	8	5	1308633	5	3	3	1	0	1197	1	4	0	152	87	0	2	98
fixed	5	8	6	1310856	6	4	4	1	0	975	1	4	0	160	88	0	2	98
fixed	5	8	7	1312737	3	1	1	1	0	1415	1	4	0	136	89	0	2	98
fixed	5	8	8	1314629	2	3	3	1	0	1311	1	4	0	152	90	0	2	98
fixed	5	8	9	1316782	3	2	2	1	0	1020	1	4	0	144	91	0	2	98
fixed	5	8	10	1318222	1	4	4	1	0	1007	1	4	0	160	92	0	2	98
fixed	5	8	11	1320075	5	2	0	1	2	0	3	4	0	144	92	0	3	97
fixed	5	8	12	1323134	4	3	3	1	0	1911	1	4	0	152	93	0	3	97
fixed	5	9	1	1326029	4	1	1	1	0	964	1	4	0	136	94	0	3	97
fixed	5	9	2	1327789	1	2	2	1	0	1570	1	4	0	144	95	0	3	97
fixed	5	9	3	1329647	6	4	4	1	0	1379	1	4	0	160	96	0	3	97
fixed	5	9	4	1331976	2	1	1	1	0	1160	1	4	0	136	97	0	3	97
fixed	5	9	5	1333603	5	3	3	1	0	1876	1	4	0	152	98	0	3	97
fixed	5	9	6	1335874	6	4	4	1	0	1059	1	4	0	160	99	0	3	97
fixed	5	9	7	1337711	3	1	1	1	0	1078	1	4	0	136	100	0	3	97
fixed	5	9	8	1339185	2	3	3	1	0	1639	1	4	0	152	101	0	3	97
fixed	5	9	9	1341298	3	2	2	1	0	1221	1	4	0	144	102	0	3	97
fixed	5	9	10	1343230	1	4	4	1	0	988	1	4	0	160	103	0	3	97
fixed	5	9	11	1345001	5	2	2	1	0	2025	1	4	0	144	104	0	3	97
fixed	5	9	12	1347878	4	3	3	1	0	1303	1	4	0	152	105	0	3	97
fixed	5	10	1	1350472	4	1	1	1	0	1017	1	4	0	136	106	0	3	97
fixed	5	10	2	1352438	1	2	2	1	0	1422	1	4	0	144	107	0	3	97
fixed	5	10	3	1354861	6	4	4	1	0	1183	1	4	0	160	108	0	3	97
fixed	5	10	4	1356963	2	1	1	1	0	1150	1	4	0	136	109	0	3	97
fixed	5	10	5	1358965	5	3	3	1	0	1097	1	4	0	152	110	0	3	97
fixed	5	10	6	1360461	6	4	4	1	0	1378	1	4	0	160	111	0	3	97
fixed	5	10	7	1362254	3	1	1	1	0	1086	1	4	0	136	112	0	3	97
fixed	5	10	8	1364113	2	3	3	1	0	1295	1	4	0	152	113	0	3	97
fixed	5	10	9	1365955	3	2	2	1	0	1098	1	4	0	144	114	0	3	97
fixed	5	10	10	1367506	1	4	4	1	0	1040	1	4	0	160	115	0	3	97
fixed	5	10	11	1369562	5	2	2	1	0	1129	1	4	0	144	116	0	3	97
fixed	5	10	12	1371696	4	3	3	1	0	1150	1	4	0	152	117	0	3	98
random	6	1	1	1464232	6	1	1	1	0	1686	1	4	0	168	1	0	0	100
random	6	1	2	1466618	4	4	4	1	0	1106	1	4	0	192	2	0	0	100
random	6	1	3	1468561	2	2	2	1	0	1111	1	4	0	176	3	0	0	100
random	6	1	4	1470156	3	3	3	1	0	1156	1	4	0	184	4	0	0	100
random	6	1	5	1471669	5	2	2	1	0	1252	1	4	0	176	5	0	0	100
random	6	1	6	1473940	1	4	4	1	0	915	1	4	0	192	6	0	0	100
random	6	1	7	1475847	6	1	1	1	0	1243	1	4	0	168	7	0	0	100
random	6	1	8	1477805	2	3	3	1	0	1256	1	4	0	184	8	0	0	100
random	6	1	9	1479683	4	2	2	1	0	944	1	4	0	176	9	0	0	100
random	6	1	10	1481272	1	1	1	1	0	1173	1	4	0	168	10	0	0	100
random	6	1	11	1483457	5	4	4	1	0	1009	1	4	0	192	11	0	0	100
random	6	1	12	1484945	3	3	3	1	0	1346	1	4	0	184	12	0	0	100
random	6	1	13	1487191	5	2	2	1	0	1162	1	4	0	176	13	0	0	100
random	6	1	14	1489084	1	4	4	1	0	1018	1	4	0	192	14	0	0	100
random	6	1	15	1490745	3	1	1	1	0	1516	1	4	0	168	15	0	0	100
random	6	1	16	1493057	4	3	3	1	0	1410	1	4	0	184	16	0	0	100
random	6	1	17	1495184	6	4	4	1	0	1064	1	4	0	192	17	0	0	100
random	6	1	18	1496664	2	1	1	1	0	1369	1	4	0	168	18	0	0	100
random	6	1	19	1498486	5	3	3	1	0	2036	1	4	0	184	19	0	0	100
random	6	1	20	1501305	2	2	2	1	0	1069	1	4	0	176	20	0	0	100
random	6	1	21	1502887	3	3	3	1	0	1154	1	4	0	184	21	0	0	100
random	6	1	22	1504485	6	1	1	1	0	1166	1	4	0	168	22	0	0	100
random	6	1	23	1506257	4	2	2	1	0	1331	1	4	0	176	23	0	0	100
random	6	1	24	1508215	1	4	4	1	0	1064	1	4	0	192	24	0	0	100
random	6	1	25	1510013	4	3	3	1	0	1411	1	4	0	184	25	0	0	100
random	6	1	26	1512439	2	1	1	1	0	1309	1	4	0	168	26	0	0	100
random	6	1	27	1514337	5	2	2	1	0	1149	1	4	0	176	27	0	0	100
random	6	1	28	1516255	6	4	4	1	0	876	1	4	0	192	28	0	0	100
random	6	1	29	1517614	1	3	3	1	0	1441	1	4	0	184	29	0	0	100
random	6	1	30	1519719	5	2	2	1	0	1016	1	4	0	176	30	0	0	100
random	6	1	31	1521488	2	1	1	1	0	1110	1	4	0	168	31	0	0	100
random	6	1	32	1523056	3	3	3	1	0	1460	1	4	0	184	32	0	0	100
random	6	1	33	1525428	6	4	4	1	0	951	1	4	0	192	33	0	0	100
random	6	1	34	1527215	4	2	2	1	0	1123	1	4	0	176	34	0	0	100
random	6	1	35	1528969	3	4	4	1	0	969	1	4	0	192	35	0	0	100
random	6	1	36	1530779	1	1	1	1	0	1540	1	4	0	168	36	0	0	100
random	6	1	37	1533387	3	4	4	1	0	1109	1	4	0	192	37	0	0	100
random	6	1	38	1534870	5	3	3	1	0	1423	1	4	0	184	38	0	0	100
random	6	1	39	1537245	6	1	1	1	0	994	1	4	0	168	39	0	0	100
random	6	1	40	1538884	1	2	2	1	0	1333	1	4	0	176	40	0	0	100
random	6	1	41	1540681	2	3	3	1	0	1257	1	4	0	184	41	0	0	100
random	6	1	42	1542813	4	4	4	1	0	1006	1	4	0	192	42	0	0	100
random	6	1	43	1544367	1	2	2	1	0	1941	1	4	0	176	43	0	0	100
random	6	1	44	1546788	6	3	0	0	2	0	3	4	0	184	43	0	1	98
random	6	1	45	1549842	3	1	1	1	0	1108	1	4	0	168	44	0	1	98
random	6	1	46	1551299	4	4	4	1	0	1127	1	4	0	192	45	0	1	98
random	6	1	47	1553067	2	2	2	1	0	1140	1	4	0	176	46	0	1	98
random	6	1	48	1555051	5	1	1	1	0	1528	1	4	0	168	47	0	1	98
random	6	1	49	1557430	2	3	3	1	0	1179	1	4	0	184	48	0	1	98
random	6	1	50	1559155	3	1	1	1	0	1034	1	4	0	168	49	0	1	98
random	6	1	51	1560772	1	4	4	1	0	1126	1	4	0	192	50	0	1	98
random	6	1	52	1562701	5	3	0	1	2	0	3	4	0	184	50	0	2	96
random	6	1	53	1566055	3	2	2	1	0	1078	1	4	0	176	51	0	2	96
random	6	1	54	1567988	6	4	4	1	0	972	1	4	0	192	52	0	2	96
random	6	1	55	1569532	4	2	2	1	0	1475	1	4	0	176	53	0	2	96
random	6	1	56	1571563	1	1	1	1	0	1388	1	4	0	168	54	0	2	96
random	6	1	57	1573399	5	4	4	1	0	1039	1	4	0	192	55	0	2	96
random	6	1	58	1575462	2	1	1	1	0	1335	1	4	0	168	56	0	2	97
random	6	1	59	1577560	6	2	2	1	0	1222	1	4	0	176	57	0	2	97
random	6	1	60	1579401	4	3	3	1	0	1025	1	4	0	184	58	0	2	97
random	6	1	61	1581555	1	2	2	1	0	1357	1	4	0	176	59	0	2	97
random	6	1	62	1583510	6	4	4	1	0	882	1	4	0	192	60	0	2	97
random	6	1	63	1584986	4	1	1	1	0	1172	1	4	0	168	61	0	2	97
random	6	1	64	1587119	2	2	2	1	0	1122	1	4	0	176	62	0	2	97
random	6	1	65	1589237	4	3	3	1	0	1368	1	4	0	184	63	0	2	97
random	6	1	66	1591386	3	1	1	1	0	1077	1	4	0	168	64	0	2	97
random	6	1	67	1593262	1	3	3	1	0	1398	1	4	0	184	65	0	2	97
random	6	1	68	1595064	5	4	4	1	0	1177	1	4	0	192	66	0	2	97
random	6	1	69	1597012	2	2	2	1	0	1943	1	4	0	176	67	0	2	97
random	6	1	70	1599596	3	1	1	1	0	1210	1	4	0	168	68	0	2	97
random	6	1	71	1601095	5	4	4	1	0	1162	1	4	0	192	69	0	2	97
random	6	1	72	1602935	6	3	3	1	0	1844	1	4	0	184	70	0	2	97
random	6	1	73	1605715	2	1	1	1	0	1078	1	4	0	168	71	0	2	97
random	6	1	74	1607644	5	3	3	1	0	1221	1	4	0	184	72	0	2	97
random	6	1	75	1609757	1	4	4	1	0	931	1	4	0	192	73	0	2	97
random	6	1	76	1611546	6	2	2	1	0	1087	1	4	0	176	74	0	2	97
random	6	1	77	1613026	2	1	1	1	0	1545	1	4	0	168	75	0	2	97
random	6	1	78	1615197	4	4	4	1	0	1165	1	4	0	192	76	0	2	97
random	6	1	79	1616681	3	2	2	1	0	1502	1	4	0	176	77	0	2	97
random	6	1	80	1618646	4	3	3	1	0	1090	1	4	0	184	78	0	2	98
random	6	1	81	1620261	1	4	4	1	0	1510	1	4	0	192	79	0	2	98
random	6	1	82	1622426	5	1	1	1	0	978	1	4	0	168	80	0	2	98
random	6	1	83	1623853	3	2	2	1	0	1246	1	4	0	176	81	0	2	98
random	6	1	84	1625512	6	3	3	1	0	1223	1	4	0	184	82	0	2	98
random	6	1	85	1627518	3	2	2	1	0	1315	1	4	0	176	83	0	2	98
random	6	1	86	1629259	1	3	3	1	0	1505	1	4	0	184	84	0	2	98
random	6	1	87	1631620	4	4	4	1	0	1301	1	4	0	192	85	0	2	98
random	6	1	88	1633491	2	1	1	1	0	1206	1	4	0	168	86	0	2	98
random	6	1	89	1635104	6	4	4	1	0	1105	1	4	0	192	87	0	2	98
random	6	1	90	1636517	3	3	3	1	0	1430	1	4	0	184	88	0	2	98
random	6	1	91	1638772	5	4	4	1	0	1238	1	4	0	192	89	0	2	98
random	6	1	92	1640974	1	2	2	1	0	1217	1	4	0	176	90	0	2	98
random	6	1	93	1643072	5	1	1	1	0	1248	1	4	0	168	91	0	2	98
random	6	1	94	1645134	4	3	3	1	0	1121	1	4	0	184	92	0	2	98
random	6	1	95	1647015	6	1	1	1	0	1369	1	4	0	168	93	0	2	98
random	6	1	96	1649304	2	2	2	1	0	1304	1	4	0	176	94	0	2	98
random	6	1	97	1651360	4	3	3	1	0	1513	1	4	0	184	95	0	2	98
random	6	1	98	1653539	3	2	2	1	0	1221	1	4	0	176	96	0	2	98
random	6	1	99	1655269	6	3	3	1	0	1179	1	4	0	184	97	0	2	98
random	6	1	100	1657234	1	4	4	1	0	984	1	4	0	192	98	0	2	98
random	6	1	101	1659196	4	1	1	1	0	1061	1	4	0	168	99	0	2	98
random	6	1	102	1661260	5	2	0	1	2	0	3	4	0	176	99	0	3	97
random	6	1	103	1664780	2	4	4	1	0	1312	1	4	0	192	100	0	3	97
random	6	1	104	1666425	3	1	1	1	0	1907	1	4	0	168	101	0	3	97
random	6	1	105	1668715	1	3	3	1	0	2074	1	4	0	184	102	0	3	97
random	6	1	106	1671549	2	2	2	1	0	1386	1	4	0	176	103	0	3	97
random	6	1	107	1673258	5	4	4	1	0	1434	1	4	0	192	104	0	3	97
random	6	1	108	1675106	6	1	1	1	0	1339	1	4	0	168	105	0	3	97
random	6	1	109	1677407	5	4	4	1	0	1057	1	4	0	192	106	0	3	97
random	6	1	110	1679007	6	3	3	1	0	2014	1	4	0	184	107	0	3	97
random	6	1	111	1681365	2	2	2	1	0	1322	1	4	0	176	108	0	3	97
random	6	1	112	1683692	3	1	1	1	0	1047	1	4	0	168	109	0	3	97
random	6	1	113	1685093	1	2	2	1	0	1436	1	4	0	176	110	0	3	97
random	6	1	114	1687533	2	3	3	1	0	1277	1	4	0	184	111	0	3	97
random	6	1	115	1689403	3	1	1	1	0	1061	1	4	0	168	112	0	3	97
random	6	1	116	1690912	4	4	4	1	0	1094	1	4	0	192	113	0	3	97
random	6	1	117	1692485	6	1	1	1	0	1291	1	4	0	168	114	0	3	97
random	6	1	118	1694078	5	3	3	1	0	1320	1	4	0	184	115	0	3	97
random	6	1	119	1695768	1	4	4	1	0	1344	1	4	0	192	116	0	3	97
random	6	1	120	1697651	4	2	2	1	0	1264	1	4	0	176	117	0	3	98
fixed	7	1	1	1700445	4	1	1	1	0	1242	1	4	0	200	1	0	0	100
fixed	7	1	2	1702657	1	2	2	1	0	1012	1	4	0	208	2	0	0	100
fixed	7	1	3	1704664	6	4	4	1	0	1063	1	4	0	224	3	0	0	100
fixed	7	1	4	1706638	2	1	1	1	0	1108	1	4	0	200	4	0	0	100
fixed	7	1	5	1708562	5	3	3	1	0	1274	1	4	0	216	5	0	0	100
fixed	7	1	6	1710426	6	4	4	1	0	1139	1	4	0	224	6	0	0	100
fixed	7	1	7	1711889	3	1	1	1	0	1157	1	4	0	200	7	0	0	100
fixed	7	1	8	1713564	2	3	3	1	0	1718	1	4	0	216	8	0	0	100
fixed	7	1	9	1715932	3	2	2	1	0	970	1	4	0	208	9	0	0	100
fixed	7	1	10	1717270	1	4	4	1	0	1249	1	4	0	224	10	0	0	100
fixed	7	1	11	1719224	5	2	2	1	0	1302	1	4	0	208	11	0	0	100
fixed	7	1	12	1721487	4	3	3	1	0	1327	1	4	0	216	12	0	0	100
fixed	7	2	1	1723921	4	1	1	1	0	1007	1	4	0	200	1	0	0	8
fixed	7	2	2	1725864	1	2	2	1	0	1741	1	4	0	208	2	0	0	14
fixed	7	2	3	1728483	6	4	4	1	0	1078	1	4	0	224	3	0	0	20
fixed	7	2	4	1730515	2	1	1	1	0	1025	1	4	0	200	4	0	0	25
fixed	7	2	5	1732558	5	3	3	1	0	1241	1	4	0	216	5	0	0	29
fixed	7	2	6	1734636	6	4	4	1	0	1058	1	4	0	224	6	0	0	33
fixed	7	2	7	1736465	3	1	1	1	0	1077	1	4	0	200	7	0	0	37
fixed	7	2	8	1738092	2	3	0	0	2	0	3	4	0	216	7	0	1	35
fixed	7	2	9	1741490	3	2	2	1	0	1240	1	4	0	208	8	0	1	38
fixed	7	2	10	1743338	1	4	4	1	0	1081	1	4	0	224	9	0	1	41
fixed	7	2	11	1745010	5	2	2	1	0	1578	1	4	0	208	10	0	1	43
fixed	7	2	12	1747429	4	3	3	1	0	1316	1	4	0	216	11	0	1	46
fixed	7	3	1	1749868	4	1	1	1	0	852	1	4	0	200	1	0	0	4
fixed	7	3	2	1751553	1	2	2	1	0	1453	1	4	0	208	2	0	0	8
fixed	7	3	3	1753585	6	4	4	1	0	1127	1	4	0	224	3	0	0	11
fixed	7	3	4	1755053	2	1	1	1	0	1537	1	4	0	200	4	0	0	14
fixed	7	3	5	1757601	5	3	3	1	0	1365	1	4	0	216	5	0	0	17
fixed	7	3	6	1759627	6	4	4	1	0	1663	1	4	0	224	6	0	0	20
fixed	7	3	7	1762272	3	1	1	1	0	1031	1	4	0	200	7	0	0	23
fixed	7	3	8	1764229	2	3	3	1	0	1260	1	4	0	216	8	0	0	25
fixed	7	3	9	1766167	3	2	2	1	0	1738	1	4	0	208	9	0	0	27
fixed	7	3	10	1768855	1	4	4	1	0	944	1	4	0	224	10	0	0	29
fixed	7	3	11	1770766	5	2	2	1	0	1160	1	4	0	208	11	0	0	31
fixed	7	3	12	1772437	4	3	3	1	0	1224	1	4	0	216	12	0	0	33
fixed	7	4	1	1774779	4	1	1	1	0	1013	1	4	0	200	1	0	0	3
fixed	7	4	2	1776407	1	2	0	1	2	0	3	4	0	208	1	0	1	3
fixed	7	4	3	1779724	6	4	4	1	0	1188	1	4	0	224	2	0	1	5
fixed	7	4	4	1781770	2	1	1	1	0	1069	1	4	0	200	3	0	1	8
fixed	7	4	5	1783593	5	3	3	1	0	1384	1	4	0	216	4	0	1	10
fixed	7	4	6	1785836	6	4	4	1	0	1057	1	4	0	224	5	0	1	12
fixed	7	4	7	1787797	3	1	1	1	0	1038	1	4	0	200	6	0	1	14
fixed	7	4	8	1789800	2	3	3	1	0	1249	1	4	0	216	7	0	1	16
fixed	7	4	9	1791710	3	2	2	1	0	1024	1	4	0	208	8	0	1	18
fixed	7	4	10	1793368	1	4	4	1	0	1002	1	4	0	224	9	0	1	20
fixed	7	4	11	1794917	5	2	2	1	0	1304	1	4	0	208	10	0	1	21
fixed	7	4	12	1796635	4	3	3	1	0	1504	1	4	0	216	11	0	1	23
fixed	7	5	1	1798855	4	1	1	1	0	1049	1	4	0	200	1	0	0	2
fixed	7	5	2	1800713	1	2	2	1	0	1147	1	4	0	208	2	0	0	4
fixed	7	5	3	1802434	6	4	4	1	0	1026	1	4	0	224	3	0	0	6
fixed	7	5	4	1803896	2	1	1	1	0	1308	1	4	0	200	4	0	0	8
fixed	7	5	5	1805895	5	3	3	1	0	1176	1	4	0	216	5	0	0	9
fixed	7	5	6	1807570	6	4	4	1	0	1329	1	4	0	224	6	0	0	11
fixed	7	5	7	1809431	3	1	1	1	0	1042	1	4	0	200	7	0	0	13
fixed	7	5	8	1810977	2	3	3	1	0	1344	1	4	0	216	8	0	0	14
fixed	7	5	9	1813014	3	2	2	1	0	866	1	4	0	208	9	0	0	16
fixed	7	5	10	1814908	1	4	4	1	0	978	1	4	0	224	10	0	0	17
fixed	7	5	11	1816610	5	2	0	1	2	0	3	4	0	208	10	0	1	17
fixed	7	5	12	1819628	4	3	3	1	0	1154	1	4	0	216	11	0	1	18
fixed	7	6	1	1821361	4	1	1	1	0	1008	1	4	0	200	1	0	0	2
fixed	7	6	2	1823185	1	2	2	1	0	1323	1	4	0	208	2	0	0	3
fixed	7	6	3	1825540	6	4	4	1	0	975	1	4	0	224	3	0	0	5
fixed	7	6	4	1827048	2	1	1	1	0	1560	1	4	0	200	4	0	0	6
fixed	7	6	5	1829374	5	3	3	1	0	1365	1	4	0	216	5	0	0	8
fixed	7	6	6	1831081	6	4	4	1	0	1485	1	4	0	224	6	0	0	9
fixed	7	6	7	1833555	3	1	1	1	0	844	1	4	0	200	7	0	0	10
fixed	7	6	8	1834907	2	3	3	1	0	2019	1	4	0	216	8	0	0	12
fixed	7	6	9	1837776	3	2	2	1	0	1097	1	4	0	208	9	0	0	13
fixed	7	6	10	1839159	1	4	4	1	0	1151	1	4	0	224	10	0	0	14
fixed	7	6	11	1840601	5	2	2	1	0	1346	1	4	0	208	11	0	0	15
fixed	7	6	12	1842860	4	3	3	1	0	1170	1	4	0	216	12	0	0	17
fixed	7	7	1	1845303	4	1	1	1	0	930	1	4	0	200	1	0	0	1
fixed	7	7	2	1846804	1	2	2	1	0	1339	1	4	0	208	2	0	0	3
fixed	7	7	3	1848904	6	4	4	1	0	1202	1	4	0	224	3	0	0	4
fixed	7	7	4	1850425	2	1	1	1	0	1642	1	4	0	200	4	0	0	5
fixed	7	7	5	1852551	5	3	3	1	0	1231	1	4	0	216	5	0	0	6
fixed	7	7	6	1854735	6	4	4	1	0	971	1	4	0	224	6	0	0	8
fixed	7	7	7	1856240	3	1	1	1	0	1347	1	4	0	200	7	0	0	9
fixed	7	7	8	1857899	2	3	3	1	0	1365	1	4	0	216	8	0	0	10
fixed	7	7	9	1859680	3	2	2	1	0	1570	1	4	0	208	9	0	0	11
fixed	7	7	10	1861559	1	4	4	1	0	1378	1	4	0	224	10	0	0	12
fixed	7	7	11	1863689	5	2	2	1	0	1672	1	4	0	208	11	0	0	13
fixed	7	7	12	1865953	4	3	3	1	0	1232	1	4	0	216	12	0	0	14
fixed	7	8	1	1867808	4	1	1	1	0	1025	1	4	0	200	1	0	0	1
fixed	7	8	2	1869423	1	2	2	1	0	1477	1	4	0	208	2	0	0	2
fixed	7	8	3	1871343	6	4	4	1	0	1132	1	4	0	224	3	0	0	3
fixed	7	8	4	1872866	2	1	1	1	0	1507	1	4	0	200	4	0	0	5
fixed	7	8	5	1875065	5	3	3	1	0	1686	1	4	0	216	5	0	0	6
fixed	7	8	6	1877197	6	4	4	1	0	1075	1	4	0	224	6	0	0	7
fixed	7	8	7	1878784	3	1	1	1	0	976	1	4	0	200	7	0	0	8
fixed	7	8	8	1880774	2	3	3	1	0	1364	1	4	0	216	8	0	0	9
fixed	7	8	9	1882915	3	2	2	1	0	1145	1	4	0	208	9	0	0	10
fixed	7	8	10	1884615	1	4	4	1	0	1113	1	4	0	224	10	0	0	11
fixed	7	8	11	1886477	5	2	2	1	0	1187	1	4	0	208	11	0	0	12
fixed	7	8	12	1888075	4	3	3	1	0	1711	1	4	0	216	12	0	0	13
fixed	7	9	1	1890564	4	1	1	1	0	1381	1	4	0	200	1	0	0	1
fixed	7	9	2	1892310	1	2	2	1	0	1244	1	4	0	208	2	0	0	2
fixed	7	9	3	1894461	6	4	4	1	0	976	1	4	0	224	3	0	0	3
fixed	7	9	4	1896423	2	1	1	1	0	1349	1	4	0	200	4	0	0	4
fixed	7	9	5	1898579	5	3	3	1	0	1250	1	4	0	216	5	0	0	5
fixed	7	9	6	1900219	6	4	4	1	0	1012	1	4	0	224	6	0	0	6
fixed	7	9	7	1901544	3	1	1	1	0	996	1	4	0	200	7	0	0	7
fixed	7	9	8	1902842	2	3	3	1	0	1101	1	4	0	216	8	0	0	8
fixed	7	9	9	1904585	3	2	2	1	0	1027	1	4	0	208	9	0	0	9
fixed	7	9	10	1906364	1	4	4	1	0	928	1	4	0	224	10	0	0	9
fixed	7	9	11	1907615	5	2	2	1	0	1099	1	4	0	208	11	0	0	10
fixed	7	9	12	1909391	4	3	3	1	0	1016	1	4	0	216	12	0	0	11
fixed	7	10	1	1911365	4	1	1	1	0	940	1	4	0	200	1	0	0	1
fixed	7	10	2	1912611	1	2	2	1	0	1392	1	4	0	208	2	0	0	2
fixed	7	10	3	1914707	6	4	4	1	0	887	1	4	0	224	3	0	0	3
fixed	7	10	4	1916276	2	1	1	1	0	1140	1	4	0	200	4	0	0	4
fixed	7	10	5	1918333	5	3	3	1	0	1197	1	4	0	216	5	0	0	4
fixed	7	10	6	1920484	6	4	4	1	0	1034	1	4	0	224	6	0	0	5
fixed	7	10	7	1921851	3	1	1	1	0	1544	1	4	0	200	7	0	0	6
fixed	7	10	8	1923908	2	3	3	1	0	1209	1	4	0	216	8	0	0	7
fixed	7	10	9	1925976	3	2	2	1	0	1002	1	4	0	208	9	0	0	8
fixed	7	10	10	1927859	1	4	4	1	0	882	1	4	0	224	10	0	0	8
fixed	7	10	11	1929378	5	2	2	1	0	1385	1	4	0	208	11	0	0	9
fixed	7	10	12	1931748	4	3	3	2	0	1237	2	4	0	216	12	0	0	10
