type	block	sequ.	trial	time	Pos.	Color	Button	NumRsp	Resp_1	RT_1	R_Code	Resp_2	RT_2	Trigg.	n_hit	n_inc	n_miss	score_%

random	1	1	1	1779	6	1	1	1	0	1243	1	4	0	8	1	0	0	100
random	1	1	2	3735	4	4	4	1	0	1040	1	4	0	32	2	0	0	100
random	1	1	3	5378	2	2	2	1	0	2051	1	4	0	16	3	0	0	100
random	1	1	4	8112	3	3	3	1	0	1199	1	4	0	24	4	0	0	100
random	1	1	5	9762	5	2	2	1	0	1178	1	4	0	16	5	0	0	100
random	1	1	6	11372	1	4	4	1	0	1037	1	4	0	32	6	0	0	100
random	1	1	7	13038	6	1	1	1	0	1215	1	4	0	8	7	0	0	100
random	1	1	8	14945	2	3	3	1	0	1261	1	4	0	24	8	0	0	100
random	1	1	9	16507	4	2	2	1	0	1052	1	4	0	16	9	0	0	100
random	1	1	10	18436	1	1	1	1	0	1098	1	4	0	8	10	0	0	100
random	1	1	11	20351	5	4	4	1	0	945	1	4	0	32	11	0	0	100
random	1	1	12	22190	3	3	3	1	0	1267	1	4	0	24	12	0	0	100
random	1	1	13	24152	5	2	2	1	0	1096	1	4	0	16	13	0	0	100
random	1	1	14	25699	1	4	4	1	0	918	1	4	0	32	14	0	0	100
random	1	1	15	27561	3	1	1	1	0	775	1	4	0	8	15	0	0	100
random	1	1	16	29041	4	3	3	1	0	977	1	4	0	24	16	0	0	100
random	1	1	17	30337	6	4	4	1	0	882	1	4	0	32	17	0	0	100
random	1	1	18	32251	2	1	1	1	0	793	1	4	0	8	18	0	0	100
random	1	1	19	33621	5	3	3	1	0	943	1	4	0	24	19	0	0	100
random	1	1	20	35259	2	2	2	1	0	1138	1	4	0	16	20	0	0	100
random	1	1	21	37381	3	3	3	1	0	1048	1	4	0	24	21	0	0	100
random	1	1	22	39109	6	1	1	1	0	1054	1	4	0	8	22	0	0	100
random	1	1	23	40670	4	2	2	1	0	1252	1	4	0	16	23	0	0	100
random	1	1	24	42777	1	4	4	1	0	947	1	4	0	32	24	0	0	100
random	1	1	25	44486	4	3	3	1	0	1306	1	4	0	24	25	0	0	100
random	1	1	26	46242	2	1	1	1	0	1128	1	4	0	8	26	0	0	100
random	1	1	27	48032	5	2	2	1	0	1148	1	4	0	16	27	0	0	100
random	1	1	28	49637	6	4	4	1	0	840	1	4	0	32	28	0	0	100
random	1	1	29	51251	1	3	3	1	0	1324	1	4	0	24	29	0	0	100
random	1	1	30	53453	5	2	2	1	0	1127	1	4	0	16	30	0	0	100
random	1	1	31	55159	2	1	1	1	0	1055	1	4	0	8	31	0	0	100
random	1	1	32	57195	3	3	3	1	0	1040	1	4	0	24	32	0	0	100
random	1	1	33	58593	6	4	4	1	0	885	1	4	0	32	33	0	0	100
random	1	1	34	59978	4	2	2	1	0	1570	1	4	0	16	34	0	0	100
random	1	1	35	62582	3	4	4	1	0	1740	1	4	0	32	35	0	0	100
random	1	1	36	64654	1	1	1	1	0	1140	1	4	0	8	36	0	0	100
random	1	1	37	66574	3	4	4	1	0	931	1	4	0	32	37	0	0	100
random	1	1	38	68170	5	3	0	1	2	0	3	4	0	24	37	0	1	97
random	1	1	39	71077	6	1	1	2	0	1404	2	4	0	8	38	0	1	97
random	1	1	40	72838	1	2	2	1	0	1225	1	4	0	16	39	0	1	98
random	1	1	41	74649	2	3	3	1	0	861	1	4	0	24	40	0	1	98
random	1	1	42	76460	4	4	4	1	0	1169	1	4	0	32	41	0	1	98
random	1	1	43	78471	1	2	2	1	0	1995	1	4	0	16	42	0	1	98
random	1	1	44	81276	6	3	3	1	0	1468	1	4	0	24	43	0	1	98
random	1	1	45	83490	3	1	1	1	0	1023	1	4	0	8	44	0	1	98
random	1	1	46	85297	4	4	4	1	0	954	1	4	0	32	45	0	1	98
random	1	1	47	86875	2	2	0	1	2	0	3	4	0	16	45	0	2	96
random	1	1	48	89842	5	1	1	1	0	1178	1	4	0	8	46	0	2	96
random	1	1	49	91803	2	3	3	1	0	1462	1	4	0	24	47	0	2	96
random	1	1	50	93714	3	1	1	1	0	1118	1	4	0	8	48	0	2	96
random	1	1	51	95324	1	4	4	1	0	1098	1	4	0	32	49	0	2	96
random	1	1	52	97040	5	3	3	1	0	1521	1	4	0	24	50	0	2	96
random	1	1	53	99341	3	2	2	1	0	871	1	4	0	16	51	0	2	96
random	1	1	54	101114	6	4	0	1	2	0	3	4	0	32	51	0	3	94
random	1	1	55	104542	4	2	2	1	0	1331	1	4	0	16	52	0	3	95
random	1	1	56	106678	1	1	1	1	0	1432	1	4	0	8	53	0	3	95
random	1	1	57	108711	5	4	4	1	0	946	1	4	0	32	54	0	3	95
random	1	1	58	110513	2	1	1	1	0	1126	1	4	0	8	55	0	3	95
random	1	1	59	112481	6	2	2	1	0	1059	1	4	0	16	56	0	3	95
random	1	1	60	114184	4	3	3	1	0	1163	1	4	0	24	57	0	3	95
random	1	1	61	116446	1	2	2	1	0	1426	1	4	0	16	58	0	3	95
random	1	1	62	118774	6	4	4	1	0	984	1	4	0	32	59	0	3	95
random	1	1	63	120126	4	1	1	1	0	1207	1	4	0	8	60	0	3	95
random	1	1	64	121791	2	2	2	1	0	1120	1	4	0	16	61	0	3	95
random	1	1	65	123423	4	3	3	1	0	1059	1	4	0	24	62	0	3	95
random	1	1	66	124793	3	1	1	1	0	1049	1	4	0	8	63	0	3	95
random	1	1	67	126708	1	3	3	1	0	1776	1	4	0	24	64	0	3	96
random	1	1	68	129021	5	4	4	1	0	1414	1	4	0	32	65	0	3	96
random	1	1	69	131099	2	2	2	1	0	1310	1	4	0	16	66	0	3	96
random	1	1	70	132845	3	1	1	1	0	1188	1	4	0	8	67	0	3	96
random	1	1	71	134807	5	4	4	1	0	1137	1	4	0	32	68	0	3	96
random	1	1	72	136245	6	3	3	1	0	1292	1	4	0	24	69	0	3	96
random	1	1	73	138534	2	1	1	1	0	1091	1	4	0	8	70	0	3	96
random	1	1	74	140304	5	3	3	1	0	1152	1	4	0	24	71	0	3	96
random	1	1	75	141929	1	4	4	1	0	1059	1	4	0	32	72	0	3	96
random	1	1	76	143583	6	2	2	1	0	1141	1	4	0	16	73	0	3	96
random	1	1	77	145576	2	1	1	1	0	1081	1	4	0	8	74	0	3	96
random	1	1	78	147493	4	4	4	1	0	984	1	4	0	32	75	0	3	96
random	1	1	79	149197	3	2	2	1	0	1039	1	4	0	16	76	0	3	96
random	1	1	80	151030	4	3	3	1	0	850	1	4	0	24	77	0	3	96
random	1	1	81	152318	1	4	4	1	0	1035	1	4	0	32	78	0	3	96
random	1	1	82	153922	5	1	1	1	0	799	1	4	0	8	79	0	3	96
random	1	1	83	155168	3	2	2	1	0	939	1	4	0	16	80	0	3	96
random	1	1	84	156645	6	3	3	1	0	1580	1	4	0	24	81	0	3	96
random	1	1	85	158817	3	2	0	1	2	0	3	4	0	16	81	0	4	95
random	1	1	86	161741	1	3	3	1	0	1364	1	4	0	24	82	0	4	95
random	1	1	87	163948	4	4	4	1	0	911	1	4	0	32	83	0	4	95
random	1	1	88	165856	2	1	1	1	0	1022	1	4	0	8	84	0	4	95
random	1	1	89	167369	6	4	4	1	0	1077	1	4	0	32	85	0	4	96
random	1	1	90	168869	3	3	3	1	0	1582	1	4	0	24	86	0	4	96
random	1	1	91	171337	5	4	4	1	0	1078	1	4	0	32	87	0	4	96
random	1	1	92	172749	1	2	2	1	0	1298	1	4	0	16	88	0	4	96
random	1	1	93	174446	5	1	1	1	0	1090	1	4	0	8	89	0	4	96
random	1	1	94	176560	4	3	3	1	0	1168	1	4	0	24	90	0	4	96
random	1	1	95	178635	6	1	0	1	2	0	3	4	0	8	90	0	5	95
random	1	1	96	182108	2	2	2	1	0	1965	1	4	0	16	91	0	5	95
random	1	1	97	185265	4	3	3	1	0	1240	1	4	0	24	92	0	5	95
random	1	1	98	187442	3	2	2	1	0	1492	1	4	0	16	93	0	5	95
random	1	1	99	189293	6	3	3	1	0	1277	1	4	0	24	94	0	5	95
random	1	1	100	191223	1	4	4	1	0	956	1	4	0	32	95	0	5	95
random	1	1	101	192645	4	1	1	1	0	1103	1	4	0	8	96	0	5	95
random	1	1	102	194513	5	2	2	1	0	1136	1	4	0	16	97	0	5	95
random	1	1	103	196025	2	4	4	1	0	984	1	4	0	32	98	0	5	95
random	1	1	104	197432	3	1	1	1	0	996	1	4	0	8	99	0	5	95
random	1	1	105	199464	1	3	3	1	0	1222	1	4	0	24	100	0	5	95
random	1	1	106	201356	2	2	0	1	2	0	3	4	0	16	100	0	6	94
random	1	1	107	204759	5	4	4	1	0	1094	1	4	0	32	101	0	6	94
random	1	1	108	206643	6	1	1	1	0	1158	1	4	0	8	102	0	6	94
random	1	1	109	209090	5	4	4	1	0	958	1	4	0	32	103	0	6	94
random	1	1	110	211008	6	3	3	1	0	1094	1	4	0	24	104	0	6	95
random	1	1	111	212629	2	2	2	1	0	1185	1	4	0	16	105	0	6	95
random	1	1	112	214161	3	1	1	1	0	1112	1	4	0	8	106	0	6	95
random	1	1	113	215954	1	2	2	1	0	1532	1	4	0	16	107	0	6	95
random	1	1	114	217997	2	3	3	1	0	1197	1	4	0	24	108	0	6	95
random	1	1	115	219866	3	1	1	1	0	1158	1	4	0	8	109	0	6	95
random	1	1	116	221508	4	4	4	1	0	969	1	4	0	32	110	0	6	95
random	1	1	117	223446	6	1	1	1	0	1215	1	4	0	8	111	0	6	95
random	1	1	118	224971	5	3	3	1	0	1270	1	4	0	24	112	0	6	95
random	1	1	119	226848	1	4	4	1	0	950	1	4	0	32	113	0	6	95
random	1	1	120	228230	4	2	2	1	0	1140	1	4	0	16	114	0	6	95
fixed	2	1	1	230257	4	1	1	1	0	1014	1	4	0	40	1	0	0	100
fixed	2	1	2	231765	1	2	2	1	0	1166	1	4	0	48	2	0	0	100
fixed	2	1	3	233567	6	4	4	1	0	866	1	4	0	64	3	0	0	100
fixed	2	1	4	234928	2	1	1	1	0	984	1	4	0	40	4	0	0	100
fixed	2	1	5	236691	5	3	3	1	0	1013	1	4	0	56	5	0	0	100
fixed	2	1	6	238119	6	4	4	1	0	1113	1	4	0	64	6	0	0	100
fixed	2	1	7	239810	3	1	1	1	0	1130	1	4	0	40	7	0	0	100
fixed	2	1	8	241402	2	3	3	1	0	1758	1	4	0	56	8	0	0	100
fixed	2	1	9	244066	3	2	0	1	2	0	3	4	0	48	8	0	1	89
fixed	2	1	10	247068	1	4	4	1	0	1134	1	4	0	64	9	0	1	90
fixed	2	1	11	248495	5	2	2	1	0	1266	1	4	0	48	10	0	1	91
fixed	2	1	12	250662	4	3	3	1	0	1638	1	4	0	56	11	0	1	92
fixed	2	2	1	253550	4	1	1	1	0	1003	1	4	0	40	12	0	1	92
fixed	2	2	2	255318	1	2	2	1	0	1272	1	4	0	48	13	0	1	93
fixed	2	2	3	257541	6	4	4	1	0	930	1	4	0	64	14	0	1	93
fixed	2	2	4	259240	2	1	1	1	0	1003	1	4	0	40	15	0	1	94
fixed	2	2	5	260967	5	3	3	1	0	1417	1	4	0	56	16	0	1	94
fixed	2	2	6	263295	6	4	4	1	0	887	1	4	0	64	17	0	1	94
fixed	2	2	7	264784	3	1	1	1	0	904	1	4	0	40	18	0	1	95
fixed	2	2	8	266214	2	3	3	1	0	1155	1	4	0	56	19	0	1	95
fixed	2	2	9	267992	3	2	2	1	0	1096	1	4	0	48	20	0	1	95
fixed	2	2	10	269924	1	4	4	1	0	1086	1	4	0	64	21	0	1	95
fixed	2	2	11	271774	5	2	2	1	0	1112	1	4	0	48	22	0	1	96
fixed	2	2	12	273875	4	3	3	1	0	1047	1	4	0	56	23	0	1	96
fixed	2	3	1	275720	4	1	1	1	0	1024	1	4	0	40	24	0	1	96
fixed	2	3	2	277430	1	2	2	1	0	1208	1	4	0	48	25	0	1	96
fixed	2	3	3	279015	6	4	4	1	0	861	1	4	0	64	26	0	1	96
fixed	2	3	4	280272	2	1	1	1	0	1264	1	4	0	40	27	0	1	96
fixed	2	3	5	281908	5	3	3	1	0	1266	1	4	0	56	28	0	1	97
fixed	2	3	6	283971	6	4	4	1	0	971	1	4	0	64	29	0	1	97
fixed	2	3	7	285466	3	1	1	1	0	860	1	4	0	40	30	0	1	97
fixed	2	3	8	286617	2	3	3	1	0	1211	1	4	0	56	31	0	1	97
fixed	2	3	9	288598	3	2	2	1	0	1119	1	4	0	48	32	0	1	97
fixed	2	3	10	290360	1	4	4	1	0	1020	1	4	0	64	33	0	1	97
fixed	2	3	11	292353	5	2	2	1	0	1176	1	4	0	48	34	0	1	97
fixed	2	3	12	294090	4	3	3	1	0	1151	1	4	0	56	35	0	1	97
fixed	2	4	1	295953	4	1	1	1	0	951	1	4	0	40	36	0	1	97
fixed	2	4	2	297248	1	2	2	1	0	1305	1	4	0	48	37	0	1	97
fixed	2	4	3	299523	6	4	4	1	0	913	1	4	0	64	38	0	1	97
fixed	2	4	4	301207	2	1	1	1	0	1201	1	4	0	40	39	0	1	98
fixed	2	4	5	303342	5	3	3	1	0	1055	1	4	0	56	40	0	1	98
fixed	2	4	6	304937	6	4	4	1	0	1091	1	4	0	64	41	0	1	98
fixed	2	4	7	306512	3	1	1	1	0	1272	1	4	0	40	42	0	1	98
fixed	2	4	8	308469	2	3	3	1	0	1293	1	4	0	56	43	0	1	98
fixed	2	4	9	310394	3	2	2	1	0	2252	1	4	0	48	44	0	1	98
fixed	2	4	10	313396	1	4	4	1	0	1341	1	4	0	64	45	0	1	98
fixed	2	4	11	315301	5	2	2	1	0	1244	1	4	0	48	46	0	1	98
fixed	2	4	12	317588	4	3	3	1	0	835	1	4	0	56	47	0	1	98
fixed	2	5	1	319027	4	1	1	1	0	1406	1	4	0	40	48	0	1	98
fixed	2	5	2	321375	1	2	2	1	0	1187	1	4	0	48	49	0	1	98
fixed	2	5	3	323261	6	4	4	1	0	995	1	4	0	64	50	0	1	98
fixed	2	5	4	324823	2	1	1	1	0	1233	1	4	0	40	51	0	1	98
fixed	2	5	5	326991	5	3	0	0	2	0	3	4	0	56	51	0	2	96
fixed	2	5	6	330018	6	4	4	1	0	1092	1	4	0	64	52	0	2	96
fixed	2	5	7	331514	3	1	1	1	0	1901	1	4	0	40	53	0	2	96
fixed	2	5	8	334260	2	3	3	1	0	1673	1	4	0	56	54	0	2	96
fixed	2	5	9	336584	3	2	2	1	0	1054	1	4	0	48	55	0	2	96
fixed	2	5	10	338445	1	4	4	1	0	872	1	4	0	64	56	0	2	97
fixed	2	5	11	340050	5	2	2	1	0	1260	1	4	0	48	57	0	2	97
fixed	2	5	12	342285	4	3	3	1	0	1213	1	4	0	56	58	0	2	97
fixed	2	6	1	344155	4	1	1	1	0	982	1	4	0	40	59	0	2	97
fixed	2	6	2	345878	1	2	2	1	0	997	1	4	0	48	60	0	2	97
fixed	2	6	3	347640	6	4	4	1	0	963	1	4	0	64	61	0	2	97
fixed	2	6	4	349613	2	1	1	1	0	1103	1	4	0	40	62	0	2	97
fixed	2	6	5	351361	5	3	3	1	0	1109	1	4	0	56	63	0	2	97
fixed	2	6	6	353170	6	4	4	1	0	888	1	4	0	64	64	0	2	97
fixed	2	6	7	354446	3	1	1	1	0	938	1	4	0	40	65	0	2	97
fixed	2	6	8	355855	2	3	3	1	0	1222	1	4	0	56	66	0	2	97
fixed	2	6	9	358037	3	2	2	1	0	1066	1	4	0	48	67	0	2	97
fixed	2	6	10	359660	1	4	4	1	0	909	1	4	0	64	68	0	2	97
fixed	2	6	11	361191	5	2	2	1	0	1045	1	4	0	48	69	0	2	97
fixed	2	6	12	363079	4	3	3	1	0	1069	1	4	0	56	70	0	2	97
fixed	2	7	1	364923	4	1	1	1	0	918	1	4	0	40	71	0	2	97
fixed	2	7	2	366329	1	2	2	1	0	1003	1	4	0	48	72	0	2	97
fixed	2	7	3	367674	6	4	4	1	0	866	1	4	0	64	73	0	2	97
fixed	2	7	4	369337	2	1	1	1	0	907	1	4	0	40	74	0	2	97
fixed	2	7	5	370701	5	3	3	1	0	1649	1	4	0	56	75	0	2	97
fixed	2	7	6	372660	6	4	4	1	0	1246	1	4	0	64	76	0	2	97
fixed	2	7	7	374494	3	1	1	1	0	889	1	4	0	40	77	0	2	97
fixed	2	7	8	376215	2	3	3	1	0	1104	1	4	0	56	78	0	2	98
fixed	2	7	9	378181	3	2	2	1	0	1157	1	4	0	48	79	0	2	98
fixed	2	7	10	379798	1	4	4	1	0	1368	1	4	0	64	80	0	2	98
fixed	2	7	11	381840	5	2	2	1	0	1170	1	4	0	48	81	0	2	98
fixed	2	7	12	383627	4	3	3	1	0	1006	1	4	0	56	82	0	2	98
fixed	2	8	1	385841	4	1	1	1	0	928	1	4	0	40	83	0	2	98
fixed	2	8	2	387388	1	2	2	1	0	1191	1	4	0	48	84	0	2	98
fixed	2	8	3	388911	6	4	4	1	0	1087	1	4	0	64	85	0	2	98
fixed	2	8	4	390458	2	1	0	1	2	0	3	4	0	40	85	0	3	97
fixed	2	8	5	393983	5	3	3	1	0	1440	1	4	0	56	86	0	3	97
fixed	2	8	6	396457	6	4	4	1	0	1119	1	4	0	64	87	0	3	97
fixed	2	8	7	398230	3	1	1	1	0	1276	1	4	0	40	88	0	3	97
fixed	2	8	8	399868	2	3	3	1	0	1159	1	4	0	56	89	0	3	97
fixed	2	8	9	401479	3	2	2	1	0	1122	1	4	0	48	90	0	3	97
fixed	2	8	10	403371	1	4	4	1	0	1058	1	4	0	64	91	0	3	97
fixed	2	8	11	405360	5	2	2	1	0	1190	1	4	0	48	92	0	3	97
fixed	2	8	12	407527	4	3	3	1	0	1202	1	4	0	56	93	0	3	97
fixed	2	9	1	409382	4	1	1	1	0	955	1	4	0	40	94	0	3	97
fixed	2	9	2	411252	1	2	2	1	0	1452	1	4	0	48	95	0	3	97
fixed	2	9	3	413367	6	4	4	1	0	923	1	4	0	64	96	0	3	97
fixed	2	9	4	414940	2	1	1	1	0	2144	1	4	0	40	97	0	3	97
fixed	2	9	5	417649	5	3	3	1	0	1173	1	4	0	56	98	0	3	97
fixed	2	9	6	419552	6	4	4	1	0	1061	1	4	0	64	99	0	3	97
fixed	2	9	7	421538	3	1	0	0	2	0	3	4	0	40	99	0	4	96
fixed	2	9	8	424398	2	3	3	1	0	1344	1	4	0	56	100	0	4	96
fixed	2	9	9	426549	3	2	2	1	0	1308	1	4	0	48	101	0	4	96
fixed	2	9	10	428179	1	4	4	1	0	1143	1	4	0	64	102	0	4	96
fixed	2	9	11	429681	5	2	2	1	0	1095	1	4	0	48	103	0	4	96
fixed	2	9	12	431679	4	3	3	1	0	1251	1	4	0	56	104	0	4	96
fixed	2	10	1	434109	4	1	1	1	0	1068	1	4	0	40	105	0	4	96
fixed	2	10	2	435656	1	2	2	1	0	1715	1	4	0	48	106	0	4	96
fixed	2	10	3	437903	6	4	4	1	0	915	1	4	0	64	107	0	4	96
fixed	2	10	4	439746	2	1	1	1	0	941	1	4	0	40	108	0	4	96
fixed	2	10	5	441398	5	3	3	1	0	959	1	4	0	56	109	0	4	96
fixed	2	10	6	443139	6	4	4	1	0	894	1	4	0	64	110	0	4	96
fixed	2	10	7	444604	3	1	1	1	0	959	1	4	0	40	111	0	4	97
fixed	2	10	8	445950	2	3	3	1	0	1031	1	4	0	56	112	0	4	97
fixed	2	10	9	447586	3	2	2	1	0	1025	1	4	0	48	113	0	4	97
fixed	2	10	10	449546	1	4	4	1	0	1006	1	4	0	64	114	0	4	97
fixed	2	10	11	450868	5	2	2	1	0	1222	1	4	0	48	115	0	4	97
fixed	2	10	12	452623	4	3	3	1	0	1220	1	4	0	56	116	0	4	97
fixed	3	1	1	454724	4	1	1	1	0	1251	1	4	0	72	1	0	0	100
fixed	3	1	2	456821	1	2	2	1	0	1554	1	4	0	80	2	0	0	100
fixed	3	1	3	458678	6	4	4	1	0	1043	1	4	0	96	3	0	0	100
fixed	3	1	4	460414	2	1	1	1	0	1018	1	4	0	72	4	0	0	100
fixed	3	1	5	461788	5	3	3	1	0	1000	1	4	0	88	5	0	0	100
fixed	3	1	6	463400	6	4	4	1	0	1139	1	4	0	96	6	0	0	100
fixed	3	1	7	464945	3	1	1	1	0	906	1	4	0	72	7	0	0	100
fixed	3	1	8	466408	2	3	3	1	0	1132	1	4	0	88	8	0	0	100
fixed	3	1	9	467896	3	2	2	1	0	1085	1	4	0	80	9	0	0	100
fixed	3	1	10	469378	1	4	4	1	0	998	1	4	0	96	10	0	0	100
fixed	3	1	11	470798	5	2	2	1	0	1058	1	4	0	80	11	0	0	100
fixed	3	1	12	472321	4	3	0	1	2	0	3	4	0	88	11	0	1	92
fixed	3	2	1	475661	4	1	1	1	0	1092	1	4	0	72	12	0	1	92
fixed	3	2	2	477082	1	2	2	1	0	1824	1	4	0	80	13	0	1	93
fixed	3	2	3	479780	6	4	4	1	0	1030	1	4	0	96	14	0	1	93
fixed	3	2	4	481480	2	1	1	1	0	1190	1	4	0	72	15	0	1	94
fixed	3	2	5	483424	5	3	3	1	0	1300	1	4	0	88	16	0	1	94
fixed	3	2	6	485697	6	4	4	1	0	1579	1	4	0	96	17	0	1	94
fixed	3	2	7	487795	3	1	1	1	0	962	1	4	0	72	18	0	1	95
fixed	3	2	8	489107	2	3	3	1	0	1299	1	4	0	88	19	0	1	95
fixed	3	2	9	490935	3	2	2	1	0	1045	1	4	0	80	20	0	1	95
fixed	3	2	10	493016	1	4	4	1	0	949	1	4	0	96	21	0	1	95
fixed	3	2	11	494810	5	2	2	1	0	1009	1	4	0	80	22	0	1	96
fixed	3	2	12	496612	4	3	3	1	0	1740	1	4	0	88	23	0	1	96
fixed	3	3	1	499302	4	1	1	1	0	875	1	4	0	72	24	0	1	96
fixed	3	3	2	500797	1	2	2	1	0	1388	1	4	0	80	25	0	1	96
fixed	3	3	3	503003	6	4	4	1	0	942	1	4	0	96	26	0	1	96
fixed	3	3	4	504626	2	1	1	1	0	1105	1	4	0	72	27	0	1	96
fixed	3	3	5	506443	5	3	3	1	0	1132	1	4	0	88	28	0	1	97
fixed	3	3	6	508060	6	4	4	1	0	1200	1	4	0	96	29	0	1	97
fixed	3	3	7	509646	3	1	1	1	0	1060	1	4	0	72	30	0	1	97
fixed	3	3	8	511627	2	3	3	1	0	1209	1	4	0	88	31	0	1	97
fixed	3	3	9	513242	3	2	2	1	0	1276	1	4	0	80	32	0	1	97
fixed	3	3	10	515203	1	4	4	1	0	906	1	4	0	96	33	0	1	97
fixed	3	3	11	516817	5	2	2	1	0	1253	1	4	0	80	34	0	1	97
fixed	3	3	12	519050	4	3	3	1	0	1310	1	4	0	88	35	0	1	97
fixed	3	4	1	521206	4	1	1	1	0	891	1	4	0	72	36	0	1	97
fixed	3	4	2	523092	1	2	0	0	2	0	3	4	0	80	36	0	2	95
fixed	3	4	3	526019	6	4	4	1	0	959	1	4	0	96	37	0	2	95
fixed	3	4	4	527644	2	1	1	1	0	1258	1	4	0	72	38	0	2	95
fixed	3	4	5	529543	5	3	3	1	0	1082	1	4	0	88	39	0	2	95
fixed	3	4	6	531242	6	4	4	1	0	986	1	4	0	96	40	0	2	95
fixed	3	4	7	532694	3	1	1	1	0	1005	1	4	0	72	41	0	2	95
fixed	3	4	8	534554	2	3	3	1	0	1077	1	4	0	88	42	0	2	95
fixed	3	4	9	536553	3	2	2	1	0	897	1	4	0	80	43	0	2	96
fixed	3	4	10	538210	1	4	4	1	0	843	1	4	0	96	44	0	2	96
fixed	3	4	11	539544	5	2	2	1	0	1418	1	4	0	80	45	0	2	96
fixed	3	4	12	541323	4	3	3	1	0	1407	1	4	0	88	46	0	2	96
fixed	3	5	1	543477	4	1	1	1	0	1035	1	4	0	72	47	0	2	96
fixed	3	5	2	544999	1	2	2	1	0	1115	1	4	0	80	48	0	2	96
fixed	3	5	3	546420	6	4	4	1	0	1111	1	4	0	96	49	0	2	96
fixed	3	5	4	548396	2	1	1	1	0	1131	1	4	0	72	50	0	2	96
fixed	3	5	5	550548	5	3	3	1	0	968	1	4	0	88	51	0	2	96
fixed	3	5	6	551811	6	4	4	1	0	979	1	4	0	96	52	0	2	96
fixed	3	5	7	553163	3	1	1	1	0	866	1	4	0	72	53	0	2	96
fixed	3	5	8	554443	2	3	3	1	0	1275	1	4	0	88	54	0	2	96
fixed	3	5	9	556056	3	2	2	1	0	967	1	4	0	80	55	0	2	96
fixed	3	5	10	557452	1	4	4	1	0	956	1	4	0	96	56	0	2	97
fixed	3	5	11	559074	5	2	2	1	0	1095	1	4	0	80	57	0	2	97
fixed	3	5	12	560851	4	3	0	1	2	0	3	4	0	88	57	0	3	95
fixed	3	6	1	564178	4	1	1	1	0	1087	1	4	0	72	58	0	3	95
fixed	3	6	2	566007	1	2	2	1	0	1850	1	4	0	80	59	0	3	95
fixed	3	6	3	568856	6	4	4	1	0	1225	1	4	0	96	60	0	3	95
fixed	3	6	4	571114	2	1	1	1	0	1353	1	4	0	72	61	0	3	95
fixed	3	6	5	572943	5	3	3	1	0	1076	1	4	0	88	62	0	3	95
fixed	3	6	6	574707	6	4	4	1	0	1033	1	4	0	96	63	0	3	95
fixed	3	6	7	576293	3	1	1	1	0	1238	1	4	0	72	64	0	3	96
fixed	3	6	8	578541	2	3	3	1	0	951	1	4	0	88	65	0	3	96
fixed	3	6	9	580121	3	2	2	1	0	860	1	4	0	80	66	0	3	96
fixed	3	6	10	581307	1	4	4	1	0	1745	1	4	0	96	67	0	3	96
fixed	3	6	11	583617	5	2	2	1	0	1384	1	4	0	80	68	0	3	96
fixed	3	6	12	585606	4	3	3	1	0	1195	1	4	0	88	69	0	3	96
fixed	3	7	1	587536	4	1	1	1	0	857	1	4	0	72	70	0	3	96
fixed	3	7	2	588732	1	2	2	1	0	1215	1	4	0	80	71	0	3	96
fixed	3	7	3	590335	6	4	4	1	0	907	1	4	0	96	72	0	3	96
fixed	3	7	4	591982	2	1	1	1	0	1029	1	4	0	72	73	0	3	96
fixed	3	7	5	593556	5	3	3	1	0	987	1	4	0	88	74	0	3	96
fixed	3	7	6	595060	6	4	4	1	0	1051	1	4	0	96	75	0	3	96
fixed	3	7	7	596522	3	1	1	1	0	1253	1	4	0	72	76	0	3	96
fixed	3	7	8	598126	2	3	3	1	0	1249	1	4	0	88	77	0	3	96
fixed	3	7	9	599711	3	2	2	1	0	942	1	4	0	80	78	0	3	96
fixed	3	7	10	601343	1	4	4	1	0	849	1	4	0	96	79	0	3	96
fixed	3	7	11	603103	5	2	2	1	0	1175	1	4	0	80	80	0	3	96
fixed	3	7	12	605189	4	3	3	1	0	1270	1	4	0	88	81	0	3	96
fixed	3	8	1	607384	4	1	1	1	0	881	1	4	0	72	82	0	3	96
fixed	3	8	2	608855	1	2	2	1	0	1498	1	4	0	80	83	0	3	97
fixed	3	8	3	610989	6	4	4	1	0	1241	1	4	0	96	84	0	3	97
fixed	3	8	4	613207	2	1	0	1	2	0	3	4	0	72	84	0	4	95
fixed	3	8	5	616450	5	3	3	1	0	2209	1	4	0	88	85	0	4	96
fixed	3	8	6	619253	6	4	4	1	0	1018	1	4	0	96	86	0	4	96
fixed	3	8	7	621031	3	1	1	1	0	927	1	4	0	72	87	0	4	96
fixed	3	8	8	622920	2	3	3	1	0	1287	1	4	0	88	88	0	4	96
fixed	3	8	9	624604	3	2	2	1	0	1088	1	4	0	80	89	0	4	96
fixed	3	8	10	626680	1	4	4	1	0	1207	1	4	0	96	90	0	4	96
fixed	3	8	11	628484	5	2	2	1	0	1235	1	4	0	80	91	0	4	96
fixed	3	8	12	630676	4	3	3	1	0	1486	1	4	0	88	92	0	4	96
fixed	3	9	1	632981	4	1	1	1	0	989	1	4	0	72	93	0	4	96
fixed	3	9	2	634288	1	2	2	1	0	1301	1	4	0	80	94	0	4	96
fixed	3	9	3	636240	6	4	4	1	0	995	1	4	0	96	95	0	4	96
fixed	3	9	4	637803	2	1	1	1	0	1089	1	4	0	72	96	0	4	96
fixed	3	9	5	639388	5	3	3	1	0	1006	1	4	0	88	97	0	4	96
fixed	3	9	6	640820	6	4	4	1	0	1129	1	4	0	96	98	0	4	96
fixed	3	9	7	642741	3	1	1	1	0	743	1	4	0	72	99	0	4	96
fixed	3	9	8	644040	2	3	3	1	0	1112	1	4	0	88	100	0	4	96
fixed	3	9	9	645718	3	2	2	1	0	993	1	4	0	80	101	0	4	96
fixed	3	9	10	647195	1	4	4	1	0	995	1	4	0	96	102	0	4	96
fixed	3	9	11	649150	5	2	2	1	0	1232	1	4	0	80	103	0	4	96
fixed	3	9	12	651171	4	3	3	1	0	1171	1	4	0	88	104	0	4	96
fixed	3	10	1	653046	4	1	1	1	0	843	1	4	0	72	105	0	4	96
fixed	3	10	2	654886	1	2	2	1	0	989	1	4	0	80	106	0	4	96
fixed	3	10	3	656916	6	4	4	1	0	927	1	4	0	96	107	0	4	96
fixed	3	10	4	658314	2	1	1	1	0	804	1	4	0	72	108	0	4	96
fixed	3	10	5	659835	5	3	3	1	0	1027	1	4	0	88	109	0	4	96
fixed	3	10	6	661400	6	4	4	1	0	1257	1	4	0	96	110	0	4	96
fixed	3	10	7	663486	3	1	1	1	0	928	1	4	0	72	111	0	4	97
fixed	3	10	8	665111	2	3	3	1	0	1692	1	4	0	88	112	0	4	97
fixed	3	10	9	667333	3	2	2	1	0	918	1	4	0	80	113	0	4	97
fixed	3	10	10	668792	1	4	4	1	0	936	1	4	0	96	114	0	4	97
fixed	3	10	11	670118	5	2	2	1	0	1200	1	4	0	80	115	0	4	97
fixed	3	10	12	672212	4	3	3	1	0	1191	1	4	0	88	116	0	4	97
fixed	4	1	1	851731	4	1	1	1	0	1499	1	4	0	104	1	0	0	100
fixed	4	1	2	853699	1	2	2	1	0	1024	1	4	0	112	2	0	0	100
fixed	4	1	3	855742	6	4	4	1	0	937	1	4	0	128	3	0	0	100
fixed	4	1	4	857667	2	1	1	1	0	992	1	4	0	104	4	0	0	100
fixed	4	1	5	859229	5	3	3	1	0	1102	1	4	0	120	5	0	0	100
fixed	4	1	6	860846	6	4	4	1	0	929	1	4	0	128	6	0	0	100
fixed	4	1	7	862185	3	1	1	1	0	873	1	4	0	104	7	0	0	100
fixed	4	1	8	863855	2	3	3	1	0	1170	1	4	0	120	8	0	0	100
fixed	4	1	9	865862	3	2	2	1	0	901	1	4	0	112	9	0	0	100
fixed	4	1	10	867432	1	4	4	1	0	899	1	4	0	128	10	0	0	100
fixed	4	1	11	868626	5	2	2	1	0	1224	1	4	0	112	11	0	0	100
fixed	4	1	12	870665	4	3	3	1	0	1161	1	4	0	120	12	0	0	100
fixed	4	2	1	873086	4	1	1	1	0	1011	1	4	0	104	13	0	0	100
fixed	4	2	2	874655	1	2	2	1	0	1232	1	4	0	112	14	0	0	100
fixed	4	2	3	876526	6	4	4	1	0	873	1	4	0	128	15	0	0	100
fixed	4	2	4	877938	2	1	1	1	0	926	1	4	0	104	16	0	0	100
fixed	4	2	5	879302	5	3	3	1	0	1124	1	4	0	120	17	0	0	100
fixed	4	2	6	880839	6	4	4	1	0	954	1	4	0	128	18	0	0	100
fixed	4	2	7	882622	3	1	1	1	0	951	1	4	0	104	19	0	0	100
fixed	4	2	8	883965	2	3	3	1	0	1134	1	4	0	120	20	0	0	100
fixed	4	2	9	885883	3	2	2	1	0	909	1	4	0	112	21	0	0	100
fixed	4	2	10	887474	1	4	4	1	0	841	1	4	0	128	22	0	0	100
fixed	4	2	11	888843	5	2	2	1	0	1191	1	4	0	112	23	0	0	100
fixed	4	2	12	890579	4	3	3	1	0	1038	1	4	0	120	24	0	0	100
fixed	4	3	1	892785	4	1	1	1	0	976	1	4	0	104	25	0	0	100
fixed	4	3	2	894515	1	2	2	1	0	1048	1	4	0	112	26	0	0	100
fixed	4	3	3	896353	6	4	4	1	0	866	1	4	0	128	27	0	0	100
fixed	4	3	4	898183	2	1	1	1	0	1052	1	4	0	104	28	0	0	100
fixed	4	3	5	899869	5	3	3	1	0	1076	1	4	0	120	29	0	0	100
fixed	4	3	6	901949	6	4	4	1	0	885	1	4	0	128	30	0	0	100
fixed	4	3	7	903123	3	1	1	1	0	1299	1	4	0	104	31	0	0	100
fixed	4	3	8	905013	2	3	3	1	0	1090	1	4	0	120	32	0	0	100
fixed	4	3	9	906679	3	2	2	1	0	804	1	4	0	112	33	0	0	100
fixed	4	3	10	908032	1	4	4	1	0	915	1	4	0	128	34	0	0	100
fixed	4	3	11	909327	5	2	2	1	0	1308	1	4	0	112	35	0	0	100
fixed	4	3	12	910959	4	3	3	1	0	1207	1	4	0	120	36	0	0	100
fixed	4	4	1	912717	4	1	1	1	0	932	1	4	0	104	37	0	0	100
fixed	4	4	2	914013	1	2	2	1	0	1606	1	4	0	112	38	0	0	100
fixed	4	4	3	916426	6	4	4	1	0	863	1	4	0	128	39	0	0	100
fixed	4	4	4	917658	2	1	1	1	0	859	1	4	0	104	40	0	0	100
fixed	4	4	5	918894	5	3	3	1	0	999	1	4	0	120	41	0	0	100
fixed	4	4	6	920351	6	4	4	1	0	873	1	4	0	128	42	0	0	100
fixed	4	4	7	922148	3	1	1	1	0	893	1	4	0	104	43	0	0	100
fixed	4	4	8	923677	2	3	3	1	0	1108	1	4	0	120	44	0	0	100
fixed	4	4	9	925496	3	2	2	1	0	831	1	4	0	112	45	0	0	100
fixed	4	4	10	926974	1	4	4	1	0	905	1	4	0	128	46	0	0	100
fixed	4	4	11	928588	5	2	2	1	0	1036	1	4	0	112	47	0	0	100
fixed	4	4	12	930194	4	3	3	1	0	1296	1	4	0	120	48	0	0	100
fixed	4	5	1	932298	4	1	1	1	0	911	1	4	0	104	49	0	0	100
fixed	4	5	2	934010	1	2	2	1	0	1127	1	4	0	112	50	0	0	100
fixed	4	5	3	935980	6	4	4	1	0	955	1	4	0	128	51	0	0	100
fixed	4	5	4	937821	2	1	1	1	0	1213	1	4	0	104	52	0	0	100
fixed	4	5	5	939719	5	3	3	1	0	989	1	4	0	120	53	0	0	100
fixed	4	5	6	941481	6	4	4	1	0	1290	1	4	0	128	54	0	0	100
fixed	4	5	7	943419	3	1	1	1	0	1496	1	4	0	104	55	0	0	100
fixed	4	5	8	945338	2	3	3	1	0	1351	1	4	0	120	56	0	0	100
fixed	4	5	9	947695	3	2	2	1	0	883	1	4	0	112	57	0	0	100
fixed	4	5	10	948899	1	4	4	1	0	928	1	4	0	128	58	0	0	100
fixed	4	5	11	950111	5	2	2	1	0	1124	1	4	0	112	59	0	0	100
fixed	4	5	12	952133	4	3	3	1	0	1151	1	4	0	120	60	0	0	100
fixed	4	6	1	954302	4	1	1	1	0	891	1	4	0	104	61	0	0	100
fixed	4	6	2	955634	1	2	2	1	0	1059	1	4	0	112	62	0	0	100
fixed	4	6	3	957231	6	4	4	1	0	799	1	4	0	128	63	0	0	100
fixed	4	6	4	958876	2	1	1	1	0	906	1	4	0	104	64	0	0	100
fixed	4	6	5	960697	5	3	3	1	0	1004	1	4	0	120	65	0	0	100
fixed	4	6	6	962114	6	4	4	1	0	928	1	4	0	128	66	0	0	100
fixed	4	6	7	963338	3	1	1	1	0	900	1	4	0	104	67	0	0	100
fixed	4	6	8	965194	2	3	3	1	0	973	1	4	0	120	68	0	0	100
fixed	4	6	9	966885	3	2	2	1	0	846	1	4	0	112	69	0	0	100
fixed	4	6	10	968235	1	4	4	1	0	789	1	4	0	128	70	0	0	100
fixed	4	6	11	969655	5	2	2	1	0	1032	1	4	0	112	71	0	0	100
fixed	4	6	12	971251	4	3	3	1	0	1213	1	4	0	120	72	0	0	100
fixed	4	7	1	973098	4	1	1	1	0	935	1	4	0	104	73	0	0	100
fixed	4	7	2	974797	1	2	2	1	0	1015	1	4	0	112	74	0	0	100
fixed	4	7	3	976514	6	4	4	1	0	854	1	4	0	128	75	0	0	100
fixed	4	7	4	978088	2	1	1	1	0	996	1	4	0	104	76	0	0	100
fixed	4	7	5	980036	5	3	3	1	0	1113	1	4	0	120	77	0	0	100
fixed	4	7	6	981593	6	4	4	1	0	887	1	4	0	128	78	0	0	100
fixed	4	7	7	983403	3	1	1	1	0	1619	1	4	0	104	79	0	0	100
fixed	4	7	8	985687	2	3	3	1	0	1378	1	4	0	120	80	0	0	100
fixed	4	7	9	987990	3	2	2	1	0	1680	1	4	0	112	81	0	0	100
fixed	4	7	10	990508	1	4	4	1	0	853	1	4	0	128	82	0	0	100
fixed	4	7	11	992299	5	2	2	1	0	1074	1	4	0	112	83	0	0	100
fixed	4	7	12	993947	4	3	3	1	0	1068	1	4	0	120	84	0	0	100
fixed	4	8	1	996205	4	1	1	1	0	876	1	4	0	104	85	0	0	100
fixed	4	8	2	997566	1	2	2	1	0	1131	1	4	0	112	86	0	0	100
fixed	4	8	3	999224	6	4	4	1	0	813	1	4	0	128	87	0	0	100
fixed	4	8	4	1000423	2	1	1	1	0	802	1	4	0	104	88	0	0	100
fixed	4	8	5	1001648	5	3	3	1	0	1046	1	4	0	120	89	0	0	100
fixed	4	8	6	1003353	6	4	4	1	0	869	1	4	0	128	90	0	0	100
fixed	4	8	7	1004635	3	1	1	1	0	1143	1	4	0	104	91	0	0	100
fixed	4	8	8	1006618	2	3	3	1	0	1235	1	4	0	120	92	0	0	100
fixed	4	8	9	1008221	3	2	2	1	0	1095	1	4	0	112	93	0	0	100
fixed	4	8	10	1009940	1	4	4	1	0	958	1	4	0	128	94	0	0	100
fixed	4	8	11	1011908	5	2	2	1	0	1203	1	4	0	112	95	0	0	100
fixed	4	8	12	1013434	4	3	0	1	2	0	3	4	0	120	95	0	1	99
fixed	4	9	1	1016538	4	1	1	1	0	1063	1	4	0	104	96	0	1	99
fixed	4	9	2	1018388	1	2	2	1	0	1113	1	4	0	112	97	0	1	99
fixed	4	9	3	1020028	6	4	4	1	0	1235	1	4	0	128	98	0	1	99
fixed	4	9	4	1021647	2	1	1	1	0	2175	1	4	0	104	99	0	1	99
fixed	4	9	5	1024440	5	3	3	1	0	1048	1	4	0	120	100	0	1	99
fixed	4	9	6	1026489	6	4	4	1	0	1330	1	4	0	128	101	0	1	99
fixed	4	9	7	1028139	3	1	1	1	0	940	1	4	0	104	102	0	1	99
fixed	4	9	8	1029938	2	3	3	1	0	1191	1	4	0	120	103	0	1	99
fixed	4	9	9	1031505	3	2	2	1	0	1117	1	4	0	112	104	0	1	99
fixed	4	9	10	1033544	1	4	4	1	0	902	1	4	0	128	105	0	1	99
fixed	4	9	11	1035494	5	2	2	1	0	1172	1	4	0	112	106	0	1	99
fixed	4	9	12	1037198	4	3	3	1	0	1132	1	4	0	120	107	0	1	99
fixed	4	10	1	1038943	4	1	1	1	0	906	1	4	0	104	108	0	1	99
fixed	4	10	2	1040868	1	2	2	1	0	1096	1	4	0	112	109	0	1	99
fixed	4	10	3	1042415	6	4	4	1	0	839	1	4	0	128	110	0	1	99
fixed	4	10	4	1043656	2	1	1	1	0	810	1	4	0	104	111	0	1	99
fixed	4	10	5	1044889	5	3	3	1	0	1006	1	4	0	120	112	0	1	99
fixed	4	10	6	1046886	6	4	4	1	0	890	1	4	0	128	113	0	1	99
fixed	4	10	7	1048779	3	1	1	1	0	1298	1	4	0	104	114	0	1	99
fixed	4	10	8	1050798	2	3	3	1	0	1108	1	4	0	120	115	0	1	99
fixed	4	10	9	1052825	3	2	2	1	0	1270	1	4	0	112	116	0	1	99
fixed	4	10	10	1054741	1	4	4	1	0	1125	1	4	0	128	117	0	1	99
fixed	4	10	11	1056179	5	2	2	1	0	1600	1	4	0	112	118	0	1	99
fixed	4	10	12	1058285	4	3	3	1	0	1343	1	4	0	120	119	0	1	99
fixed	5	1	1	1061129	4	1	1	1	0	1142	1	4	0	136	1	0	0	100
fixed	5	1	2	1063092	1	2	2	1	0	1075	1	4	0	144	2	0	0	100
fixed	5	1	3	1064981	6	4	4	1	0	843	1	4	0	160	3	0	0	100
fixed	5	1	4	1066211	2	1	1	1	0	1071	1	4	0	136	4	0	0	100
fixed	5	1	5	1067979	5	3	3	1	0	1732	1	4	0	152	5	0	0	100
fixed	5	1	6	1070629	6	4	4	1	0	1052	1	4	0	160	6	0	0	100
fixed	5	1	7	1072635	3	1	1	1	0	1143	1	4	0	136	7	0	0	100
fixed	5	1	8	1074644	2	3	3	1	0	1154	1	4	0	152	8	0	0	100
fixed	5	1	9	1076527	3	2	2	1	0	1026	1	4	0	144	9	0	0	100
fixed	5	1	10	1078127	1	4	4	1	0	1718	1	4	0	160	10	0	0	100
fixed	5	1	11	1080559	5	2	2	1	0	1207	1	4	0	144	11	0	0	100
fixed	5	1	12	1082442	4	3	3	1	0	880	1	4	0	152	12	0	0	100
fixed	5	2	1	1084271	4	1	1	1	0	874	1	4	0	136	13	0	0	100
fixed	5	2	2	1085512	1	2	2	1	0	1190	1	4	0	144	14	0	0	100
fixed	5	2	3	1087574	6	4	4	1	0	943	1	4	0	160	15	0	0	100
fixed	5	2	4	1089047	2	1	1	1	0	1144	1	4	0	136	16	0	0	100
fixed	5	2	5	1090936	5	3	3	1	0	1072	1	4	0	152	17	0	0	100
fixed	5	2	6	1092630	6	4	4	1	0	1128	1	4	0	160	18	0	0	100
fixed	5	2	7	1094609	3	1	1	1	0	981	1	4	0	136	19	0	0	100
fixed	5	2	8	1095979	2	3	3	1	0	1387	1	4	0	152	20	0	0	100
fixed	5	2	9	1098256	3	2	2	1	0	1010	1	4	0	144	21	0	0	100
fixed	5	2	10	1099728	1	4	4	1	0	1011	1	4	0	160	22	0	0	100
fixed	5	2	11	1101108	5	2	2	1	0	1177	1	4	0	144	23	0	0	100
fixed	5	2	12	1103251	4	3	0	1	2	0	3	4	0	152	23	0	1	96
fixed	5	3	1	1106960	4	1	1	1	0	1073	1	4	0	136	24	0	1	96
fixed	5	3	2	1108701	1	2	2	1	0	1103	1	4	0	144	25	0	1	96
fixed	5	3	3	1110308	6	4	4	1	0	1035	1	4	0	160	26	0	1	96
fixed	5	3	4	1111664	2	1	1	1	0	1338	1	4	0	136	27	0	1	96
fixed	5	3	5	1113442	5	3	3	1	0	1022	1	4	0	152	28	0	1	97
fixed	5	3	6	1115091	6	4	4	1	0	1025	1	4	0	160	29	0	1	97
fixed	5	3	7	1117010	3	1	1	1	0	1208	1	4	0	136	30	0	1	97
fixed	5	3	8	1119127	2	3	3	1	0	1462	1	4	0	152	31	0	1	97
fixed	5	3	9	1121434	3	2	2	1	0	900	1	4	0	144	32	0	1	97
fixed	5	3	10	1122862	1	4	4	1	0	1048	1	4	0	160	33	0	1	97
fixed	5	3	11	1124205	5	2	2	1	0	1271	1	4	0	144	34	0	1	97
fixed	5	3	12	1126085	4	3	3	1	0	1231	1	4	0	152	35	0	1	97
fixed	5	4	1	1128346	4	1	1	1	0	871	1	4	0	136	36	0	1	97
fixed	5	4	2	1129998	1	2	2	1	0	1001	1	4	0	144	37	0	1	97
fixed	5	4	3	1132026	6	4	4	1	0	915	1	4	0	160	38	0	1	97
fixed	5	4	4	1133409	2	1	1	1	0	1001	1	4	0	136	39	0	1	98
fixed	5	4	5	1134948	5	3	3	1	0	1000	1	4	0	152	40	0	1	98
fixed	5	4	6	1136472	6	4	4	1	0	959	1	4	0	160	41	0	1	98
fixed	5	4	7	1137892	3	1	1	1	0	859	1	4	0	136	42	0	1	98
fixed	5	4	8	1139129	2	3	3	1	0	1143	1	4	0	152	43	0	1	98
fixed	5	4	9	1141235	3	2	2	1	0	998	1	4	0	144	44	0	1	98
fixed	5	4	10	1143077	1	4	4	1	0	888	1	4	0	160	45	0	1	98
fixed	5	4	11	1144792	5	2	2	1	0	983	1	4	0	144	46	0	1	98
fixed	5	4	12	1146591	4	3	3	1	0	1066	1	4	0	152	47	0	1	98
fixed	5	5	1	1148946	4	1	1	1	0	887	1	4	0	136	48	0	1	98
fixed	5	5	2	1150144	1	2	2	1	0	1364	1	4	0	144	49	0	1	98
fixed	5	5	3	1151938	6	4	4	1	0	1032	1	4	0	160	50	0	1	98
fixed	5	5	4	1153384	2	1	1	1	0	1467	1	4	0	136	51	0	1	98
fixed	5	5	5	1155194	5	3	3	1	0	1470	1	4	0	152	52	0	1	98
fixed	5	5	6	1157162	6	4	4	1	0	1051	1	4	0	160	53	0	1	98
fixed	5	5	7	1159025	3	1	1	1	0	1068	1	4	0	136	54	0	1	98
fixed	5	5	8	1160479	2	3	0	1	2	0	3	4	0	152	54	0	2	96
fixed	5	5	9	1163303	3	2	2	1	0	1439	1	4	0	144	55	0	2	96
fixed	5	5	10	1165488	1	4	4	1	0	938	1	4	0	160	56	0	2	97
fixed	5	5	11	1167039	5	2	2	1	0	1224	1	4	0	144	57	0	2	97
fixed	5	5	12	1168575	4	3	3	1	0	943	1	4	0	152	58	0	2	97
fixed	5	6	1	1170650	4	1	1	1	0	951	1	4	0	136	59	0	2	97
fixed	5	6	2	1172515	1	2	2	1	0	1169	1	4	0	144	60	0	2	97
fixed	5	6	3	1174251	6	4	4	1	0	871	1	4	0	160	61	0	2	97
fixed	5	6	4	1175484	2	1	1	1	0	1123	1	4	0	136	62	0	2	97
fixed	5	6	5	1177368	5	3	3	1	0	908	1	4	0	152	63	0	2	97
fixed	5	6	6	1179187	6	4	4	1	0	950	1	4	0	160	64	0	2	97
fixed	5	6	7	1180645	3	1	1	1	0	904	1	4	0	136	65	0	2	97
fixed	5	6	8	1182304	2	3	3	1	0	1002	1	4	0	152	66	0	2	97
fixed	5	6	9	1183998	3	2	2	1	0	1010	1	4	0	144	67	0	2	97
fixed	5	6	10	1185762	1	4	4	1	0	848	1	4	0	160	68	0	2	97
fixed	5	6	11	1187121	5	2	2	1	0	1118	1	4	0	144	69	0	2	97
fixed	5	6	12	1188673	4	3	3	1	0	1260	1	4	0	152	70	0	2	97
fixed	5	7	1	1191050	4	1	1	1	0	871	1	4	0	136	71	0	2	97
fixed	5	7	2	1192714	1	2	2	1	0	1137	1	4	0	144	72	0	2	97
fixed	5	7	3	1194300	6	4	4	1	0	942	1	4	0	160	73	0	2	97
fixed	5	7	4	1195722	2	1	1	1	0	1218	1	4	0	136	74	0	2	97
fixed	5	7	5	1197859	5	3	3	1	0	1151	1	4	0	152	75	0	2	97
fixed	5	7	6	1199670	6	4	4	1	0	1114	1	4	0	160	76	0	2	97
fixed	5	7	7	1201597	3	1	1	1	0	889	1	4	0	136	77	0	2	97
fixed	5	7	8	1203528	2	3	3	1	0	1135	1	4	0	152	78	0	2	98
fixed	5	7	9	1205146	3	2	2	1	0	843	1	4	0	144	79	0	2	98
fixed	5	7	10	1206678	1	4	4	1	0	834	1	4	0	160	80	0	2	98
fixed	5	7	11	1208489	5	2	2	1	0	933	1	4	0	144	81	0	2	98
fixed	5	7	12	1209873	4	3	3	1	0	1267	1	4	0	152	82	0	2	98
fixed	5	8	1	1212419	4	1	1	1	0	1214	1	4	0	136	83	0	2	98
fixed	5	8	2	1214071	1	2	2	1	0	1216	1	4	0	144	84	0	2	98
fixed	5	8	3	1216266	6	4	4	1	0	915	1	4	0	160	85	0	2	98
fixed	5	8	4	1218017	2	1	1	1	0	1033	1	4	0	136	86	0	2	98
fixed	5	8	5	1219982	5	3	3	1	0	1182	1	4	0	152	87	0	2	98
fixed	5	8	6	1221700	6	4	4	1	0	1053	1	4	0	160	88	0	2	98
fixed	5	8	7	1223173	3	1	1	1	0	839	1	4	0	136	89	0	2	98
fixed	5	8	8	1224658	2	3	3	1	0	1136	1	4	0	152	90	0	2	98
fixed	5	8	9	1226592	3	2	2	1	0	942	1	4	0	144	91	0	2	98
fixed	5	8	10	1228321	1	4	4	1	0	997	1	4	0	160	92	0	2	98
fixed	5	8	11	1229677	5	2	2	1	0	1211	1	4	0	144	93	0	2	98
fixed	5	8	12	1231682	4	3	3	1	0	1286	1	4	0	152	94	0	2	98
fixed	5	9	1	1234105	4	1	1	1	0	968	1	4	0	136	95	0	2	98
fixed	5	9	2	1235366	1	2	2	1	0	1107	1	4	0	144	96	0	2	98
fixed	5	9	3	1236910	6	4	4	1	0	857	1	4	0	160	97	0	2	98
fixed	5	9	4	1238683	2	1	1	1	0	1078	1	4	0	136	98	0	2	98
fixed	5	9	5	1240142	5	3	3	1	0	1040	1	4	0	152	99	0	2	98
fixed	5	9	6	1241666	6	4	4	1	0	848	1	4	0	160	100	0	2	98
fixed	5	9	7	1242901	3	1	1	1	0	835	1	4	0	136	101	0	2	98
fixed	5	9	8	1244291	2	3	3	1	0	1529	1	4	0	152	102	0	2	98
fixed	5	9	9	1246159	3	2	2	1	0	953	1	4	0	144	103	0	2	98
fixed	5	9	10	1247436	1	4	4	1	0	963	1	4	0	160	104	0	2	98
fixed	5	9	11	1249263	5	2	2	1	0	1062	1	4	0	144	105	0	2	98
fixed	5	9	12	1251185	4	3	3	1	0	1076	1	4	0	152	106	0	2	98
fixed	5	10	1	1253503	4	1	1	1	0	1122	1	4	0	136	107	0	2	98
fixed	5	10	2	1255020	1	2	2	1	0	1290	1	4	0	144	108	0	2	98
fixed	5	10	3	1257283	6	4	4	1	0	938	1	4	0	160	109	0	2	98
fixed	5	10	4	1258787	2	1	1	1	0	1074	1	4	0	136	110	0	2	98
fixed	5	10	5	1260515	5	3	3	1	0	922	1	4	0	152	111	0	2	98
fixed	5	10	6	1262130	6	4	4	1	0	981	1	4	0	160	112	0	2	98
fixed	5	10	7	1263860	3	1	1	1	0	1187	1	4	0	136	113	0	2	98
fixed	5	10	8	1265713	2	3	0	0	2	0	3	4	0	152	113	0	3	97
fixed	5	10	9	1268837	3	2	2	1	0	1129	1	4	0	144	114	0	3	97
fixed	5	10	10	1270947	1	4	4	1	0	1055	1	4	0	160	115	0	3	97
fixed	5	10	11	1272344	5	2	2	1	0	1197	1	4	0	144	116	0	3	97
fixed	5	10	12	1273860	4	3	3	1	0	1372	1	4	0	152	117	0	3	98
random	6	1	1	1372242	6	1	1	1	0	1893	1	4	0	168	1	0	0	100
random	6	1	2	1374981	4	4	4	1	0	1001	1	4	0	192	2	0	0	100
random	6	1	3	1376755	2	2	2	1	0	1022	1	4	0	176	3	0	0	100
random	6	1	4	1378360	3	3	3	1	0	938	1	4	0	184	4	0	0	100
random	6	1	5	1379993	5	2	2	1	0	1117	1	4	0	176	5	0	0	100
random	6	1	6	1381925	1	4	4	1	0	851	1	4	0	192	6	0	0	100
random	6	1	7	1383697	6	1	1	1	0	896	1	4	0	168	7	0	0	100
random	6	1	8	1385175	2	3	0	0	2	0	3	4	0	184	7	0	1	88
random	6	1	9	1388304	4	2	2	1	0	1029	1	4	0	176	8	0	1	89
random	6	1	10	1389997	1	1	1	1	0	1053	1	4	0	168	9	0	1	90
random	6	1	11	1391423	5	4	4	1	0	912	1	4	0	192	10	0	1	91
random	6	1	12	1393042	3	3	3	1	0	1092	1	4	0	184	11	0	1	92
random	6	1	13	1394900	5	2	2	1	0	1149	1	4	0	176	12	0	1	92
random	6	1	14	1396898	1	4	4	1	0	1241	1	4	0	192	13	0	1	93
random	6	1	15	1398457	3	1	1	1	0	854	1	4	0	168	14	0	1	93
random	6	1	16	1399982	4	3	3	1	0	1126	1	4	0	184	15	0	1	94
random	6	1	17	1401853	6	4	4	1	0	855	1	4	0	192	16	0	1	94
random	6	1	18	1403581	2	1	1	1	0	1222	1	4	0	168	17	0	1	94
random	6	1	19	1405632	5	3	3	1	0	951	1	4	0	184	18	0	1	95
random	6	1	20	1407566	2	2	2	1	0	957	1	4	0	176	19	0	1	95
random	6	1	21	1409125	3	3	3	1	0	1307	1	4	0	184	20	0	1	95
random	6	1	22	1411446	6	1	1	1	0	1113	1	4	0	168	21	0	1	95
random	6	1	23	1413356	4	2	2	1	0	1112	1	4	0	176	22	0	1	96
random	6	1	24	1414990	1	4	4	1	0	971	1	4	0	192	23	0	1	96
random	6	1	25	1416971	4	3	3	1	0	1326	1	4	0	184	24	0	1	96
random	6	1	26	1419320	2	1	1	1	0	1515	1	4	0	168	25	0	1	96
random	6	1	27	1421386	5	2	2	1	0	1220	1	4	0	176	26	0	1	96
random	6	1	28	1423233	6	4	4	1	0	886	1	4	0	192	27	0	1	96
random	6	1	29	1425079	1	3	3	1	0	1119	1	4	0	184	28	0	1	97
random	6	1	30	1426669	5	2	2	1	0	932	1	4	0	176	29	0	1	97
random	6	1	31	1428099	2	1	1	1	0	1111	1	4	0	168	30	0	1	97
random	6	1	32	1429796	3	3	3	1	0	1336	1	4	0	184	31	0	1	97
random	6	1	33	1431877	6	4	4	1	0	935	1	4	0	192	32	0	1	97
random	6	1	34	1433316	4	2	2	1	0	1114	1	4	0	176	33	0	1	97
random	6	1	35	1434827	3	4	4	1	0	955	1	4	0	192	34	0	1	97
random	6	1	36	1436136	1	1	1	1	0	1067	1	4	0	168	35	0	1	97
random	6	1	37	1438173	3	4	4	1	0	1084	1	4	0	192	36	0	1	97
random	6	1	38	1439618	5	3	3	1	0	1199	1	4	0	184	37	0	1	97
random	6	1	39	1441356	6	1	0	1	2	0	3	4	0	168	37	0	2	95
random	6	1	40	1444445	1	2	2	1	0	1275	1	4	0	176	38	0	2	95
random	6	1	41	1446124	2	3	3	1	0	1499	1	4	0	184	39	0	2	95
random	6	1	42	1448492	4	4	4	1	0	984	1	4	0	192	40	0	2	95
random	6	1	43	1450007	1	2	2	1	0	1383	1	4	0	176	41	0	2	95
random	6	1	44	1452253	6	3	3	1	0	1032	1	4	0	184	42	0	2	95
random	6	1	45	1454236	3	1	1	1	0	980	1	4	0	168	43	0	2	96
random	6	1	46	1455579	4	4	4	1	0	1164	1	4	0	192	44	0	2	96
random	6	1	47	1457674	2	2	2	1	0	1154	1	4	0	176	45	0	2	96
random	6	1	48	1459751	5	1	1	1	0	979	1	4	0	168	46	0	2	96
random	6	1	49	1461948	2	3	3	1	0	1157	1	4	0	184	47	0	2	96
random	6	1	50	1463784	3	1	1	1	0	1383	1	4	0	168	48	0	2	96
random	6	1	51	1466105	1	4	4	1	0	917	1	4	0	192	49	0	2	96
random	6	1	52	1468011	5	3	3	1	0	1020	1	4	0	184	50	0	2	96
random	6	1	53	1469681	3	2	2	1	0	1006	1	4	0	176	51	0	2	96
random	6	1	54	1471077	6	4	4	1	0	1067	1	4	0	192	52	0	2	96
random	6	1	55	1473056	4	2	2	1	0	1007	1	4	0	176	53	0	2	96
random	6	1	56	1474919	1	1	1	1	0	832	1	4	0	168	54	0	2	96
random	6	1	57	1476691	5	4	4	1	0	933	1	4	0	192	55	0	2	96
random	6	1	58	1478322	2	1	1	1	0	800	1	4	0	168	56	0	2	97
random	6	1	59	1480060	6	2	2	1	0	1214	1	4	0	176	57	0	2	97
random	6	1	60	1482262	4	3	3	1	0	1089	1	4	0	184	58	0	2	97
random	6	1	61	1483952	1	2	2	1	0	1321	1	4	0	176	59	0	2	97
random	6	1	62	1485889	6	4	4	1	0	911	1	4	0	192	60	0	2	97
random	6	1	63	1487642	4	1	1	1	0	1101	1	4	0	168	61	0	2	97
random	6	1	64	1489031	2	2	2	1	0	1194	1	4	0	176	62	0	2	97
random	6	1	65	1490973	4	3	3	1	0	1408	1	4	0	184	63	0	2	97
random	6	1	66	1492915	3	1	1	1	0	942	1	4	0	168	64	0	2	97
random	6	1	67	1494215	1	3	3	1	0	1159	1	4	0	184	65	0	2	97
random	6	1	68	1496165	5	4	4	1	0	900	1	4	0	192	66	0	2	97
random	6	1	69	1497693	2	2	2	1	0	1164	1	4	0	176	67	0	2	97
random	6	1	70	1499481	3	1	1	1	0	864	1	4	0	168	68	0	2	97
random	6	1	71	1500940	5	4	4	1	0	882	1	4	0	192	69	0	2	97
random	6	1	72	1502395	6	3	3	1	0	972	1	4	0	184	70	0	2	97
random	6	1	73	1504435	2	1	1	1	0	1038	1	4	0	168	71	0	2	97
random	6	1	74	1505979	5	3	3	1	0	1037	1	4	0	184	72	0	2	97
random	6	1	75	1507878	1	4	4	1	0	852	1	4	0	192	73	0	2	97
random	6	1	76	1509246	6	2	2	1	0	1026	1	4	0	176	74	0	2	97
random	6	1	77	1510888	2	1	1	1	0	1037	1	4	0	168	75	0	2	97
random	6	1	78	1512382	4	4	4	1	0	910	1	4	0	192	76	0	2	97
random	6	1	79	1513749	3	2	2	1	0	980	1	4	0	176	77	0	2	97
random	6	1	80	1515656	4	3	3	1	0	1123	1	4	0	184	78	0	2	98
random	6	1	81	1517155	1	4	4	1	0	1379	1	4	0	192	79	0	2	98
random	6	1	82	1519012	5	1	1	1	0	957	1	4	0	168	80	0	2	98
random	6	1	83	1520348	3	2	2	1	0	1148	1	4	0	176	81	0	2	98
random	6	1	84	1522424	6	3	3	1	0	892	1	4	0	184	82	0	2	98
random	6	1	85	1524200	3	2	2	1	0	1057	1	4	0	176	83	0	2	98
random	6	1	86	1526108	1	3	3	1	0	1368	1	4	0	184	84	0	2	98
random	6	1	87	1528013	4	4	4	1	0	1375	1	4	0	192	85	0	2	98
random	6	1	88	1530108	2	1	1	1	0	1471	1	4	0	168	86	0	2	98
random	6	1	89	1532486	6	4	4	1	0	874	1	4	0	192	87	0	2	98
random	6	1	90	1534368	3	3	3	1	0	1354	1	4	0	184	88	0	2	98
random	6	1	91	1536748	5	4	4	1	0	989	1	4	0	192	89	0	2	98
random	6	1	92	1538521	1	2	2	1	0	1114	1	4	0	176	90	0	2	98
random	6	1	93	1540084	5	1	1	1	0	872	1	4	0	168	91	0	2	98
random	6	1	94	1541443	4	3	3	1	0	942	1	4	0	184	92	0	2	98
random	6	1	95	1543085	6	1	1	1	0	1169	1	4	0	168	93	0	2	98
random	6	1	96	1544887	2	2	2	1	0	1244	1	4	0	176	94	0	2	98
random	6	1	97	1546874	4	3	3	1	0	1016	1	4	0	184	95	0	2	98
random	6	1	98	1548666	3	2	2	1	0	1149	1	4	0	176	96	0	2	98
random	6	1	99	1550712	6	3	3	1	0	1430	1	4	0	184	97	0	2	98
random	6	1	100	1552479	1	4	4	1	0	1051	1	4	0	192	98	0	2	98
random	6	1	101	1554254	4	1	1	1	0	976	1	4	0	168	99	0	2	98
random	6	1	102	1556101	5	2	2	1	0	1130	1	4	0	176	100	0	2	98
random	6	1	103	1557973	2	4	4	1	0	954	1	4	0	192	101	0	2	98
random	6	1	104	1559625	3	1	1	1	0	996	1	4	0	168	102	0	2	98
random	6	1	105	1560926	1	3	3	1	0	1581	1	4	0	184	103	0	2	98
random	6	1	106	1563244	2	2	2	1	0	1459	1	4	0	176	104	0	2	98
random	6	1	107	1565231	5	4	4	1	0	935	1	4	0	192	105	0	2	98
random	6	1	108	1566489	6	1	1	1	0	1073	1	4	0	168	106	0	2	98
random	6	1	109	1568125	5	4	4	1	0	1004	1	4	0	192	107	0	2	98
random	6	1	110	1569580	6	3	3	1	0	991	1	4	0	184	108	0	2	98
random	6	1	111	1570993	2	2	2	1	0	995	1	4	0	176	109	0	2	98
random	6	1	112	1572413	3	1	1	1	0	1215	1	4	0	168	110	0	2	98
random	6	1	113	1574016	1	2	2	1	0	1331	1	4	0	176	111	0	2	98
random	6	1	114	1576211	2	3	3	1	0	1342	1	4	0	184	112	0	2	98
random	6	1	115	1578513	3	1	1	1	0	1125	1	4	0	168	113	0	2	98
random	6	1	116	1580109	4	4	4	1	0	961	1	4	0	192	114	0	2	98
random	6	1	117	1581803	6	1	1	1	0	1241	1	4	0	168	115	0	2	98
random	6	1	118	1583790	5	3	3	1	0	997	1	4	0	184	116	0	2	98
random	6	1	119	1585415	1	4	4	1	0	1008	1	4	0	192	117	0	2	98
random	6	1	120	1586744	4	2	2	1	0	1016	1	4	0	176	118	0	2	98
fixed	7	1	1	1589258	4	1	1	1	0	965	1	4	0	200	1	0	0	100
fixed	7	1	2	1591043	1	2	2	1	0	1066	1	4	0	208	2	0	0	100
fixed	7	1	3	1592950	6	4	4	1	0	1033	1	4	0	224	3	0	0	100
fixed	7	1	4	1594675	2	1	1	1	0	1008	1	4	0	200	4	0	0	100
fixed	7	1	5	1596081	5	3	3	1	0	980	1	4	0	216	5	0	0	100
fixed	7	1	6	1597944	6	4	4	1	0	926	1	4	0	224	6	0	0	100
fixed	7	1	7	1599382	3	1	1	1	0	880	1	4	0	200	7	0	0	100
fixed	7	1	8	1600645	2	3	0	1	2	0	3	4	0	216	7	0	1	88
fixed	7	1	9	1603540	3	2	2	1	0	1489	1	4	0	208	8	0	1	89
fixed	7	1	10	1605951	1	4	4	1	0	1018	1	4	0	224	9	0	1	90
fixed	7	1	11	1607373	5	2	2	1	0	1142	1	4	0	208	10	0	1	91
fixed	7	1	12	1608898	4	3	3	1	0	1405	1	4	0	216	11	0	1	92
fixed	7	2	1	1611264	4	1	1	1	0	1497	1	4	0	200	1	0	0	8
fixed	7	2	2	1613761	1	2	2	1	0	1311	1	4	0	208	2	0	0	14
fixed	7	2	3	1615877	6	4	4	1	0	1022	1	4	0	224	3	0	0	20
fixed	7	2	4	1617504	2	1	1	1	0	1169	1	4	0	200	4	0	0	25
fixed	7	2	5	1618972	5	3	3	1	0	1043	1	4	0	216	5	0	0	29
fixed	7	2	6	1620924	6	4	4	1	0	1040	1	4	0	224	6	0	0	33
fixed	7	2	7	1622370	3	1	1	1	0	819	1	4	0	200	7	0	0	37
fixed	7	2	8	1624160	2	3	3	1	0	1031	1	4	0	216	8	0	0	40
fixed	7	2	9	1625501	3	2	2	1	0	1078	1	4	0	208	9	0	0	43
fixed	7	2	10	1627340	1	4	4	1	0	864	1	4	0	224	10	0	0	45
fixed	7	2	11	1628612	5	2	2	1	0	1066	1	4	0	208	11	0	0	48
fixed	7	2	12	1630098	4	3	3	1	0	1475	1	4	0	216	12	0	0	50
fixed	7	3	1	1632399	4	1	1	1	0	850	1	4	0	200	1	0	0	4
fixed	7	3	2	1634011	1	2	2	1	0	950	1	4	0	208	2	0	0	8
fixed	7	3	3	1635619	6	4	4	1	0	858	1	4	0	224	3	0	0	11
fixed	7	3	4	1636762	2	1	1	1	0	1105	1	4	0	200	4	0	0	14
fixed	7	3	5	1638674	5	3	3	1	0	1008	1	4	0	216	5	0	0	17
fixed	7	3	6	1640694	6	4	4	1	0	907	1	4	0	224	6	0	0	20
fixed	7	3	7	1642570	3	1	1	1	0	1339	1	4	0	200	7	0	0	23
fixed	7	3	8	1644450	2	3	3	1	0	1284	1	4	0	216	8	0	0	25
fixed	7	3	9	1646730	3	2	2	1	0	707	1	4	0	208	9	0	0	27
fixed	7	3	10	1647925	1	4	4	1	0	904	1	4	0	224	10	0	0	29
fixed	7	3	11	1649127	5	2	2	1	0	1109	1	4	0	208	11	0	0	31
fixed	7	3	12	1650933	4	3	3	1	0	1297	1	4	0	216	12	0	0	33
fixed	7	4	1	1652849	4	1	1	1	0	872	1	4	0	200	1	0	0	3
fixed	7	4	2	1654556	1	2	2	1	0	1151	1	4	0	208	2	0	0	5
fixed	7	4	3	1656639	6	4	4	1	0	919	1	4	0	224	3	0	0	8
fixed	7	4	4	1658445	2	1	1	1	0	1378	1	4	0	200	4	0	0	10
fixed	7	4	5	1660130	5	3	3	1	0	1404	1	4	0	216	5	0	0	12
fixed	7	4	6	1662290	6	4	4	1	0	864	1	4	0	224	6	0	0	14
fixed	7	4	7	1663464	3	1	1	1	0	1086	1	4	0	200	7	0	0	16
fixed	7	4	8	1665019	2	3	3	1	0	1068	1	4	0	216	8	0	0	18
fixed	7	4	9	1666519	3	2	2	1	0	957	1	4	0	208	9	0	0	20
fixed	7	4	10	1668034	1	4	4	1	0	940	1	4	0	224	10	0	0	22
fixed	7	4	11	1669774	5	2	2	1	0	1011	1	4	0	208	11	0	0	23
fixed	7	4	12	1671280	4	3	3	1	0	1219	1	4	0	216	12	0	0	25
fixed	7	5	1	1673316	4	1	1	1	0	1029	1	4	0	200	1	0	0	2
fixed	7	5	2	1674732	1	2	2	1	0	1193	1	4	0	208	2	0	0	4
fixed	7	5	3	1676727	6	4	4	1	0	836	1	4	0	224	3	0	0	6
fixed	7	5	4	1677989	2	1	1	1	0	1047	1	4	0	200	4	0	0	8
fixed	7	5	5	1679795	5	3	3	1	0	1099	1	4	0	216	5	0	0	9
fixed	7	5	6	1681498	6	4	4	1	0	1179	1	4	0	224	6	0	0	11
fixed	7	5	7	1683499	3	1	1	1	0	870	1	4	0	200	7	0	0	13
fixed	7	5	8	1685265	2	3	3	1	0	1347	1	4	0	216	8	0	0	14
fixed	7	5	9	1687297	3	2	2	1	0	1077	1	4	0	208	9	0	0	16
fixed	7	5	10	1688825	1	4	4	1	0	940	1	4	0	224	10	0	0	17
fixed	7	5	11	1690761	5	2	2	1	0	1106	1	4	0	208	11	0	0	19
fixed	7	5	12	1692211	4	3	3	1	0	1428	1	4	0	216	12	0	0	20
fixed	7	6	1	1694619	4	1	1	1	0	886	1	4	0	200	1	0	0	2
fixed	7	6	2	1696415	1	2	2	1	0	1083	1	4	0	208	2	0	0	3
fixed	7	6	3	1698011	6	4	4	1	0	935	1	4	0	224	3	0	0	5
fixed	7	6	4	1699650	2	1	1	1	0	1049	1	4	0	200	4	0	0	6
fixed	7	6	5	1701687	5	3	3	1	0	955	1	4	0	216	5	0	0	8
fixed	7	6	6	1703001	6	4	4	1	0	1188	1	4	0	224	6	0	0	9
fixed	7	6	7	1705225	3	1	1	1	0	1149	1	4	0	200	7	0	0	10
fixed	7	6	8	1706800	2	3	3	1	0	1275	1	4	0	216	8	0	0	12
fixed	7	6	9	1708476	3	2	2	1	0	1140	1	4	0	208	9	0	0	13
fixed	7	6	10	1710585	1	4	4	1	0	1123	1	4	0	224	10	0	0	14
fixed	7	6	11	1712369	5	2	2	1	0	1079	1	4	0	208	11	0	0	15
fixed	7	6	12	1714396	4	3	3	1	0	1137	1	4	0	216	12	0	0	17
fixed	7	7	1	1716238	4	1	1	1	0	1051	1	4	0	200	1	0	0	1
fixed	7	7	2	1717966	1	2	2	1	0	986	1	4	0	208	2	0	0	3
fixed	7	7	3	1719666	6	4	4	1	0	1122	1	4	0	224	3	0	0	4
fixed	7	7	4	1721638	2	1	1	1	0	934	1	4	0	200	4	0	0	5
fixed	7	7	5	1723598	5	3	3	1	0	1051	1	4	0	216	5	0	0	6
fixed	7	7	6	1725045	6	4	4	1	0	1062	1	4	0	224	6	0	0	8
fixed	7	7	7	1726897	3	1	1	1	0	839	1	4	0	200	7	0	0	9
fixed	7	7	8	1728383	2	3	0	1	2	0	3	4	0	216	7	0	1	9
fixed	7	7	9	1731296	3	2	2	1	0	1173	1	4	0	208	8	0	1	10
fixed	7	7	10	1732806	1	4	4	1	0	965	1	4	0	224	9	0	1	11
fixed	7	7	11	1734519	5	2	2	1	0	1157	1	4	0	208	10	0	1	12
fixed	7	7	12	1736070	4	3	3	1	0	1003	1	4	0	216	11	0	1	13
fixed	7	8	1	1737724	4	1	1	1	0	933	1	4	0	200	1	0	0	1
fixed	7	8	2	1739386	1	2	2	1	0	1071	1	4	0	208	2	0	0	2
fixed	7	8	3	1741010	6	4	4	1	0	1146	1	4	0	224	3	0	0	3
fixed	7	8	4	1742699	2	1	1	1	0	1058	1	4	0	200	4	0	0	5
fixed	7	8	5	1744374	5	3	3	1	0	1547	1	4	0	216	5	0	0	6
fixed	7	8	6	1746829	6	4	4	1	0	1083	1	4	0	224	6	0	0	7
fixed	7	8	7	1748391	3	1	1	1	0	1129	1	4	0	200	7	0	0	8
fixed	7	8	8	1750289	2	3	3	1	0	1792	1	4	0	216	8	0	0	9
fixed	7	8	9	1752596	3	2	2	1	0	1055	1	4	0	208	9	0	0	10
fixed	7	8	10	1754508	1	4	4	1	0	966	1	4	0	224	10	0	0	11
fixed	7	8	11	1756055	5	2	2	1	0	1068	1	4	0	208	11	0	0	12
fixed	7	8	12	1758145	4	3	3	1	0	1068	1	4	0	216	12	0	0	13
fixed	7	9	1	1760480	4	1	1	1	0	1001	1	4	0	200	1	0	0	1
fixed	7	9	2	1761797	1	2	2	1	0	1314	1	4	0	208	2	0	0	2
fixed	7	9	3	1763693	6	4	4	1	0	889	1	4	0	224	3	0	0	3
fixed	7	9	4	1765391	2	1	1	1	0	977	1	4	0	200	4	0	0	4
fixed	7	9	5	1766901	5	3	3	1	0	913	1	4	0	216	5	0	0	5
fixed	7	9	6	1768323	6	4	4	1	0	957	1	4	0	224	6	0	0	6
fixed	7	9	7	1769878	3	1	1	1	0	891	1	4	0	200	7	0	0	7
fixed	7	9	8	1771287	2	3	3	1	0	1175	1	4	0	216	8	0	0	8
fixed	7	9	9	1773176	3	2	2	1	0	1023	1	4	0	208	9	0	0	9
fixed	7	9	10	1774860	1	4	4	1	0	904	1	4	0	224	10	0	0	9
fixed	7	9	11	1776633	5	2	2	1	0	1269	1	4	0	208	11	0	0	10
fixed	7	9	12	1778923	4	3	3	1	0	1084	1	4	0	216	12	0	0	11
fixed	7	10	1	1781231	4	1	1	1	0	1010	1	4	0	200	1	0	0	1
fixed	7	10	2	1782809	1	2	2	1	0	1471	1	4	0	208	2	0	0	2
fixed	7	10	3	1784600	6	4	4	1	0	1252	1	4	0	224	3	0	0	3
fixed	7	10	4	1786389	2	1	1	1	0	1440	1	4	0	200	4	0	0	4
fixed	7	10	5	1788518	5	3	3	1	0	1317	1	4	0	216	5	0	0	4
fixed	7	10	6	1790786	6	4	4	1	0	925	1	4	0	224	6	0	0	5
fixed	7	10	7	1792461	3	1	1	1	0	950	1	4	0	200	7	0	0	6
fixed	7	10	8	1794188	2	3	3	1	0	1173	1	4	0	216	8	0	0	7
fixed	7	10	9	1795823	3	2	2	1	0	832	1	4	0	208	9	0	0	8
fixed	7	10	10	1797308	1	4	4	1	0	961	1	4	0	224	10	0	0	8
fixed	7	10	11	1798658	5	2	2	1	0	1216	1	4	0	208	11	0	0	9
fixed	7	10	12	1800881	4	3	3	1	0	1074	1	4	0	216	12	0	0	10
