type	block	sequ.	trial	time	Pos.	Color	Button	NumRsp	Resp_1	RT_1	R_Code	Resp_2	RT_2	Trigg.	n_hit	n_inc	n_miss	score_%

random	1	1	1	3531	6	1	1	1	0	1195	1	4	0	8	1	0	0	100
random	1	1	2	5622	4	4	4	1	0	923	1	4	0	32	2	0	0	100
random	1	1	3	7130	2	2	2	1	0	1187	1	4	0	16	3	0	0	100
random	1	1	4	8883	3	3	3	1	0	961	1	4	0	24	4	0	0	100
random	1	1	5	10580	5	2	2	1	0	1081	1	4	0	16	5	0	0	100
random	1	1	6	12067	1	4	4	1	0	978	1	4	0	32	6	0	0	100
random	1	1	7	13524	6	1	1	1	0	1028	1	4	0	8	7	0	0	100
random	1	1	8	15160	2	3	3	1	0	1263	1	4	0	24	8	0	0	100
random	1	1	9	17277	4	2	2	1	0	1038	1	4	0	16	9	0	0	100
random	1	1	10	19147	1	1	1	1	0	1222	1	4	0	8	10	0	0	100
random	1	1	11	21020	5	4	4	1	0	855	1	4	0	32	11	0	0	100
random	1	1	12	22548	3	3	3	2	0	1070	2	4	0	24	12	0	0	100
random	1	1	13	24182	5	2	2	1	0	1241	1	4	0	16	13	0	0	100
random	1	1	14	25965	1	4	4	1	0	1110	1	4	0	32	14	0	0	100
random	1	1	15	27748	3	1	1	1	0	1026	1	4	0	8	15	0	0	100
random	1	1	16	29165	4	3	3	1	0	1094	1	4	0	24	16	0	0	100
random	1	1	17	30906	6	4	4	1	0	1084	1	4	0	32	17	0	0	100
random	1	1	18	32618	2	1	1	1	0	851	1	4	0	8	18	0	0	100
random	1	1	19	33836	5	3	3	1	0	1008	1	4	0	24	19	0	0	100
random	1	1	20	35449	2	2	2	1	0	1052	1	4	0	16	20	0	0	100
random	1	1	21	37130	3	3	3	1	0	988	1	4	0	24	21	0	0	100
random	1	1	22	38550	6	1	1	1	0	976	1	4	0	8	22	0	0	100
random	1	1	23	39975	4	2	2	1	0	1284	1	4	0	16	23	0	0	100
random	1	1	24	41829	1	4	4	1	0	877	1	4	0	32	24	0	0	100
random	1	1	25	43648	4	3	3	1	0	1432	1	4	0	24	25	0	0	100
random	1	1	26	45939	2	1	1	1	0	1031	1	4	0	8	26	0	0	100
random	1	1	27	47641	5	2	2	1	0	1223	1	4	0	16	27	0	0	100
random	1	1	28	49562	6	4	4	1	0	1134	1	4	0	32	28	0	0	100
random	1	1	29	51574	1	3	3	1	0	1145	1	4	0	24	29	0	0	100
random	1	1	30	53078	5	2	2	1	0	1033	1	4	0	16	30	0	0	100
random	1	1	31	54956	2	1	1	1	0	985	1	4	0	8	31	0	0	100
random	1	1	32	56980	3	3	3	1	0	1091	1	4	0	24	32	0	0	100
random	1	1	33	58903	6	4	4	1	0	1034	1	4	0	32	33	0	0	100
random	1	1	34	60604	4	2	2	1	0	954	1	4	0	16	34	0	0	100
random	1	1	35	62530	3	4	4	1	0	833	1	4	0	32	35	0	0	100
random	1	1	36	64143	1	1	0	1	2	0	3	4	0	8	35	0	1	97
random	1	1	37	67239	3	4	4	1	0	1089	1	4	0	32	36	0	1	97
random	1	1	38	68643	5	3	3	1	0	1198	1	4	0	24	37	0	1	97
random	1	1	39	70206	6	1	1	1	0	1180	1	4	0	8	38	0	1	97
random	1	1	40	72289	1	2	2	1	0	891	1	4	0	16	39	0	1	98
random	1	1	41	74091	2	3	3	1	0	999	1	4	0	24	40	0	1	98
random	1	1	42	75562	4	4	4	1	0	921	1	4	0	32	41	0	1	98
random	1	1	43	77497	1	2	2	1	0	1423	1	4	0	16	42	0	1	98
random	1	1	44	79489	6	3	3	1	0	946	1	4	0	24	43	0	1	98
random	1	1	45	81157	3	1	1	1	0	987	1	4	0	8	44	0	1	98
random	1	1	46	82875	4	4	4	1	0	1059	1	4	0	32	45	0	1	98
random	1	1	47	84284	2	2	2	1	0	1023	1	4	0	16	46	0	1	98
random	1	1	48	85821	5	1	1	1	0	982	1	4	0	8	47	0	1	98
random	1	1	49	87539	2	3	3	1	0	1133	1	4	0	24	48	0	1	98
random	1	1	50	89173	3	1	1	1	0	1153	1	4	0	8	49	0	1	98
random	1	1	51	91110	1	4	4	1	0	927	1	4	0	32	50	0	1	98
random	1	1	52	92621	5	3	3	1	0	1134	1	4	0	24	51	0	1	98
random	1	1	53	94371	3	2	2	1	0	820	1	4	0	16	52	0	1	98
random	1	1	54	96071	6	4	4	1	0	1348	1	4	0	32	53	0	1	98
random	1	1	55	98431	4	2	2	1	0	1128	1	4	0	16	54	0	1	98
random	1	1	56	100100	1	1	1	1	0	962	1	4	0	8	55	0	1	98
random	1	1	57	101926	5	4	4	1	0	844	1	4	0	32	56	0	1	98
random	1	1	58	103801	2	1	1	1	0	957	1	4	0	8	57	0	1	98
random	1	1	59	105651	6	2	2	1	0	1006	1	4	0	16	58	0	1	98
random	1	1	60	107245	4	3	3	1	0	1011	1	4	0	24	59	0	1	98
random	1	1	61	109058	1	2	2	1	0	1630	1	4	0	16	60	0	1	98
random	1	1	62	111250	6	4	4	1	0	873	1	4	0	32	61	0	1	98
random	1	1	63	112768	4	1	1	1	0	953	1	4	0	8	62	0	1	98
random	1	1	64	114174	2	2	2	1	0	989	1	4	0	16	63	0	1	98
random	1	1	65	116202	4	3	3	1	0	904	1	4	0	24	64	0	1	98
random	1	1	66	117410	3	1	1	1	0	980	1	4	0	8	65	0	1	98
random	1	1	67	118932	1	3	3	1	0	1100	1	4	0	24	66	0	1	99
random	1	1	68	120950	5	4	4	1	0	919	1	4	0	32	67	0	1	99
random	1	1	69	122873	2	2	2	1	0	1021	1	4	0	16	68	0	1	99
random	1	1	70	124471	3	1	1	1	0	1009	1	4	0	8	69	0	1	99
random	1	1	71	126063	5	4	4	1	0	910	1	4	0	32	70	0	1	99
random	1	1	72	127331	6	3	3	1	0	1200	1	4	0	24	71	0	1	99
random	1	1	73	129074	2	1	1	1	0	886	1	4	0	8	72	0	1	99
random	1	1	74	130746	5	3	3	1	0	863	1	4	0	24	73	0	1	99
random	1	1	75	131925	1	4	4	1	0	1062	1	4	0	32	74	0	1	99
random	1	1	76	133583	6	2	2	1	0	1103	1	4	0	16	75	0	1	99
random	1	1	77	135311	2	1	1	1	0	1150	1	4	0	8	76	0	1	99
random	1	1	78	136850	4	4	4	1	0	1029	1	4	0	32	77	0	1	99
random	1	1	79	138527	3	2	2	1	0	1110	1	4	0	16	78	0	1	99
random	1	1	80	140131	4	3	3	1	0	1194	1	4	0	24	79	0	1	99
random	1	1	81	142160	1	4	4	1	0	972	1	4	0	32	80	0	1	99
random	1	1	82	144124	5	1	1	1	0	833	1	4	0	8	81	0	1	99
random	1	1	83	145650	3	2	2	1	0	1144	1	4	0	16	82	0	1	99
random	1	1	84	147789	6	3	3	1	0	1069	1	4	0	24	83	0	1	99
random	1	1	85	149424	3	2	0	1	2	0	3	4	0	16	83	0	2	98
random	1	1	86	152525	1	3	3	1	0	1133	1	4	0	24	84	0	2	98
random	1	1	87	153973	4	4	4	1	0	1000	1	4	0	32	85	0	2	98
random	1	1	88	155309	2	1	1	1	0	1303	1	4	0	8	86	0	2	98
random	1	1	89	157628	6	4	4	1	0	957	1	4	0	32	87	0	2	98
random	1	1	90	159015	3	3	3	1	0	1114	1	4	0	24	88	0	2	98
random	1	1	91	161038	5	4	4	1	0	1108	1	4	0	32	89	0	2	98
random	1	1	92	162605	1	2	2	1	0	1082	1	4	0	16	90	0	2	98
random	1	1	93	164408	5	1	1	1	0	966	1	4	0	8	91	0	2	98
random	1	1	94	166279	4	3	3	1	0	926	1	4	0	24	92	0	2	98
random	1	1	95	167667	6	1	1	1	0	1219	1	4	0	8	93	0	2	98
random	1	1	96	169328	2	2	2	1	0	1101	1	4	0	16	94	0	2	98
random	1	1	97	171696	4	3	3	1	0	1225	1	4	0	24	95	0	2	98
random	1	1	98	173542	3	2	2	1	0	1003	1	4	0	16	96	0	2	98
random	1	1	99	175502	6	3	3	1	0	1328	1	4	0	24	97	0	2	98
random	1	1	100	177730	1	4	4	1	0	905	1	4	0	32	98	0	2	98
random	1	1	101	179323	4	1	1	1	0	854	1	4	0	8	99	0	2	98
random	1	1	102	181028	5	2	2	1	0	1118	1	4	0	16	100	0	2	98
random	1	1	103	182778	2	4	4	1	0	972	1	4	0	32	101	0	2	98
random	1	1	104	184385	3	1	0	1	2	0	3	4	0	8	101	0	3	97
random	1	1	105	187431	1	3	3	1	0	1286	1	4	0	24	102	0	3	97
random	1	1	106	189588	2	2	2	1	0	1059	1	4	0	16	103	0	3	97
random	1	1	107	191384	5	4	4	1	0	855	1	4	0	32	104	0	3	97
random	1	1	108	192555	6	1	1	1	0	1046	1	4	0	8	105	0	3	97
random	1	1	109	194435	5	4	4	1	0	1006	1	4	0	32	106	0	3	97
random	1	1	110	196326	6	3	3	1	0	1406	1	4	0	24	107	0	3	97
random	1	1	111	198595	2	2	0	1	2	0	3	4	0	16	107	0	4	96
random	1	1	112	201860	3	1	1	1	0	1355	1	4	0	8	108	0	4	96
random	1	1	113	204224	1	2	2	1	0	951	1	4	0	16	109	0	4	96
random	1	1	114	205812	2	3	3	1	0	1388	1	4	0	24	110	0	4	96
random	1	1	115	207514	3	1	1	1	0	988	1	4	0	8	111	0	4	97
random	1	1	116	209187	4	4	4	1	0	885	1	4	0	32	112	0	4	97
random	1	1	117	210719	6	1	1	2	0	1308	2	4	0	8	113	0	4	97
random	1	1	118	212761	5	3	3	2	0	2365	2	4	0	24	114	0	4	97
random	1	1	119	215904	1	4	4	1	0	1056	1	4	0	32	115	0	4	97
random	1	1	120	217913	4	2	2	1	0	1291	1	4	0	16	116	0	4	97
fixed	2	1	1	220430	4	1	1	1	0	1105	1	4	0	40	1	0	0	100
fixed	2	1	2	221949	1	2	2	1	0	1184	1	4	0	48	2	0	0	100
fixed	2	1	3	224146	6	4	4	1	0	939	1	4	0	64	3	0	0	100
fixed	2	1	4	225436	2	1	1	1	0	1021	1	4	0	40	4	0	0	100
fixed	2	1	5	227384	5	3	3	1	0	1458	1	4	0	56	5	0	0	100
fixed	2	1	6	229421	6	4	4	1	0	892	1	4	0	64	6	0	0	100
fixed	2	1	7	230833	3	1	1	1	0	752	1	4	0	40	7	0	0	100
fixed	2	1	8	232092	2	3	3	1	0	1051	1	4	0	56	8	0	0	100
fixed	2	1	9	234101	3	2	2	1	0	1030	1	4	0	48	9	0	0	100
fixed	2	1	10	236124	1	4	4	1	0	952	1	4	0	64	10	0	0	100
fixed	2	1	11	237759	5	2	2	1	0	1379	1	4	0	48	11	0	0	100
fixed	2	1	12	240135	4	3	3	1	0	1542	1	4	0	56	12	0	0	100
fixed	2	2	1	242503	4	1	1	1	0	962	1	4	0	40	13	0	0	100
fixed	2	2	2	243809	1	2	2	1	0	1115	1	4	0	48	14	0	0	100
fixed	2	2	3	245212	6	4	4	1	0	903	1	4	0	64	15	0	0	100
fixed	2	2	4	246680	2	1	1	1	0	841	1	4	0	40	16	0	0	100
fixed	2	2	5	247888	5	3	3	1	0	1054	1	4	0	56	17	0	0	100
fixed	2	2	6	249313	6	4	4	1	0	978	1	4	0	64	18	0	0	100
fixed	2	2	7	250967	3	1	1	1	0	924	1	4	0	40	19	0	0	100
fixed	2	2	8	252625	2	3	3	1	0	1253	1	4	0	56	20	0	0	100
fixed	2	2	9	254338	3	2	2	1	0	957	1	4	0	48	21	0	0	100
fixed	2	2	10	256050	1	4	4	1	0	852	1	4	0	64	22	0	0	100
fixed	2	2	11	257697	5	2	2	1	0	1118	1	4	0	48	23	0	0	100
fixed	2	2	12	259100	4	3	3	1	0	1131	1	4	0	56	24	0	0	100
fixed	2	3	1	260814	4	1	1	1	0	906	1	4	0	40	25	0	0	100
fixed	2	3	2	262707	1	2	2	1	0	1058	1	4	0	48	26	0	0	100
fixed	2	3	3	264224	6	4	4	1	0	946	1	4	0	64	27	0	0	100
fixed	2	3	4	265750	2	1	1	1	0	1217	1	4	0	40	28	0	0	100
fixed	2	3	5	267788	5	3	3	1	0	1027	1	4	0	56	29	0	0	100
fixed	2	3	6	269248	6	4	4	1	0	926	1	4	0	64	30	0	0	100
fixed	2	3	7	270878	3	1	1	1	0	768	1	4	0	40	31	0	0	100
fixed	2	3	8	272375	2	3	3	1	0	992	1	4	0	56	32	0	0	100
fixed	2	3	9	274083	3	2	2	1	0	744	1	4	0	48	33	0	0	100
fixed	2	3	10	275861	1	4	4	1	0	885	1	4	0	64	34	0	0	100
fixed	2	3	11	277349	5	2	2	1	0	1190	1	4	0	48	35	0	0	100
fixed	2	3	12	279528	4	3	3	1	0	978	1	4	0	56	36	0	0	100
fixed	2	4	1	281164	4	1	1	1	0	940	1	4	0	40	37	0	0	100
fixed	2	4	2	282880	1	2	2	1	0	1020	1	4	0	48	38	0	0	100
fixed	2	4	3	284822	6	4	4	1	0	873	1	4	0	64	39	0	0	100
fixed	2	4	4	286357	2	1	1	1	0	961	1	4	0	40	40	0	0	100
fixed	2	4	5	287999	5	3	3	1	0	1059	1	4	0	56	41	0	0	100
fixed	2	4	6	290055	6	4	4	1	0	876	1	4	0	64	42	0	0	100
fixed	2	4	7	291749	3	1	1	1	0	956	1	4	0	40	43	0	0	100
fixed	2	4	8	293169	2	3	3	1	0	1088	1	4	0	56	44	0	0	100
fixed	2	4	9	294987	3	2	2	1	0	875	1	4	0	48	45	0	0	100
fixed	2	4	10	296680	1	4	4	1	0	924	1	4	0	64	46	0	0	100
fixed	2	4	11	297936	5	2	2	1	0	1174	1	4	0	48	47	0	0	100
fixed	2	4	12	299822	4	3	3	1	0	1422	1	4	0	56	48	0	0	100
fixed	2	5	1	302383	4	1	1	1	0	898	1	4	0	40	49	0	0	100
fixed	2	5	2	303612	1	2	2	1	0	1246	1	4	0	48	50	0	0	100
fixed	2	5	3	305307	6	4	4	1	0	966	1	4	0	64	51	0	0	100
fixed	2	5	4	306910	2	1	1	1	0	970	1	4	0	40	52	0	0	100
fixed	2	5	5	308279	5	3	3	1	0	1104	1	4	0	56	53	0	0	100
fixed	2	5	6	310343	6	4	4	1	0	905	1	4	0	64	54	0	0	100
fixed	2	5	7	312141	3	1	1	1	0	1268	1	4	0	40	55	0	0	100
fixed	2	5	8	314223	2	3	3	1	0	1132	1	4	0	56	56	0	0	100
fixed	2	5	9	316107	3	2	2	1	0	1029	1	4	0	48	57	0	0	100
fixed	2	5	10	317683	1	4	4	1	0	946	1	4	0	64	58	0	0	100
fixed	2	5	11	318990	5	2	2	1	0	1178	1	4	0	48	59	0	0	100
fixed	2	5	12	320673	4	3	3	1	0	1131	1	4	0	56	60	0	0	100
fixed	2	6	1	323000	4	1	1	1	0	1040	1	4	0	40	61	0	0	100
fixed	2	6	2	324432	1	2	2	1	0	1436	1	4	0	48	62	0	0	100
fixed	2	6	3	326443	6	4	4	1	0	806	1	4	0	64	63	0	0	100
fixed	2	6	4	327840	2	1	1	1	0	1068	1	4	0	40	64	0	0	100
fixed	2	6	5	329625	5	3	3	1	0	968	1	4	0	56	65	0	0	100
fixed	2	6	6	331551	6	4	4	1	0	959	1	4	0	64	66	0	0	100
fixed	2	6	7	333075	3	1	1	1	0	886	1	4	0	40	67	0	0	100
fixed	2	6	8	334779	2	3	3	2	0	2045	2	4	0	56	68	0	0	100
fixed	2	6	9	337183	3	2	2	1	0	1199	1	4	0	48	69	0	0	100
fixed	2	6	10	339259	1	4	4	1	0	960	1	4	0	64	70	0	0	100
fixed	2	6	11	340966	5	2	2	1	0	1216	1	4	0	48	71	0	0	100
fixed	2	6	12	342604	4	3	3	1	0	1186	1	4	0	56	72	0	0	100
fixed	2	7	1	344687	4	1	1	1	0	1010	1	4	0	40	73	0	0	100
fixed	2	7	2	346541	1	2	2	1	0	1011	1	4	0	48	74	0	0	100
fixed	2	7	3	348125	6	4	4	1	0	897	1	4	0	64	75	0	0	100
fixed	2	7	4	349377	2	1	1	1	0	996	1	4	0	40	76	0	0	100
fixed	2	7	5	350735	5	3	3	1	0	1074	1	4	0	56	77	0	0	100
fixed	2	7	6	352849	6	4	4	1	0	944	1	4	0	64	78	0	0	100
fixed	2	7	7	354402	3	1	1	1	0	1071	1	4	0	40	79	0	0	100
fixed	2	7	8	355790	2	3	3	2	0	1692	2	4	0	56	80	0	0	100
fixed	2	7	9	358508	3	2	2	1	0	1080	1	4	0	48	81	0	0	100
fixed	2	7	10	360152	1	4	4	1	0	875	1	4	0	64	82	0	0	100
fixed	2	7	11	361820	5	2	2	1	0	1324	1	4	0	48	83	0	0	100
fixed	2	7	12	363447	4	3	3	1	0	1095	1	4	0	56	84	0	0	100
fixed	2	8	1	365103	4	1	1	1	0	849	1	4	0	40	85	0	0	100
fixed	2	8	2	366338	1	2	2	1	0	1133	1	4	0	48	86	0	0	100
fixed	2	8	3	368173	6	4	4	1	0	863	1	4	0	64	87	0	0	100
fixed	2	8	4	369967	2	1	1	1	0	883	1	4	0	40	88	0	0	100
fixed	2	8	5	371826	5	3	3	1	0	972	1	4	0	56	89	0	0	100
fixed	2	8	6	373548	6	4	4	1	0	892	1	4	0	64	90	0	0	100
fixed	2	8	7	374925	3	1	1	1	0	1633	1	4	0	40	91	0	0	100
fixed	2	8	8	376960	2	3	3	1	0	1179	1	4	0	56	92	0	0	100
fixed	2	8	9	378721	3	2	2	1	0	1024	1	4	0	48	93	0	0	100
fixed	2	8	10	380572	1	4	4	1	0	882	1	4	0	64	94	0	0	100
fixed	2	8	11	382286	5	2	2	1	0	1058	1	4	0	48	95	0	0	100
fixed	2	8	12	383641	4	3	3	1	0	1096	1	4	0	56	96	0	0	100
fixed	2	9	1	385654	4	1	1	1	0	907	1	4	0	40	97	0	0	100
fixed	2	9	2	387417	1	2	2	1	0	1008	1	4	0	48	98	0	0	100
fixed	2	9	3	389104	6	4	4	1	0	817	1	4	0	64	99	0	0	100
fixed	2	9	4	390574	2	1	1	1	0	891	1	4	0	40	100	0	0	100
fixed	2	9	5	392469	5	3	3	1	0	1018	1	4	0	56	101	0	0	100
fixed	2	9	6	394352	6	4	4	1	0	939	1	4	0	64	102	0	0	100
fixed	2	9	7	396294	3	1	1	1	0	800	1	4	0	40	103	0	0	100
fixed	2	9	8	397582	2	3	3	1	0	1113	1	4	0	56	104	0	0	100
fixed	2	9	9	399063	3	2	2	1	0	931	1	4	0	48	105	0	0	100
fixed	2	9	10	400706	1	4	4	1	0	837	1	4	0	64	106	0	0	100
fixed	2	9	11	402034	5	2	2	1	0	997	1	4	0	48	107	0	0	100
fixed	2	9	12	403379	4	3	3	1	0	972	1	4	0	56	108	0	0	100
fixed	2	10	1	404985	4	1	1	1	0	888	1	4	0	40	109	0	0	100
fixed	2	10	2	406192	1	2	2	1	0	1157	1	4	0	48	110	0	0	100
fixed	2	10	3	407918	6	4	4	1	0	908	1	4	0	64	111	0	0	100
fixed	2	10	4	409476	2	1	1	1	0	1393	1	4	0	40	112	0	0	100
fixed	2	10	5	411778	5	3	3	1	0	1064	1	4	0	56	113	0	0	100
fixed	2	10	6	413627	6	4	4	1	0	1090	1	4	0	64	114	0	0	100
fixed	2	10	7	415048	3	1	1	1	0	1230	1	4	0	40	115	0	0	100
fixed	2	10	8	416995	2	3	3	1	0	1403	1	4	0	56	116	0	0	100
fixed	2	10	9	418911	3	2	2	1	0	1106	1	4	0	48	117	0	0	100
fixed	2	10	10	420765	1	4	4	1	0	852	1	4	0	64	118	0	0	100
fixed	2	10	11	422406	5	2	2	1	0	1238	1	4	0	48	119	0	0	100
fixed	2	10	12	424377	4	3	3	1	0	1115	1	4	0	56	120	0	0	100
fixed	3	1	1	426535	4	1	1	1	0	895	1	4	0	72	1	0	0	100
fixed	3	1	2	428133	1	2	2	1	0	948	1	4	0	80	2	0	0	100
fixed	3	1	3	429855	6	4	4	1	0	835	1	4	0	96	3	0	0	100
fixed	3	1	4	431327	2	1	1	1	0	933	1	4	0	72	4	0	0	100
fixed	3	1	5	432656	5	3	3	1	0	1036	1	4	0	88	5	0	0	100
fixed	3	1	6	434561	6	4	4	1	0	843	1	4	0	96	6	0	0	100
fixed	3	1	7	436374	3	1	1	1	0	727	1	4	0	72	7	0	0	100
fixed	3	1	8	437532	2	3	3	1	0	1037	1	4	0	88	8	0	0	100
fixed	3	1	9	439478	3	2	2	1	0	819	1	4	0	80	9	0	0	100
fixed	3	1	10	440620	1	4	4	1	0	1050	1	4	0	96	10	0	0	100
fixed	3	1	11	442630	5	2	2	1	0	1117	1	4	0	80	11	0	0	100
fixed	3	1	12	444738	4	3	3	2	0	2020	2	4	0	88	12	0	0	100
fixed	3	2	1	447639	4	1	1	1	0	1089	1	4	0	72	13	0	0	100
fixed	3	2	2	449046	1	2	2	1	0	1222	1	4	0	80	14	0	0	100
fixed	3	2	3	451249	6	4	4	1	0	928	1	4	0	96	15	0	0	100
fixed	3	2	4	453094	2	1	1	1	0	962	1	4	0	72	16	0	0	100
fixed	3	2	5	454382	5	3	3	1	0	1612	1	4	0	88	17	0	0	100
fixed	3	2	6	456656	6	4	4	1	0	1076	1	4	0	96	18	0	0	100
fixed	3	2	7	458110	3	1	1	1	0	1022	1	4	0	72	19	0	0	100
fixed	3	2	8	460096	2	3	3	1	0	1218	1	4	0	88	20	0	0	100
fixed	3	2	9	462086	3	2	2	1	0	974	1	4	0	80	21	0	0	100
fixed	3	2	10	463974	1	4	4	1	0	910	1	4	0	96	22	0	0	100
fixed	3	2	11	465227	5	2	2	1	0	1145	1	4	0	80	23	0	0	100
fixed	3	2	12	467166	4	3	3	1	0	991	1	4	0	88	24	0	0	100
fixed	3	3	1	468958	4	1	1	1	0	842	1	4	0	72	25	0	0	100
fixed	3	3	2	470168	1	2	2	1	0	1087	1	4	0	80	26	0	0	100
fixed	3	3	3	472250	6	4	4	1	0	863	1	4	0	96	27	0	0	100
fixed	3	3	4	473438	2	1	1	1	0	1277	1	4	0	72	28	0	0	100
fixed	3	3	5	475741	5	3	3	1	0	1051	1	4	0	88	29	0	0	100
fixed	3	3	6	477264	6	4	4	1	0	962	1	4	0	96	30	0	0	100
fixed	3	3	7	478609	3	1	1	1	0	962	1	4	0	72	31	0	0	100
fixed	3	3	8	480289	2	3	3	1	0	1130	1	4	0	88	32	0	0	100
fixed	3	3	9	482135	3	2	2	1	0	933	1	4	0	80	33	0	0	100
fixed	3	3	10	483796	1	4	4	1	0	1302	1	4	0	96	34	0	0	100
fixed	3	3	11	485746	5	2	2	1	0	972	1	4	0	80	35	0	0	100
fixed	3	3	12	487076	4	3	3	1	0	1003	1	4	0	88	36	0	0	100
fixed	3	4	1	488824	4	1	1	1	0	945	1	4	0	72	37	0	0	100
fixed	3	4	2	490393	1	2	2	1	0	1030	1	4	0	80	38	0	0	100
fixed	3	4	3	491782	6	4	4	1	0	948	1	4	0	96	39	0	0	100
fixed	3	4	4	493648	2	1	1	1	0	1021	1	4	0	72	40	0	0	100
fixed	3	4	5	495495	5	3	3	1	0	1054	1	4	0	88	41	0	0	100
fixed	3	4	6	497076	6	4	4	2	0	2219	2	4	0	96	42	0	0	100
fixed	3	4	7	500029	3	1	1	1	0	1079	1	4	0	72	43	0	0	100
fixed	3	4	8	501606	2	3	3	1	0	2027	1	4	0	88	44	0	0	100
fixed	3	4	9	504457	3	2	2	1	0	1067	1	4	0	80	45	0	0	100
fixed	3	4	10	505828	1	4	4	1	0	1209	1	4	0	96	46	0	0	100
fixed	3	4	11	507964	5	2	2	1	0	1263	1	4	0	80	47	0	0	100
fixed	3	4	12	510044	4	3	3	1	0	1150	1	4	0	88	48	0	0	100
fixed	3	5	1	512014	4	1	1	1	0	947	1	4	0	72	49	0	0	100
fixed	3	5	2	513299	1	2	2	1	0	1060	1	4	0	80	50	0	0	100
fixed	3	5	3	514807	6	4	4	1	0	900	1	4	0	96	51	0	0	100
fixed	3	5	4	516078	2	1	1	1	0	1023	1	4	0	72	52	0	0	100
fixed	3	5	5	517493	5	3	3	1	0	1178	1	4	0	88	53	0	0	100
fixed	3	5	6	519209	6	4	4	1	0	874	1	4	0	96	54	0	0	100
fixed	3	5	7	520375	3	1	1	1	0	1185	1	4	0	72	55	0	0	100
fixed	3	5	8	522189	2	3	3	1	0	1084	1	4	0	88	56	0	0	100
fixed	3	5	9	524206	3	2	2	1	0	895	1	4	0	80	57	0	0	100
fixed	3	5	10	525584	1	4	4	1	0	996	1	4	0	96	58	0	0	100
fixed	3	5	11	526926	5	2	2	1	0	1563	1	4	0	80	59	0	0	100
fixed	3	5	12	528947	4	3	3	1	0	1086	1	4	0	88	60	0	0	100
fixed	3	6	1	531077	4	1	1	1	0	931	1	4	0	72	61	0	0	100
fixed	3	6	2	532745	1	2	2	1	0	1205	1	4	0	80	62	0	0	100
fixed	3	6	3	534898	6	4	4	1	0	778	1	4	0	96	63	0	0	100
fixed	3	6	4	536387	2	1	1	1	0	931	1	4	0	72	64	0	0	100
fixed	3	6	5	537941	5	3	3	1	0	1200	1	4	0	88	65	0	0	100
fixed	3	6	6	539476	6	4	4	1	0	1344	1	4	0	96	66	0	0	100
fixed	3	6	7	541665	3	1	1	1	0	723	1	4	0	72	67	0	0	100
fixed	3	6	8	543315	2	3	3	1	0	1117	1	4	0	88	68	0	0	100
fixed	3	6	9	545106	3	2	2	1	0	969	1	4	0	80	69	0	0	100
fixed	3	6	10	546538	1	4	4	1	0	997	1	4	0	96	70	0	0	100
fixed	3	6	11	548363	5	2	2	1	0	1735	1	4	0	80	71	0	0	100
fixed	3	6	12	550530	4	3	3	1	0	1049	1	4	0	88	72	0	0	100
fixed	3	7	1	552881	4	1	1	1	0	1040	1	4	0	72	73	0	0	100
fixed	3	7	2	554853	1	2	2	1	0	1068	1	4	0	80	74	0	0	100
fixed	3	7	3	556628	6	4	4	1	0	961	1	4	0	96	75	0	0	100
fixed	3	7	4	558096	2	1	1	1	0	1003	1	4	0	72	76	0	0	100
fixed	3	7	5	559816	5	3	3	1	0	1114	1	4	0	88	77	0	0	100
fixed	3	7	6	561517	6	4	0	0	2	0	3	4	0	96	77	0	1	99
fixed	3	7	7	564529	3	1	1	1	0	970	1	4	0	72	78	0	1	99
fixed	3	7	8	566210	2	3	3	1	0	1252	1	4	0	88	79	0	1	99
fixed	3	7	9	568359	3	2	2	1	0	760	1	4	0	80	80	0	1	99
fixed	3	7	10	569636	1	4	4	1	0	898	1	4	0	96	81	0	1	99
fixed	3	7	11	571152	5	2	2	1	0	1162	1	4	0	80	82	0	1	99
fixed	3	7	12	572982	4	3	3	1	0	1204	1	4	0	88	83	0	1	99
fixed	3	8	1	575419	4	1	1	1	0	917	1	4	0	72	84	0	1	99
fixed	3	8	2	576842	1	2	2	1	0	1817	1	4	0	80	85	0	1	99
fixed	3	8	3	579007	6	4	4	1	0	910	1	4	0	96	86	0	1	99
fixed	3	8	4	580843	2	1	1	1	0	952	1	4	0	72	87	0	1	99
fixed	3	8	5	582191	5	3	3	1	0	1038	1	4	0	88	88	0	1	99
fixed	3	8	6	584023	6	4	4	1	0	881	1	4	0	96	89	0	1	99
fixed	3	8	7	585893	3	1	1	1	0	841	1	4	0	72	90	0	1	99
fixed	3	8	8	587661	2	3	3	1	0	1031	1	4	0	88	91	0	1	99
fixed	3	8	9	589181	3	2	2	1	0	975	1	4	0	80	92	0	1	99
fixed	3	8	10	590800	1	4	4	1	0	938	1	4	0	96	93	0	1	99
fixed	3	8	11	592302	5	2	2	1	0	1202	1	4	0	80	94	0	1	99
fixed	3	8	12	594203	4	3	3	1	0	1290	1	4	0	88	95	0	1	99
fixed	3	9	1	596321	4	1	1	1	0	1120	1	4	0	72	96	0	1	99
fixed	3	9	2	598290	1	2	2	1	0	1484	1	4	0	80	97	0	1	99
fixed	3	9	3	600609	6	4	4	1	0	883	1	4	0	96	98	0	1	99
fixed	3	9	4	601942	2	1	1	1	0	1114	1	4	0	72	99	0	1	99
fixed	3	9	5	603479	5	3	3	1	0	1297	1	4	0	88	100	0	1	99
fixed	3	9	6	605605	6	4	4	1	0	903	1	4	0	96	101	0	1	99
fixed	3	9	7	607496	3	1	1	2	0	1574	2	4	0	72	102	0	1	99
fixed	3	9	8	610055	2	3	3	1	0	1298	1	4	0	88	103	0	1	99
fixed	3	9	9	612192	3	2	2	1	0	807	1	4	0	80	104	0	1	99
fixed	3	9	10	613733	1	4	4	1	0	910	1	4	0	96	105	0	1	99
fixed	3	9	11	615270	5	2	2	1	0	1053	1	4	0	80	106	0	1	99
fixed	3	9	12	616813	4	3	3	1	0	1212	1	4	0	88	107	0	1	99
fixed	3	10	1	618976	4	1	1	1	0	1000	1	4	0	72	108	0	1	99
fixed	3	10	2	620778	1	2	2	1	0	1380	1	4	0	80	109	0	1	99
fixed	3	10	3	622558	6	4	4	1	0	1073	1	4	0	96	110	0	1	99
fixed	3	10	4	624039	2	1	1	1	0	1130	1	4	0	72	111	0	1	99
fixed	3	10	5	625471	5	3	3	1	0	1150	1	4	0	88	112	0	1	99
fixed	3	10	6	627540	6	4	4	1	0	854	1	4	0	96	113	0	1	99
fixed	3	10	7	628942	3	1	1	1	0	1162	1	4	0	72	114	0	1	99
fixed	3	10	8	630805	2	3	3	1	0	1091	1	4	0	88	115	0	1	99
fixed	3	10	9	632452	3	2	2	1	0	1046	1	4	0	80	116	0	1	99
fixed	3	10	10	634308	1	4	4	1	0	1031	1	4	0	96	117	0	1	99
fixed	3	10	11	635901	5	2	2	1	0	1299	1	4	0	80	118	0	1	99
fixed	3	10	12	637869	4	3	3	1	0	1504	1	4	0	88	119	0	1	99
fixed	4	1	1	736913	4	1	1	1	0	1957	1	4	0	104	1	0	0	100
fixed	4	1	2	739198	1	2	2	1	0	1093	1	4	0	112	2	0	0	100
fixed	4	1	3	741090	6	4	4	1	0	972	1	4	0	128	3	0	0	100
fixed	4	1	4	743088	2	1	1	1	0	1000	1	4	0	104	4	0	0	100
fixed	4	1	5	744604	5	3	3	1	0	1023	1	4	0	120	5	0	0	100
fixed	4	1	6	746186	6	4	4	1	0	884	1	4	0	128	6	0	0	100
fixed	4	1	7	747738	3	1	1	1	0	835	1	4	0	104	7	0	0	100
fixed	4	1	8	749406	2	3	3	1	0	1092	1	4	0	120	8	0	0	100
fixed	4	1	9	750793	3	2	2	1	0	889	1	4	0	112	9	0	0	100
fixed	4	1	10	752007	1	4	4	1	0	862	1	4	0	128	10	0	0	100
fixed	4	1	11	753649	5	2	2	1	0	1032	1	4	0	112	11	0	0	100
fixed	4	1	12	755526	4	3	3	1	0	912	1	4	0	120	12	0	0	100
fixed	4	2	1	757149	4	1	1	1	0	844	1	4	0	104	13	0	0	100
fixed	4	2	2	758728	1	2	2	1	0	961	1	4	0	112	14	0	0	100
fixed	4	2	3	760629	6	4	4	1	0	953	1	4	0	128	15	0	0	100
fixed	4	2	4	762197	2	1	1	1	0	1150	1	4	0	104	16	0	0	100
fixed	4	2	5	764302	5	3	3	1	0	877	1	4	0	120	17	0	0	100
fixed	4	2	6	766169	6	4	4	1	0	878	1	4	0	128	18	0	0	100
fixed	4	2	7	767790	3	1	1	1	0	873	1	4	0	104	19	0	0	100
fixed	4	2	8	769252	2	3	3	1	0	1019	1	4	0	120	20	0	0	100
fixed	4	2	9	770575	3	2	2	1	0	1060	1	4	0	112	21	0	0	100
fixed	4	2	10	772260	1	4	4	1	0	916	1	4	0	128	22	0	0	100
fixed	4	2	11	773642	5	2	2	1	0	1081	1	4	0	112	23	0	0	100
fixed	4	2	12	775230	4	3	3	1	0	1398	1	4	0	120	24	0	0	100
fixed	4	3	1	777499	4	1	1	1	0	870	1	4	0	104	25	0	0	100
fixed	4	3	2	779161	1	2	2	1	0	1040	1	4	0	112	26	0	0	100
fixed	4	3	3	780921	6	4	4	1	0	861	1	4	0	128	27	0	0	100
fixed	4	3	4	782754	2	1	1	1	0	912	1	4	0	104	28	0	0	100
fixed	4	3	5	784133	5	3	3	1	0	989	1	4	0	120	29	0	0	100
fixed	4	3	6	785892	6	4	4	1	0	971	1	4	0	128	30	0	0	100
fixed	4	3	7	787627	3	1	1	1	0	873	1	4	0	104	31	0	0	100
fixed	4	3	8	789001	2	3	3	1	0	1183	1	4	0	120	32	0	0	100
fixed	4	3	9	791065	3	2	2	1	0	751	1	4	0	112	33	0	0	100
fixed	4	3	10	792334	1	4	4	1	0	905	1	4	0	128	34	0	0	100
fixed	4	3	11	794022	5	2	2	1	0	1682	1	4	0	112	35	0	0	100
fixed	4	3	12	796134	4	3	3	1	0	1001	1	4	0	120	36	0	0	100
fixed	4	4	1	797915	4	1	1	1	0	1269	1	4	0	104	37	0	0	100
fixed	4	4	2	800054	1	2	2	1	0	1307	1	4	0	112	38	0	0	100
fixed	4	4	3	801955	6	4	4	1	0	819	1	4	0	128	39	0	0	100
fixed	4	4	4	803578	2	1	1	1	0	1189	1	4	0	104	40	0	0	100
fixed	4	4	5	805419	5	3	3	1	0	1007	1	4	0	120	41	0	0	100
fixed	4	4	6	807273	6	4	4	1	0	929	1	4	0	128	42	0	0	100
fixed	4	4	7	809229	3	1	1	1	0	838	1	4	0	104	43	0	0	100
fixed	4	4	8	810624	2	3	3	1	0	1155	1	4	0	120	44	0	0	100
fixed	4	4	9	812773	3	2	2	1	0	992	1	4	0	112	45	0	0	100
fixed	4	4	10	814496	1	4	4	1	0	863	1	4	0	128	46	0	0	100
fixed	4	4	11	815865	5	2	2	1	0	1037	1	4	0	112	47	0	0	100
fixed	4	4	12	817932	4	3	3	1	0	949	1	4	0	120	48	0	0	100
fixed	4	5	1	819485	4	1	1	1	0	836	1	4	0	104	49	0	0	100
fixed	4	5	2	821164	1	2	2	1	0	1157	1	4	0	112	50	0	0	100
fixed	4	5	3	823045	6	4	4	1	0	909	1	4	0	128	51	0	0	100
fixed	4	5	4	824518	2	1	1	1	0	1047	1	4	0	104	52	0	0	100
fixed	4	5	5	825892	5	3	3	1	0	1221	1	4	0	120	53	0	0	100
fixed	4	5	6	827558	6	4	4	1	0	966	1	4	0	128	54	0	0	100
fixed	4	5	7	829517	3	1	1	1	0	803	1	4	0	104	55	0	0	100
fixed	4	5	8	831018	2	3	3	1	0	1507	1	4	0	120	56	0	0	100
fixed	4	5	9	832925	3	2	2	1	0	915	1	4	0	112	57	0	0	100
fixed	4	5	10	834360	1	4	4	1	0	782	1	4	0	128	58	0	0	100
fixed	4	5	11	836042	5	2	2	1	0	1086	1	4	0	112	59	0	0	100
fixed	4	5	12	837723	4	3	3	1	0	1558	1	4	0	120	60	0	0	100
fixed	4	6	1	840019	4	1	1	1	0	894	1	4	0	104	61	0	0	100
fixed	4	6	2	841696	1	2	2	1	0	1863	1	4	0	112	62	0	0	100
fixed	4	6	3	843962	6	4	4	1	0	951	1	4	0	128	63	0	0	100
fixed	4	6	4	845946	2	1	1	1	0	1139	1	4	0	104	64	0	0	100
fixed	4	6	5	848025	5	3	3	1	0	1051	1	4	0	120	65	0	0	100
fixed	4	6	6	850094	6	4	4	1	0	971	1	4	0	128	66	0	0	100
fixed	4	6	7	851880	3	1	1	1	0	783	1	4	0	104	67	0	0	100
fixed	4	6	8	853434	2	3	3	1	0	1390	1	4	0	120	68	0	0	100
fixed	4	6	9	855849	3	2	2	1	0	952	1	4	0	112	69	0	0	100
fixed	4	6	10	857796	1	4	4	1	0	917	1	4	0	128	70	0	0	100
fixed	4	6	11	859612	5	2	2	1	0	1184	1	4	0	112	71	0	0	100
fixed	4	6	12	861410	4	3	3	1	0	1244	1	4	0	120	72	0	0	100
fixed	4	7	1	863810	4	1	1	1	0	894	1	4	0	104	73	0	0	100
fixed	4	7	2	865350	1	2	2	1	0	1517	1	4	0	112	74	0	0	100
fixed	4	7	3	867767	6	4	4	1	0	839	1	4	0	128	75	0	0	100
fixed	4	7	4	869310	2	1	1	1	0	1125	1	4	0	104	76	0	0	100
fixed	4	7	5	870842	5	3	3	1	0	1092	1	4	0	120	77	0	0	100
fixed	4	7	6	872513	6	4	4	1	0	990	1	4	0	128	78	0	0	100
fixed	4	7	7	874529	3	1	1	1	0	1137	1	4	0	104	79	0	0	100
fixed	4	7	8	876007	2	3	3	1	0	1082	1	4	0	120	80	0	0	100
fixed	4	7	9	878083	3	2	2	1	0	1082	1	4	0	112	81	0	0	100
fixed	4	7	10	879707	1	4	4	1	0	1005	1	4	0	128	82	0	0	100
fixed	4	7	11	881113	5	2	2	1	0	1090	1	4	0	112	83	0	0	100
fixed	4	7	12	882943	4	3	3	1	0	1300	1	4	0	120	84	0	0	100
fixed	4	8	1	885530	4	1	1	1	0	886	1	4	0	104	85	0	0	100
fixed	4	8	2	887199	1	2	2	1	0	1047	1	4	0	112	86	0	0	100
fixed	4	8	3	888636	6	4	4	1	0	1035	1	4	0	128	87	0	0	100
fixed	4	8	4	890102	2	1	1	1	0	1189	1	4	0	104	88	0	0	100
fixed	4	8	5	892082	5	3	3	1	0	913	1	4	0	120	89	0	0	100
fixed	4	8	6	893548	6	4	4	1	0	1618	1	4	0	128	90	0	0	100
fixed	4	8	7	895982	3	1	1	1	0	852	1	4	0	104	91	0	0	100
fixed	4	8	8	897566	2	3	3	1	0	1465	1	4	0	120	92	0	0	100
fixed	4	8	9	899519	3	2	2	1	0	1022	1	4	0	112	93	0	0	100
fixed	4	8	10	901271	1	4	4	1	0	860	1	4	0	128	94	0	0	100
fixed	4	8	11	903156	5	2	2	1	0	1260	1	4	0	112	95	0	0	100
fixed	4	8	12	905446	4	3	3	1	0	1195	1	4	0	120	96	0	0	100
fixed	4	9	1	907518	4	1	1	1	0	883	1	4	0	104	97	0	0	100
fixed	4	9	2	909092	1	2	2	1	0	1064	1	4	0	112	98	0	0	100
fixed	4	9	3	910950	6	4	4	1	0	1010	1	4	0	128	99	0	0	100
fixed	4	9	4	912802	2	1	1	1	0	779	1	4	0	104	100	0	0	100
fixed	4	9	5	914158	5	3	3	1	0	1026	1	4	0	120	101	0	0	100
fixed	4	9	6	916190	6	4	4	1	0	876	1	4	0	128	102	0	0	100
fixed	4	9	7	918051	3	1	1	1	0	853	1	4	0	104	103	0	0	100
fixed	4	9	8	919436	2	3	3	1	0	1434	1	4	0	120	104	0	0	100
fixed	4	9	9	921175	3	2	2	1	0	993	1	4	0	112	105	0	0	100
fixed	4	9	10	922668	1	4	4	1	0	818	1	4	0	128	106	0	0	100
fixed	4	9	11	924007	5	2	2	1	0	1016	1	4	0	112	107	0	0	100
fixed	4	9	12	925365	4	3	3	1	0	1087	1	4	0	120	108	0	0	100
fixed	4	10	1	927316	4	1	1	1	0	908	1	4	0	104	109	0	0	100
fixed	4	10	2	928612	1	2	2	1	0	1358	1	4	0	112	110	0	0	100
fixed	4	10	3	930593	6	4	4	1	0	1010	1	4	0	128	111	0	0	100
fixed	4	10	4	932327	2	1	1	1	0	824	1	4	0	104	112	0	0	100
fixed	4	10	5	934120	5	3	3	1	0	1036	1	4	0	120	113	0	0	100
fixed	4	10	6	935795	6	4	4	1	0	1054	1	4	0	128	114	0	0	100
fixed	4	10	7	937407	3	1	1	1	0	1065	1	4	0	104	115	0	0	100
fixed	4	10	8	938826	2	3	3	1	0	1237	1	4	0	120	116	0	0	100
fixed	4	10	9	940649	3	2	2	1	0	960	1	4	0	112	117	0	0	100
fixed	4	10	10	942375	1	4	4	1	0	855	1	4	0	128	118	0	0	100
fixed	4	10	11	943894	5	2	2	1	0	1166	1	4	0	112	119	0	0	100
fixed	4	10	12	945898	4	3	3	1	0	1129	1	4	0	120	120	0	0	100
fixed	5	1	1	948248	4	1	1	1	0	990	1	4	0	136	1	0	0	100
fixed	5	1	2	949979	1	2	2	1	0	1109	1	4	0	144	2	0	0	100
fixed	5	1	3	951431	6	4	4	1	0	887	1	4	0	160	3	0	0	100
fixed	5	1	4	952612	2	1	1	1	0	1117	1	4	0	136	4	0	0	100
fixed	5	1	5	954258	5	3	3	1	0	1112	1	4	0	152	5	0	0	100
fixed	5	1	6	955846	6	4	4	1	0	980	1	4	0	160	6	0	0	100
fixed	5	1	7	957603	3	1	1	1	0	706	1	4	0	136	7	0	0	100
fixed	5	1	8	958704	2	3	3	1	0	1315	1	4	0	152	8	0	0	100
fixed	5	1	9	960858	3	2	2	1	0	1056	1	4	0	144	9	0	0	100
fixed	5	1	10	962760	1	4	4	1	0	879	1	4	0	160	10	0	0	100
fixed	5	1	11	964268	5	2	2	1	0	1144	1	4	0	144	11	0	0	100
fixed	5	1	12	966383	4	3	0	1	2	0	3	4	0	152	11	0	1	92
fixed	5	2	1	969937	4	1	1	1	0	1311	1	4	0	136	12	0	1	92
fixed	5	2	2	971788	1	2	2	1	0	1361	1	4	0	144	13	0	1	93
fixed	5	2	3	974117	6	4	4	1	0	926	1	4	0	160	14	0	1	93
fixed	5	2	4	975642	2	1	1	1	0	1246	1	4	0	136	15	0	1	94
fixed	5	2	5	977300	5	3	3	1	0	1112	1	4	0	152	16	0	1	94
fixed	5	2	6	979166	6	4	4	1	0	937	1	4	0	160	17	0	1	94
fixed	5	2	7	980469	3	1	1	1	0	1073	1	4	0	136	18	0	1	95
fixed	5	2	8	982058	2	3	3	1	0	1094	1	4	0	152	19	0	1	95
fixed	5	2	9	983899	3	2	2	1	0	1432	1	4	0	144	20	0	1	95
fixed	5	2	10	986175	1	4	4	1	0	919	1	4	0	160	21	0	1	95
fixed	5	2	11	987622	5	2	2	1	0	1234	1	4	0	144	22	0	1	96
fixed	5	2	12	989833	4	3	3	1	0	1756	1	4	0	152	23	0	1	96
fixed	5	3	1	992643	4	1	1	1	0	1133	1	4	0	136	24	0	1	96
fixed	5	3	2	994076	1	2	2	1	0	1409	1	4	0	144	25	0	1	96
fixed	5	3	3	996191	6	4	4	1	0	1903	1	4	0	160	26	0	1	96
fixed	5	3	4	998419	2	1	1	1	0	1137	1	4	0	136	27	0	1	96
fixed	5	3	5	1000462	5	3	3	1	0	1074	1	4	0	152	28	0	1	97
fixed	5	3	6	1002113	6	4	4	1	0	965	1	4	0	160	29	0	1	97
fixed	5	3	7	1004070	3	1	1	1	0	1009	1	4	0	136	30	0	1	97
fixed	5	3	8	1006030	2	3	3	1	0	1207	1	4	0	152	31	0	1	97
fixed	5	3	9	1008015	3	2	2	1	0	906	1	4	0	144	32	0	1	97
fixed	5	3	10	1009474	1	4	4	1	0	949	1	4	0	160	33	0	1	97
fixed	5	3	11	1010751	5	2	2	1	0	1175	1	4	0	144	34	0	1	97
fixed	5	3	12	1012823	4	3	3	1	0	1271	1	4	0	152	35	0	1	97
fixed	5	4	1	1014781	4	1	1	1	0	1084	1	4	0	136	36	0	1	97
fixed	5	4	2	1016857	1	2	2	1	0	1052	1	4	0	144	37	0	1	97
fixed	5	4	3	1018631	6	4	4	1	0	849	1	4	0	160	38	0	1	97
fixed	5	4	4	1020031	2	1	1	1	0	886	1	4	0	136	39	0	1	98
fixed	5	4	5	1021958	5	3	3	1	0	956	1	4	0	152	40	0	1	98
fixed	5	4	6	1023901	6	4	4	1	0	1129	1	4	0	160	41	0	1	98
fixed	5	4	7	1025628	3	1	1	1	0	1145	1	4	0	136	42	0	1	98
fixed	5	4	8	1027691	2	3	3	1	0	1346	1	4	0	152	43	0	1	98
fixed	5	4	9	1029528	3	2	2	1	0	804	1	4	0	144	44	0	1	98
fixed	5	4	10	1030910	1	4	4	1	0	873	1	4	0	160	45	0	1	98
fixed	5	4	11	1032450	5	2	2	1	0	984	1	4	0	144	46	0	1	98
fixed	5	4	12	1034089	4	3	3	1	0	1066	1	4	0	152	47	0	1	98
fixed	5	5	1	1035765	4	1	1	1	0	859	1	4	0	136	48	0	1	98
fixed	5	5	2	1037322	1	2	2	1	0	1441	1	4	0	144	49	0	1	98
fixed	5	5	3	1039221	6	4	4	1	0	889	1	4	0	160	50	0	1	98
fixed	5	5	4	1040720	2	1	1	1	0	1394	1	4	0	136	51	0	1	98
fixed	5	5	5	1042784	5	3	3	1	0	1010	1	4	0	152	52	0	1	98
fixed	5	5	6	1044704	6	4	4	1	0	1072	1	4	0	160	53	0	1	98
fixed	5	5	7	1046128	3	1	1	1	0	1172	1	4	0	136	54	0	1	98
fixed	5	5	8	1048053	2	3	3	1	0	1195	1	4	0	152	55	0	1	98
fixed	5	5	9	1050126	3	2	2	1	0	1051	1	4	0	144	56	0	1	98
fixed	5	5	10	1052128	1	4	4	1	0	1318	1	4	0	160	57	0	1	98
fixed	5	5	11	1054305	5	2	2	1	0	1147	1	4	0	144	58	0	1	98
fixed	5	5	12	1055868	4	3	3	1	0	1144	1	4	0	152	59	0	1	98
fixed	5	6	1	1058271	4	1	1	1	0	898	1	4	0	136	60	0	1	98
fixed	5	6	2	1060015	1	2	2	1	0	1744	1	4	0	144	61	0	1	98
fixed	5	6	3	1062655	6	4	4	1	0	856	1	4	0	160	62	0	1	98
fixed	5	6	4	1063940	2	1	1	1	0	1290	1	4	0	136	63	0	1	98
fixed	5	6	5	1066140	5	3	3	1	0	1044	1	4	0	152	64	0	1	98
fixed	5	6	6	1068165	6	4	4	1	0	927	1	4	0	160	65	0	1	98
fixed	5	6	7	1069838	3	1	1	1	0	1008	1	4	0	136	66	0	1	99
fixed	5	6	8	1071739	2	3	3	1	0	1287	1	4	0	152	67	0	1	99
fixed	5	6	9	1073837	3	2	2	1	0	895	1	4	0	144	68	0	1	99
fixed	5	6	10	1075253	1	4	4	1	0	1011	1	4	0	160	69	0	1	99
fixed	5	6	11	1076588	5	2	2	1	0	1146	1	4	0	144	70	0	1	99
fixed	5	6	12	1078019	4	3	3	1	0	1365	1	4	0	152	71	0	1	99
fixed	5	7	1	1080375	4	1	1	1	0	970	1	4	0	136	72	0	1	99
fixed	5	7	2	1082090	1	2	2	1	0	1081	1	4	0	144	73	0	1	99
fixed	5	7	3	1083531	6	4	4	1	0	1004	1	4	0	160	74	0	1	99
fixed	5	7	4	1084866	2	1	1	1	0	1060	1	4	0	136	75	0	1	99
fixed	5	7	5	1086277	5	3	3	1	0	1072	1	4	0	152	76	0	1	99
fixed	5	7	6	1087940	6	4	4	1	0	882	1	4	0	160	77	0	1	99
fixed	5	7	7	1089181	3	1	1	1	0	1045	1	4	0	136	78	0	1	99
fixed	5	7	8	1090729	2	3	3	1	0	1364	1	4	0	152	79	0	1	99
fixed	5	7	9	1092706	3	2	2	1	0	863	1	4	0	144	80	0	1	99
fixed	5	7	10	1094075	1	4	4	1	0	941	1	4	0	160	81	0	1	99
fixed	5	7	11	1095413	5	2	2	1	0	1165	1	4	0	144	82	0	1	99
fixed	5	7	12	1097214	4	3	3	2	0	1712	2	4	0	152	83	0	1	99
fixed	5	8	1	1099489	4	1	1	1	0	1088	1	4	0	136	84	0	1	99
fixed	5	8	2	1101302	1	2	2	1	0	820	1	4	0	144	85	0	1	99
fixed	5	8	3	1102429	6	4	4	1	0	979	1	4	0	160	86	0	1	99
fixed	5	8	4	1104169	2	1	1	1	0	1138	1	4	0	136	87	0	1	99
fixed	5	8	5	1105773	5	3	3	1	0	958	1	4	0	152	88	0	1	99
fixed	5	8	6	1107545	6	4	4	1	0	1011	1	4	0	160	89	0	1	99
fixed	5	8	7	1109418	3	1	1	1	0	1300	1	4	0	136	90	0	1	99
fixed	5	8	8	1111092	2	3	3	1	0	1221	1	4	0	152	91	0	1	99
fixed	5	8	9	1112658	3	2	2	1	0	930	1	4	0	144	92	0	1	99
fixed	5	8	10	1114164	1	4	4	1	0	915	1	4	0	160	93	0	1	99
fixed	5	8	11	1115701	5	2	2	1	0	1194	1	4	0	144	94	0	1	99
fixed	5	8	12	1117923	4	3	3	1	0	971	1	4	0	152	95	0	1	99
fixed	5	9	1	1120039	4	1	1	1	0	1210	1	4	0	136	96	0	1	99
fixed	5	9	2	1121575	1	2	2	1	0	1136	1	4	0	144	97	0	1	99
fixed	5	9	3	1123228	6	4	4	2	0	1442	2	4	0	160	98	0	1	99
fixed	5	9	4	1125495	2	1	1	1	0	1171	1	4	0	136	99	0	1	99
fixed	5	9	5	1127476	5	3	3	1	0	1039	1	4	0	152	100	0	1	99
fixed	5	9	6	1129504	6	4	4	1	0	857	1	4	0	160	101	0	1	99
fixed	5	9	7	1131027	3	1	1	1	0	1185	1	4	0	136	102	0	1	99
fixed	5	9	8	1132917	2	3	3	1	0	1449	1	4	0	152	103	0	1	99
fixed	5	9	9	1134818	3	2	2	1	0	1072	1	4	0	144	104	0	1	99
fixed	5	9	10	1136836	1	4	4	1	0	866	1	4	0	160	105	0	1	99
fixed	5	9	11	1138354	5	2	2	1	0	1106	1	4	0	144	106	0	1	99
fixed	5	9	12	1140492	4	3	3	1	0	1151	1	4	0	152	107	0	1	99
fixed	5	10	1	1142811	4	1	1	1	0	1013	1	4	0	136	108	0	1	99
fixed	5	10	2	1144718	1	2	2	1	0	1572	1	4	0	144	109	0	1	99
fixed	5	10	3	1147278	6	4	4	1	0	976	1	4	0	160	110	0	1	99
fixed	5	10	4	1148861	2	1	1	1	0	941	1	4	0	136	111	0	1	99
fixed	5	10	5	1150403	5	3	3	1	0	1020	1	4	0	152	112	0	1	99
fixed	5	10	6	1151805	6	4	4	1	0	1016	1	4	0	160	113	0	1	99
fixed	5	10	7	1153146	3	1	1	1	0	1016	1	4	0	136	114	0	1	99
fixed	5	10	8	1154733	2	3	3	1	0	1276	1	4	0	152	115	0	1	99
fixed	5	10	9	1156859	3	2	2	1	0	1235	1	4	0	144	116	0	1	99
fixed	5	10	10	1158501	1	4	4	1	0	1109	1	4	0	160	117	0	1	99
fixed	5	10	11	1160371	5	2	2	1	0	1117	1	4	0	144	118	0	1	99
fixed	5	10	12	1161780	4	3	3	1	0	1362	1	4	0	152	119	0	1	99
random	6	1	1	1261667	6	1	1	1	0	1435	1	4	0	168	1	0	0	100
random	6	1	2	1263759	4	4	4	1	0	1026	1	4	0	192	2	0	0	100
random	6	1	3	1265276	2	2	2	1	0	970	1	4	0	176	3	0	0	100
random	6	1	4	1266551	3	3	3	1	0	1012	1	4	0	184	4	0	0	100
random	6	1	5	1268390	5	2	2	1	0	1062	1	4	0	176	5	0	0	100
random	6	1	6	1270130	1	4	4	1	0	869	1	4	0	192	6	0	0	100
random	6	1	7	1271625	6	1	1	1	0	1261	1	4	0	168	7	0	0	100
random	6	1	8	1273651	2	3	3	1	0	1151	1	4	0	184	8	0	0	100
random	6	1	9	1275798	4	2	2	1	0	1005	1	4	0	176	9	0	0	100
random	6	1	10	1277822	1	1	1	1	0	1199	1	4	0	168	10	0	0	100
random	6	1	11	1279335	5	4	4	1	0	911	1	4	0	192	11	0	0	100
random	6	1	12	1281083	3	3	3	1	0	1196	1	4	0	184	12	0	0	100
random	6	1	13	1283239	5	2	2	1	0	1401	1	4	0	176	13	0	0	100
random	6	1	14	1285504	1	4	4	1	0	866	1	4	0	192	14	0	0	100
random	6	1	15	1286969	3	1	1	1	0	1163	1	4	0	168	15	0	0	100
random	6	1	16	1289123	4	3	3	1	0	1128	1	4	0	184	16	0	0	100
random	6	1	17	1291141	6	4	4	1	0	866	1	4	0	192	17	0	0	100
random	6	1	18	1292508	2	1	1	1	0	1097	1	4	0	168	18	0	0	100
random	6	1	19	1294498	5	3	3	1	0	1132	1	4	0	184	19	0	0	100
random	6	1	20	1296109	2	2	2	1	0	1224	1	4	0	176	20	0	0	100
random	6	1	21	1297719	3	3	3	1	0	1036	1	4	0	184	21	0	0	100
random	6	1	22	1299697	6	1	1	1	0	880	1	4	0	168	22	0	0	100
random	6	1	23	1301254	4	2	2	1	0	1062	1	4	0	176	23	0	0	100
random	6	1	24	1303294	1	4	4	1	0	856	1	4	0	192	24	0	0	100
random	6	1	25	1305260	4	3	3	1	0	1916	1	4	0	184	25	0	0	100
random	6	1	26	1307799	2	1	1	1	0	969	1	4	0	168	26	0	0	100
random	6	1	27	1309697	5	2	2	1	0	1097	1	4	0	176	27	0	0	100
random	6	1	28	1311306	6	4	4	1	0	884	1	4	0	192	28	0	0	100
random	6	1	29	1313073	1	3	3	1	0	1218	1	4	0	184	29	0	0	100
random	6	1	30	1314581	5	2	2	1	0	1090	1	4	0	176	30	0	0	100
random	6	1	31	1316569	2	1	1	1	0	1253	1	4	0	168	31	0	0	100
random	6	1	32	1318393	3	3	3	1	0	1152	1	4	0	184	32	0	0	100
random	6	1	33	1319904	6	4	4	1	0	897	1	4	0	192	33	0	0	100
random	6	1	34	1321088	4	2	2	1	0	1102	1	4	0	176	34	0	0	100
random	6	1	35	1322929	3	4	4	1	0	1048	1	4	0	192	35	0	0	100
random	6	1	36	1324776	1	1	1	1	0	978	1	4	0	168	36	0	0	100
random	6	1	37	1326445	3	4	4	1	0	1219	1	4	0	192	37	0	0	100
random	6	1	38	1328145	5	3	3	1	0	1204	1	4	0	184	38	0	0	100
random	6	1	39	1330199	6	1	1	1	0	965	1	4	0	168	39	0	0	100
random	6	1	40	1331964	1	2	2	1	0	1154	1	4	0	176	40	0	0	100
random	6	1	41	1333594	2	3	3	1	0	1084	1	4	0	184	41	0	0	100
random	6	1	42	1335407	4	4	4	1	0	856	1	4	0	192	42	0	0	100
random	6	1	43	1337196	1	2	2	1	0	1252	1	4	0	176	43	0	0	100
random	6	1	44	1339174	6	3	3	1	0	1416	1	4	0	184	44	0	0	100
random	6	1	45	1341012	3	1	1	1	0	1802	1	4	0	168	45	0	0	100
random	6	1	46	1343527	4	4	4	1	0	1048	1	4	0	192	46	0	0	100
random	6	1	47	1345460	2	2	2	1	0	1182	1	4	0	176	47	0	0	100
random	6	1	48	1347357	5	1	1	1	0	1270	1	4	0	168	48	0	0	100
random	6	1	49	1349853	2	3	3	1	0	1148	1	4	0	184	49	0	0	100
random	6	1	50	1352025	3	1	1	1	0	1040	1	4	0	168	50	0	0	100
random	6	1	51	1353937	1	4	4	1	0	767	1	4	0	192	51	0	0	100
random	6	1	52	1355141	5	3	3	1	0	1132	1	4	0	184	52	0	0	100
random	6	1	53	1357254	3	2	2	1	0	1146	1	4	0	176	53	0	0	100
random	6	1	54	1358954	6	4	4	1	0	923	1	4	0	192	54	0	0	100
random	6	1	55	1360835	4	2	2	1	0	979	1	4	0	176	55	0	0	100
random	6	1	56	1362219	1	1	1	1	0	1280	1	4	0	168	56	0	0	100
random	6	1	57	1364486	5	4	4	1	0	984	1	4	0	192	57	0	0	100
random	6	1	58	1366441	2	1	1	1	0	1029	1	4	0	168	58	0	0	100
random	6	1	59	1368367	6	2	2	1	0	996	1	4	0	176	59	0	0	100
random	6	1	60	1370299	4	3	3	1	0	1498	1	4	0	184	60	0	0	100
random	6	1	61	1372525	1	2	2	1	0	1051	1	4	0	176	61	0	0	100
random	6	1	62	1374207	6	4	4	1	0	909	1	4	0	192	62	0	0	100
random	6	1	63	1375978	4	1	1	1	0	1074	1	4	0	168	63	0	0	100
random	6	1	64	1377802	2	2	2	1	0	1156	1	4	0	176	64	0	0	100
random	6	1	65	1379760	4	3	3	1	0	889	1	4	0	184	65	0	0	100
random	6	1	66	1380978	3	1	1	1	0	957	1	4	0	168	66	0	0	100
random	6	1	67	1382668	1	3	3	1	0	1278	1	4	0	184	67	0	0	100
random	6	1	68	1384815	5	4	4	1	0	867	1	4	0	192	68	0	0	100
random	6	1	69	1386608	2	2	2	1	0	1151	1	4	0	176	69	0	0	100
random	6	1	70	1388328	3	1	1	1	0	1022	1	4	0	168	70	0	0	100
random	6	1	71	1389989	5	4	4	1	0	1200	1	4	0	192	71	0	0	100
random	6	1	72	1392199	6	3	3	1	0	1203	1	4	0	184	72	0	0	100
random	6	1	73	1394646	2	1	1	1	0	1179	1	4	0	168	73	0	0	100
random	6	1	74	1396745	5	3	3	1	0	922	1	4	0	184	74	0	0	100
random	6	1	75	1398202	1	4	4	1	0	948	1	4	0	192	75	0	0	100
random	6	1	76	1400087	6	2	2	1	0	997	1	4	0	176	76	0	0	100
random	6	1	77	1401602	2	1	1	1	0	1316	1	4	0	168	77	0	0	100
random	6	1	78	1403706	4	4	4	1	0	1011	1	4	0	192	78	0	0	100
random	6	1	79	1405153	3	2	2	1	0	1813	1	4	0	176	79	0	0	100
random	6	1	80	1407873	4	3	3	1	0	2171	1	4	0	184	80	0	0	100
random	6	1	81	1410841	1	4	4	1	0	1021	1	4	0	192	81	0	0	100
random	6	1	82	1412640	5	1	1	1	0	1112	1	4	0	168	82	0	0	100
random	6	1	83	1414749	3	2	2	1	0	959	1	4	0	176	83	0	0	100
random	6	1	84	1416481	6	3	3	1	0	942	1	4	0	184	84	0	0	100
random	6	1	85	1418705	3	2	2	1	0	943	1	4	0	176	85	0	0	100
random	6	1	86	1420261	1	3	3	1	0	1582	1	4	0	184	86	0	0	100
random	6	1	87	1422446	4	4	4	1	0	1201	1	4	0	192	87	0	0	100
random	6	1	88	1424543	2	1	1	1	0	881	1	4	0	168	88	0	0	100
random	6	1	89	1426309	6	4	4	1	0	1077	1	4	0	192	89	0	0	100
random	6	1	90	1428012	3	3	3	1	0	1117	1	4	0	184	90	0	0	100
random	6	1	91	1429526	5	4	4	1	0	1190	1	4	0	192	91	0	0	100
random	6	1	92	1431679	1	2	2	1	0	1098	1	4	0	176	92	0	0	100
random	6	1	93	1433565	5	1	1	1	0	842	1	4	0	168	93	0	0	100
random	6	1	94	1435368	4	3	3	1	0	1150	1	4	0	184	94	0	0	100
random	6	1	95	1436891	6	1	1	1	0	1134	1	4	0	168	95	0	0	100
random	6	1	96	1438899	2	2	2	1	0	1121	1	4	0	176	96	0	0	100
random	6	1	97	1440625	4	3	3	1	0	1063	1	4	0	184	97	0	0	100
random	6	1	98	1442094	3	2	2	1	0	1297	1	4	0	176	98	0	0	100
random	6	1	99	1444378	6	3	3	1	0	1281	1	4	0	184	99	0	0	100
random	6	1	100	1446490	1	4	4	1	0	943	1	4	0	192	100	0	0	100
random	6	1	101	1447974	4	1	1	1	0	1496	1	4	0	168	101	0	0	100
random	6	1	102	1449936	5	2	2	1	0	1277	1	4	0	176	102	0	0	100
random	6	1	103	1451853	2	4	4	1	0	907	1	4	0	192	103	0	0	100
random	6	1	104	1453634	3	1	1	1	0	1024	1	4	0	168	104	0	0	100
random	6	1	105	1455416	1	3	3	1	0	1037	1	4	0	184	105	0	0	100
random	6	1	106	1456824	2	2	2	1	0	945	1	4	0	176	106	0	0	100
random	6	1	107	1458191	5	4	4	1	0	871	1	4	0	192	107	0	0	100
random	6	1	108	1459772	6	1	1	1	0	1244	1	4	0	168	108	0	0	100
random	6	1	109	1462195	5	4	4	1	0	1182	1	4	0	192	109	0	0	100
random	6	1	110	1464385	6	3	3	1	0	1097	1	4	0	184	110	0	0	100
random	6	1	111	1465854	2	2	2	1	0	1162	1	4	0	176	111	0	0	100
random	6	1	112	1467534	3	1	1	1	0	1068	1	4	0	168	112	0	0	100
random	6	1	113	1469303	1	2	2	1	0	1209	1	4	0	176	113	0	0	100
random	6	1	114	1471467	2	3	3	1	0	1261	1	4	0	184	114	0	0	100
random	6	1	115	1473721	3	1	1	1	0	1013	1	4	0	168	115	0	0	100
random	6	1	116	1475053	4	4	4	1	0	933	1	4	0	192	116	0	0	100
random	6	1	117	1476710	6	1	1	1	0	1255	1	4	0	168	117	0	0	100
random	6	1	118	1478361	5	3	3	1	0	1241	1	4	0	184	118	0	0	100
random	6	1	119	1480236	1	4	4	1	0	1658	1	4	0	192	119	0	0	100
random	6	1	120	1482893	4	2	2	1	0	1033	1	4	0	176	120	0	0	100
fixed	7	1	1	1485049	4	1	1	1	0	1205	1	4	0	200	1	0	0	100
fixed	7	1	2	1486780	1	2	2	1	0	1052	1	4	0	208	2	0	0	100
fixed	7	1	3	1488300	6	4	4	1	0	892	1	4	0	224	3	0	0	100
fixed	7	1	4	1489668	2	1	1	1	0	1266	1	4	0	200	4	0	0	100
fixed	7	1	5	1491812	5	3	3	1	0	959	1	4	0	216	5	0	0	100
fixed	7	1	6	1493385	6	4	4	1	0	925	1	4	0	224	6	0	0	100
fixed	7	1	7	1494666	3	1	1	1	0	1038	1	4	0	200	7	0	0	100
fixed	7	1	8	1496049	2	3	3	1	0	1196	1	4	0	216	8	0	0	100
fixed	7	1	9	1497831	3	2	2	1	0	1000	1	4	0	208	9	0	0	100
fixed	7	1	10	1499778	1	4	4	1	0	1534	1	4	0	224	10	0	0	100
fixed	7	1	11	1501880	5	2	2	1	0	1029	1	4	0	208	11	0	0	100
fixed	7	1	12	1503212	4	3	3	1	0	1292	1	4	0	216	12	0	0	100
fixed	7	2	1	1505251	4	1	1	1	0	934	1	4	0	200	1	0	0	8
fixed	7	2	2	1506688	1	2	2	1	0	1337	1	4	0	208	2	0	0	14
fixed	7	2	3	1508607	6	4	4	1	0	912	1	4	0	224	3	0	0	20
fixed	7	2	4	1510003	2	1	1	1	0	1213	1	4	0	200	4	0	0	25
fixed	7	2	5	1512193	5	3	3	1	0	1032	1	4	0	216	5	0	0	29
fixed	7	2	6	1513796	6	4	4	1	0	924	1	4	0	224	6	0	0	33
fixed	7	2	7	1515322	3	1	1	1	0	900	1	4	0	200	7	0	0	37
fixed	7	2	8	1516927	2	3	3	1	0	1127	1	4	0	216	8	0	0	40
fixed	7	2	9	1518699	3	2	2	1	0	1460	1	4	0	208	9	0	0	43
fixed	7	2	10	1520594	1	4	4	1	0	1732	1	4	0	224	10	0	0	45
fixed	7	2	11	1522719	5	2	2	1	0	1130	1	4	0	208	11	0	0	48
fixed	7	2	12	1524407	4	3	3	1	0	1123	1	4	0	216	12	0	0	50
fixed	7	3	1	1526720	4	1	1	1	0	1032	1	4	0	200	1	0	0	4
fixed	7	3	2	1528419	1	2	0	1	2	0	3	4	0	208	1	0	1	4
fixed	7	3	3	1531324	6	4	4	1	0	1414	1	4	0	224	2	0	1	7
fixed	7	3	4	1533675	2	1	1	1	0	954	1	4	0	200	3	0	1	11
fixed	7	3	5	1535402	5	3	3	1	0	1049	1	4	0	216	4	0	1	14
fixed	7	3	6	1537175	6	4	4	1	0	966	1	4	0	224	5	0	1	17
fixed	7	3	7	1538793	3	1	1	1	0	890	1	4	0	200	6	0	1	19
fixed	7	3	8	1540210	2	3	3	1	0	1309	1	4	0	216	7	0	1	22
fixed	7	3	9	1541830	3	2	2	1	0	1025	1	4	0	208	8	0	1	24
fixed	7	3	10	1543252	1	4	4	1	0	957	1	4	0	224	9	0	1	26
fixed	7	3	11	1544620	5	2	2	1	0	1419	1	4	0	208	10	0	1	29
fixed	7	3	12	1546406	4	3	3	1	0	1207	1	4	0	216	11	0	1	31
fixed	7	4	1	1548690	4	1	1	1	0	1182	1	4	0	200	1	0	0	3
fixed	7	4	2	1550683	1	2	2	1	0	1082	1	4	0	208	2	0	0	5
fixed	7	4	3	1552352	6	4	4	1	0	923	1	4	0	224	3	0	0	8
fixed	7	4	4	1554308	2	1	1	1	0	896	1	4	0	200	4	0	0	10
fixed	7	4	5	1555835	5	3	3	1	0	1232	1	4	0	216	5	0	0	12
fixed	7	4	6	1557840	6	4	4	1	0	1387	1	4	0	224	6	0	0	14
fixed	7	4	7	1559732	3	1	1	1	0	874	1	4	0	200	7	0	0	16
fixed	7	4	8	1561321	2	3	3	1	0	1119	1	4	0	216	8	0	0	18
fixed	7	4	9	1563168	3	2	2	1	0	809	1	4	0	208	9	0	0	20
fixed	7	4	10	1564424	1	4	4	1	0	940	1	4	0	224	10	0	0	22
fixed	7	4	11	1565923	5	2	2	1	0	1244	1	4	0	208	11	0	0	23
fixed	7	4	12	1567930	4	3	3	1	0	1079	1	4	0	216	12	0	0	25
fixed	7	5	1	1570243	4	1	1	1	0	1021	1	4	0	200	1	0	0	2
fixed	7	5	2	1571742	1	2	2	1	0	1182	1	4	0	208	2	0	0	4
fixed	7	5	3	1573500	6	4	4	1	0	843	1	4	0	224	3	0	0	6
fixed	7	5	4	1574809	2	1	1	1	0	1036	1	4	0	200	4	0	0	8
fixed	7	5	5	1576679	5	3	3	1	0	1013	1	4	0	216	5	0	0	9
fixed	7	5	6	1578105	6	4	4	1	0	992	1	4	0	224	6	0	0	11
fixed	7	5	7	1579954	3	1	1	1	0	994	1	4	0	200	7	0	0	13
fixed	7	5	8	1581438	2	3	3	1	0	1131	1	4	0	216	8	0	0	14
fixed	7	5	9	1583033	3	2	2	1	0	952	1	4	0	208	9	0	0	16
fixed	7	5	10	1584537	1	4	4	1	0	880	1	4	0	224	10	0	0	17
fixed	7	5	11	1586189	5	2	2	1	0	898	1	4	0	208	11	0	0	19
fixed	7	5	12	1587595	4	3	3	1	0	934	1	4	0	216	12	0	0	20
fixed	7	6	1	1589374	4	1	1	1	0	611	1	4	0	200	1	0	0	2
fixed	7	6	2	1590339	1	2	0	0	2	0	3	4	0	208	1	0	1	2
fixed	7	6	3	1593329	6	4	4	1	0	956	1	4	0	224	2	0	1	3
fixed	7	6	4	1594927	2	1	1	1	0	1024	1	4	0	200	3	0	1	5
fixed	7	6	5	1596598	5	3	3	1	0	1961	1	4	0	216	4	0	1	6
fixed	7	6	6	1599160	6	4	4	1	0	1389	1	4	0	224	5	0	1	8
fixed	7	6	7	1601396	3	1	1	1	0	1062	1	4	0	200	6	0	1	9
fixed	7	6	8	1602960	2	3	3	1	0	1387	1	4	0	216	7	0	1	10
fixed	7	6	9	1605279	3	2	2	1	0	817	1	4	0	208	8	0	1	12
fixed	7	6	10	1607098	1	4	4	1	0	892	1	4	0	224	9	0	1	13
fixed	7	6	11	1608623	5	2	2	1	0	1164	1	4	0	208	10	0	1	14
fixed	7	6	12	1610411	4	3	3	1	0	928	1	4	0	216	11	0	1	15
fixed	7	7	1	1612280	4	1	1	1	0	889	1	4	0	200	1	0	0	1
fixed	7	7	2	1613527	1	2	0	1	2	0	3	4	0	208	1	0	1	1
fixed	7	7	3	1616966	6	4	4	1	0	939	1	4	0	224	2	0	1	3
fixed	7	7	4	1618367	2	1	1	1	0	1239	1	4	0	200	3	0	1	4
fixed	7	7	5	1620276	5	3	3	1	0	1902	1	4	0	216	4	0	1	5
fixed	7	7	6	1622745	6	4	4	1	0	1558	1	4	0	224	5	0	1	6
fixed	7	7	7	1624664	3	1	1	1	0	980	1	4	0	200	6	0	1	8
fixed	7	7	8	1626275	2	3	3	1	0	1448	1	4	0	216	7	0	1	9
fixed	7	7	9	1628042	3	2	2	1	0	837	1	4	0	208	8	0	1	10
fixed	7	7	10	1629888	1	4	4	1	0	815	1	4	0	224	9	0	1	11
fixed	7	7	11	1631487	5	2	2	1	0	1300	1	4	0	208	10	0	1	12
fixed	7	7	12	1633519	4	3	3	1	0	1149	1	4	0	216	11	0	1	13
fixed	7	8	1	1635587	4	1	1	1	0	829	1	4	0	200	1	0	0	1
fixed	7	8	2	1636807	1	2	2	1	0	914	1	4	0	208	2	0	0	2
fixed	7	8	3	1638248	6	4	4	1	0	1173	1	4	0	224	3	0	0	3
fixed	7	8	4	1639818	2	1	1	1	0	978	1	4	0	200	4	0	0	5
fixed	7	8	5	1641815	5	3	3	1	0	1270	1	4	0	216	5	0	0	6
fixed	7	8	6	1643604	6	4	4	1	0	1082	1	4	0	224	6	0	0	7
fixed	7	8	7	1645130	3	1	1	1	0	929	1	4	0	200	7	0	0	8
fixed	7	8	8	1646633	2	3	3	1	0	1226	1	4	0	216	8	0	0	9
fixed	7	8	9	1648847	3	2	2	1	0	1060	1	4	0	208	9	0	0	10
fixed	7	8	10	1650494	1	4	0	0	2	0	3	4	0	224	9	0	1	10
fixed	7	8	11	1653646	5	2	2	1	0	1368	1	4	0	208	10	0	1	11
fixed	7	8	12	1655791	4	3	3	1	0	1494	1	4	0	216	11	0	1	11
fixed	7	9	1	1658460	4	1	1	1	0	1157	1	4	0	200	1	0	0	1
fixed	7	9	2	1660576	1	2	2	1	0	868	1	4	0	208	2	0	0	2
fixed	7	9	3	1662203	6	4	4	1	0	1094	1	4	0	224	3	0	0	3
fixed	7	9	4	1664024	2	1	1	1	0	1321	1	4	0	200	4	0	0	4
fixed	7	9	5	1666039	5	3	3	1	0	1052	1	4	0	216	5	0	0	5
fixed	7	9	6	1667584	6	4	4	1	0	1010	1	4	0	224	6	0	0	6
fixed	7	9	7	1669095	3	1	1	1	0	915	1	4	0	200	7	0	0	7
fixed	7	9	8	1670595	2	3	3	1	0	1371	1	4	0	216	8	0	0	8
fixed	7	9	9	1672640	3	2	2	1	0	916	1	4	0	208	9	0	0	9
fixed	7	9	10	1674212	1	4	4	1	0	898	1	4	0	224	10	0	0	9
fixed	7	9	11	1675603	5	2	2	1	0	1191	1	4	0	208	11	0	0	10
fixed	7	9	12	1677269	4	3	3	1	0	1496	1	4	0	216	12	0	0	11
fixed	7	10	1	1679812	4	1	1	1	0	996	1	4	0	200	1	0	0	1
fixed	7	10	2	1681299	1	2	2	1	0	2037	1	4	0	208	2	0	0	2
fixed	7	10	3	1683758	6	4	4	1	0	957	1	4	0	224	3	0	0	3
fixed	7	10	4	1685665	2	1	1	1	0	989	1	4	0	200	4	0	0	4
fixed	7	10	5	1687580	5	3	3	1	0	1011	1	4	0	216	5	0	0	4
fixed	7	10	6	1689452	6	4	4	1	0	940	1	4	0	224	6	0	0	5
fixed	7	10	7	1690689	3	1	1	1	0	960	1	4	0	200	7	0	0	6
fixed	7	10	8	1692666	2	3	3	1	0	1692	1	4	0	216	8	0	0	7
fixed	7	10	9	1694929	3	2	2	1	0	1188	1	4	0	208	9	0	0	8
fixed	7	10	10	1696506	1	4	4	1	0	1145	1	4	0	224	10	0	0	8
fixed	7	10	11	1698424	5	2	2	1	0	1024	1	4	0	208	11	0	0	9
fixed	7	10	12	1700303	4	3	3	1	0	1113	1	4	0	216	12	0	0	10
