type	block	sequ.	trial	time	Pos.	Color	Button	NumRsp	Resp_1	RT_1	R_Code	Resp_2	RT_2	Trigg.	n_hit	n_inc	n_miss	score_%

random	1	1	1	1444	6	1	1	1	0	1057	1	4	0	8	1	0	0	100
random	1	1	2	3498	4	4	4	1	0	963	1	4	0	32	2	0	0	100
random	1	1	3	5079	2	2	2	1	0	1072	1	4	0	16	3	0	0	100
random	1	1	4	7069	3	3	3	1	0	571	1	4	0	24	4	0	0	100
random	1	1	5	8053	5	2	2	1	0	1802	1	4	0	16	5	0	0	100
random	1	1	6	10431	1	4	4	1	0	717	1	4	0	32	6	0	0	100
random	1	1	7	11718	6	1	1	1	0	575	1	4	0	8	7	0	0	100
random	1	1	8	12888	2	3	3	1	0	1437	1	4	0	24	8	0	0	100
random	1	1	9	15250	4	2	2	1	0	809	1	4	0	16	9	0	0	100
random	1	1	10	17016	1	1	1	1	0	982	1	4	0	8	10	0	0	100
random	1	1	11	18354	5	4	4	1	0	989	1	4	0	32	11	0	0	100
random	1	1	12	20214	3	3	3	1	0	1310	1	4	0	24	12	0	0	100
random	1	1	13	22080	5	2	2	1	0	1375	1	4	0	16	13	0	0	100
random	1	1	14	24341	1	4	4	1	0	880	1	4	0	32	14	0	0	100
random	1	1	15	25586	3	1	1	1	0	779	1	4	0	8	15	0	0	100
random	1	1	16	27304	4	3	3	1	0	1250	1	4	0	24	16	0	0	100
random	1	1	17	28927	6	4	4	1	0	862	1	4	0	32	17	0	0	100
random	1	1	18	30152	2	1	1	1	0	753	1	4	0	8	18	0	0	100
random	1	1	19	31783	5	3	3	1	0	1733	1	4	0	24	19	0	0	100
random	1	1	20	34247	2	2	2	1	0	548	1	4	0	16	20	0	0	100
random	1	1	21	35374	3	3	3	1	0	1189	1	4	0	24	21	0	0	100
random	1	1	22	36976	6	1	1	1	0	921	1	4	0	8	22	0	0	100
random	1	1	23	38244	4	2	2	1	0	1195	1	4	0	16	23	0	0	100
random	1	1	24	40248	1	4	4	1	0	678	1	4	0	32	24	0	0	100
random	1	1	25	41695	4	3	3	1	0	1064	1	4	0	24	25	0	0	100
random	1	1	26	43644	2	1	1	1	0	974	1	4	0	8	26	0	0	100
random	1	1	27	45003	5	2	2	1	0	1052	1	4	0	16	27	0	0	100
random	1	1	28	47022	6	4	4	1	0	823	1	4	0	32	28	0	0	100
random	1	1	29	48659	1	3	3	1	0	1018	1	4	0	24	29	0	0	100
random	1	1	30	50131	5	2	2	1	0	859	1	4	0	16	30	0	0	100
random	1	1	31	51303	2	1	1	1	0	802	1	4	0	8	31	0	0	100
random	1	1	32	52816	3	3	3	1	0	1026	1	4	0	24	32	0	0	100
random	1	1	33	54392	6	4	4	1	0	815	1	4	0	32	33	0	0	100
random	1	1	34	55960	4	2	2	1	0	829	1	4	0	16	34	0	0	100
random	1	1	35	57549	3	4	4	1	0	945	1	4	0	32	35	0	0	100
random	1	1	36	59485	1	1	1	1	0	943	1	4	0	8	36	0	0	100
random	1	1	37	61578	3	4	4	1	0	894	1	4	0	32	37	0	0	100
random	1	1	38	63012	5	3	3	1	0	1097	1	4	0	24	38	0	0	100
random	1	1	39	64434	6	1	1	1	0	1365	1	4	0	8	39	0	0	100
random	1	1	40	66779	1	2	2	1	0	778	1	4	0	16	40	0	0	100
random	1	1	41	68052	2	3	3	1	0	1236	1	4	0	24	41	0	0	100
random	1	1	42	69906	4	4	4	1	0	734	1	4	0	32	42	0	0	100
random	1	1	43	71140	1	2	2	1	0	1546	1	4	0	16	43	0	0	100
random	1	1	44	73073	6	3	3	1	0	791	1	4	0	24	44	0	0	100
random	1	1	45	74657	3	1	1	1	0	773	1	4	0	8	45	0	0	100
random	1	1	46	75970	4	4	4	1	0	749	1	4	0	32	46	0	0	100
random	1	1	47	77573	2	2	2	1	0	937	1	4	0	16	47	0	0	100
random	1	1	48	78921	5	1	1	1	0	888	1	4	0	8	48	0	0	100
random	1	1	49	80407	2	3	3	1	0	1281	1	4	0	24	49	0	0	100
random	1	1	50	82078	3	1	1	1	0	914	1	4	0	8	50	0	0	100
random	1	1	51	83611	1	4	4	1	0	754	1	4	0	32	51	0	0	100
random	1	1	52	85036	5	3	3	1	0	1125	1	4	0	24	52	0	0	100
random	1	1	53	86954	3	2	2	1	0	915	1	4	0	16	53	0	0	100
random	1	1	54	88285	6	4	4	1	0	643	1	4	0	32	54	0	0	100
random	1	1	55	89587	4	2	2	1	0	1116	1	4	0	16	55	0	0	100
random	1	1	56	91345	1	1	1	1	0	658	1	4	0	8	56	0	0	100
random	1	1	57	92725	5	4	4	1	0	719	1	4	0	32	57	0	0	100
random	1	1	58	93883	2	1	1	1	0	670	1	4	0	8	58	0	0	100
random	1	1	59	95552	6	2	2	1	0	1008	1	4	0	16	59	0	0	100
random	1	1	60	97215	4	3	3	1	0	1529	1	4	0	24	60	0	0	100
random	1	1	61	99805	1	2	2	1	0	1075	1	4	0	16	61	0	0	100
random	1	1	62	101566	6	4	4	1	0	729	1	4	0	32	62	0	0	100
random	1	1	63	102832	4	1	1	1	0	835	1	4	0	8	63	0	0	100
random	1	1	64	104146	2	2	2	1	0	779	1	4	0	16	64	0	0	100
random	1	1	65	105641	4	3	3	1	0	868	1	4	0	24	65	0	0	100
random	1	1	66	107517	3	1	1	1	0	773	1	4	0	8	66	0	0	100
random	1	1	67	108748	1	3	3	1	0	1129	1	4	0	24	67	0	0	100
random	1	1	68	110783	5	4	4	1	0	930	1	4	0	32	68	0	0	100
random	1	1	69	112574	2	2	2	1	0	983	1	4	0	16	69	0	0	100
random	1	1	70	113999	3	1	1	1	0	770	1	4	0	8	70	0	0	100
random	1	1	71	115426	5	4	4	1	0	902	1	4	0	32	71	0	0	100
random	1	1	72	116842	6	3	3	1	0	1026	1	4	0	24	72	0	0	100
random	1	1	73	118785	2	1	1	1	0	879	1	4	0	8	73	0	0	100
random	1	1	74	120389	5	3	3	1	0	1211	1	4	0	24	74	0	0	100
random	1	1	75	121898	1	4	4	1	0	668	1	4	0	32	75	0	0	100
random	1	1	76	122956	6	2	2	1	0	767	1	4	0	16	76	0	0	100
random	1	1	77	124736	2	1	1	1	0	907	1	4	0	8	77	0	0	100
random	1	1	78	126052	4	4	4	1	0	995	1	4	0	32	78	0	0	100
random	1	1	79	127498	3	2	2	1	0	855	1	4	0	16	79	0	0	100
random	1	1	80	129182	4	3	3	1	0	951	1	4	0	24	80	0	0	100
random	1	1	81	130849	1	4	4	1	0	720	1	4	0	32	81	0	0	100
random	1	1	82	132465	5	1	1	1	0	484	1	4	0	8	82	0	0	100
random	1	1	83	133422	3	2	2	1	0	915	1	4	0	16	83	0	0	100
random	1	1	84	135352	6	3	3	1	0	1274	1	4	0	24	84	0	0	100
random	1	1	85	137230	3	2	2	1	0	1098	1	4	0	16	85	0	0	100
random	1	1	86	138866	1	3	3	1	0	1053	1	4	0	24	86	0	0	100
random	1	1	87	140941	4	4	4	1	0	861	1	4	0	32	87	0	0	100
random	1	1	88	142179	2	1	1	1	0	577	1	4	0	8	88	0	0	100
random	1	1	89	143219	6	4	4	1	0	861	1	4	0	32	89	0	0	100
random	1	1	90	144390	3	3	3	1	0	971	1	4	0	24	90	0	0	100
random	1	1	91	145681	5	4	4	1	0	877	1	4	0	32	91	0	0	100
random	1	1	92	147259	1	2	2	1	0	1017	1	4	0	16	92	0	0	100
random	1	1	93	148872	5	1	1	1	0	974	1	4	0	8	93	0	0	100
random	1	1	94	150372	4	3	3	1	0	790	1	4	0	24	94	0	0	100
random	1	1	95	151997	6	1	1	2	0	1424	2	4	0	8	95	0	0	100
random	1	1	96	153898	2	2	2	1	0	1249	1	4	0	16	96	0	0	100
random	1	1	97	155892	4	3	3	1	0	1308	1	4	0	24	97	0	0	100
random	1	1	98	158111	3	2	2	1	0	1102	1	4	0	16	98	0	0	100
random	1	1	99	159738	6	3	3	1	0	969	1	4	0	24	99	0	0	100
random	1	1	100	161061	1	4	4	1	0	841	1	4	0	32	100	0	0	100
random	1	1	101	162624	4	1	1	1	0	670	1	4	0	8	101	0	0	100
random	1	1	102	164310	5	2	2	1	0	1136	1	4	0	16	102	0	0	100
random	1	1	103	166037	2	4	4	1	0	646	1	4	0	32	103	0	0	100
random	1	1	104	167314	3	1	1	1	0	832	1	4	0	8	104	0	0	100
random	1	1	105	168814	1	3	3	1	0	1465	1	4	0	24	105	0	0	100
random	1	1	106	170977	2	2	2	1	0	1053	1	4	0	16	106	0	0	100
random	1	1	107	172414	5	4	4	1	0	760	1	4	0	32	107	0	0	100
random	1	1	108	173762	6	1	1	1	0	743	1	4	0	8	108	0	0	100
random	1	1	109	175106	5	4	4	1	0	790	1	4	0	32	109	0	0	100
random	1	1	110	176515	6	3	3	1	0	1026	1	4	0	24	110	0	0	100
random	1	1	111	178042	2	2	2	1	0	1090	1	4	0	16	111	0	0	100
random	1	1	112	179720	3	1	1	1	0	770	1	4	0	8	112	0	0	100
random	1	1	113	181483	1	2	0	1	2	0	3	4	0	16	112	0	1	99
random	1	1	114	184410	2	3	3	1	0	1092	1	4	0	24	113	0	1	99
random	1	1	115	186235	3	1	1	1	0	950	1	4	0	8	114	0	1	99
random	1	1	116	187772	4	4	4	1	0	837	1	4	0	32	115	0	1	99
random	1	1	117	189630	6	1	1	1	0	999	1	4	0	8	116	0	1	99
random	1	1	118	191546	5	3	3	1	0	933	1	4	0	24	117	0	1	99
random	1	1	119	193062	1	4	4	1	0	686	1	4	0	32	118	0	1	99
random	1	1	120	194234	4	2	2	1	0	796	1	4	0	16	119	0	1	99
fixed	2	1	1	196473	4	1	1	1	0	1013	1	4	0	40	1	0	0	100
fixed	2	1	2	198281	1	2	2	1	0	896	1	4	0	48	2	0	0	100
fixed	2	1	3	199870	6	4	4	1	0	701	1	4	0	64	3	0	0	100
fixed	2	1	4	201304	2	1	1	1	0	736	1	4	0	40	4	0	0	100
fixed	2	1	5	202438	5	3	3	1	0	1096	1	4	0	56	5	0	0	100
fixed	2	1	6	204501	6	4	4	1	0	769	1	4	0	64	6	0	0	100
fixed	2	1	7	205833	3	1	1	1	0	808	1	4	0	40	7	0	0	100
fixed	2	1	8	207583	2	3	3	1	0	1086	1	4	0	56	8	0	0	100
fixed	2	1	9	209379	3	2	2	1	0	738	1	4	0	48	9	0	0	100
fixed	2	1	10	210671	1	4	4	1	0	1084	1	4	0	64	10	0	0	100
fixed	2	1	11	212393	5	2	2	1	0	955	1	4	0	48	11	0	0	100
fixed	2	1	12	213634	4	3	3	1	0	966	1	4	0	56	12	0	0	100
fixed	2	2	1	215723	4	1	1	1	0	974	1	4	0	40	13	0	0	100
fixed	2	2	2	217018	1	2	2	1	0	1847	1	4	0	48	14	0	0	100
fixed	2	2	3	219769	6	4	4	1	0	706	1	4	0	64	15	0	0	100
fixed	2	2	4	221054	2	1	1	1	0	620	1	4	0	40	16	0	0	100
fixed	2	2	5	222651	5	3	3	1	0	857	1	4	0	56	17	0	0	100
fixed	2	2	6	224139	6	4	4	1	0	714	1	4	0	64	18	0	0	100
fixed	2	2	7	225592	3	1	1	1	0	796	1	4	0	40	19	0	0	100
fixed	2	2	8	226775	2	3	3	1	0	1146	1	4	0	56	20	0	0	100
fixed	2	2	9	228320	3	2	2	1	0	848	1	4	0	48	21	0	0	100
fixed	2	2	10	230102	1	4	4	1	0	757	1	4	0	64	22	0	0	100
fixed	2	2	11	231246	5	2	2	1	0	948	1	4	0	48	23	0	0	100
fixed	2	2	12	233111	4	3	3	1	0	998	1	4	0	56	24	0	0	100
fixed	2	3	1	234669	4	1	1	1	0	787	1	4	0	40	25	0	0	100
fixed	2	3	2	235834	1	2	2	1	0	1082	1	4	0	48	26	0	0	100
fixed	2	3	3	237207	6	4	4	1	0	631	1	4	0	64	27	0	0	100
fixed	2	3	4	238671	2	1	1	1	0	914	1	4	0	40	28	0	0	100
fixed	2	3	5	240595	5	3	3	1	0	897	1	4	0	56	29	0	0	100
fixed	2	3	6	241789	6	4	4	1	0	734	1	4	0	64	30	0	0	100
fixed	2	3	7	243336	3	1	1	1	0	685	1	4	0	40	31	0	0	100
fixed	2	3	8	244450	2	3	3	1	0	1085	1	4	0	56	32	0	0	100
fixed	2	3	9	245865	3	2	2	1	0	873	1	4	0	48	33	0	0	100
fixed	2	3	10	247370	1	4	4	1	0	833	1	4	0	64	34	0	0	100
fixed	2	3	11	248570	5	2	2	1	0	1022	1	4	0	48	35	0	0	100
fixed	2	3	12	250156	4	3	3	1	0	859	1	4	0	56	36	0	0	100
fixed	2	4	1	251744	4	1	1	1	0	776	1	4	0	40	37	0	0	100
fixed	2	4	2	253170	1	2	2	1	0	924	1	4	0	48	38	0	0	100
fixed	2	4	3	254655	6	4	4	1	0	701	1	4	0	64	39	0	0	100
fixed	2	4	4	256330	2	1	1	1	0	870	1	4	0	40	40	0	0	100
fixed	2	4	5	257883	5	3	3	1	0	908	1	4	0	56	41	0	0	100
fixed	2	4	6	259214	6	4	4	1	0	692	1	4	0	64	42	0	0	100
fixed	2	4	7	260509	3	1	1	1	0	717	1	4	0	40	43	0	0	100
fixed	2	4	8	262228	2	3	3	1	0	1116	1	4	0	56	44	0	0	100
fixed	2	4	9	264295	3	2	2	1	0	740	1	4	0	48	45	0	0	100
fixed	2	4	10	265857	1	4	4	1	0	650	1	4	0	64	46	0	0	100
fixed	2	4	11	267288	5	2	2	1	0	870	1	4	0	48	47	0	0	100
fixed	2	4	12	268848	4	3	3	1	0	756	1	4	0	56	48	0	0	100
fixed	2	5	1	270691	4	1	1	1	0	781	1	4	0	40	49	0	0	100
fixed	2	5	2	272093	1	2	2	1	0	866	1	4	0	48	50	0	0	100
fixed	2	5	3	273841	6	4	4	1	0	696	1	4	0	64	51	0	0	100
fixed	2	5	4	275062	2	1	1	1	0	749	1	4	0	40	52	0	0	100
fixed	2	5	5	276459	5	3	3	1	0	897	1	4	0	56	53	0	0	100
fixed	2	5	6	277743	6	4	4	1	0	979	1	4	0	64	54	0	0	100
fixed	2	5	7	279014	3	1	1	1	0	821	1	4	0	40	55	0	0	100
fixed	2	5	8	280717	2	3	3	1	0	981	1	4	0	56	56	0	0	100
fixed	2	5	9	282626	3	2	2	1	0	956	1	4	0	48	57	0	0	100
fixed	2	5	10	284184	1	4	4	1	0	666	1	4	0	64	58	0	0	100
fixed	2	5	11	285202	5	2	2	1	0	903	1	4	0	48	59	0	0	100
fixed	2	5	12	286877	4	3	3	1	0	840	1	4	0	56	60	0	0	100
fixed	2	6	1	288835	4	1	1	1	0	765	1	4	0	40	61	0	0	100
fixed	2	6	2	290497	1	2	2	1	0	951	1	4	0	48	62	0	0	100
fixed	2	6	3	292117	6	4	4	1	0	650	1	4	0	64	63	0	0	100
fixed	2	6	4	293622	2	1	1	1	0	802	1	4	0	40	64	0	0	100
fixed	2	6	5	295112	5	3	3	1	0	931	1	4	0	56	65	0	0	100
fixed	2	6	6	296943	6	4	4	1	0	614	1	4	0	64	66	0	0	100
fixed	2	6	7	298402	3	1	1	1	0	608	1	4	0	40	67	0	0	100
fixed	2	6	8	299788	2	3	3	1	0	1461	1	4	0	56	68	0	0	100
fixed	2	6	9	301759	3	2	2	1	0	1914	1	4	0	48	69	0	0	100
fixed	2	6	10	304371	1	4	4	1	0	691	1	4	0	64	70	0	0	100
fixed	2	6	11	305415	5	2	2	1	0	879	1	4	0	48	71	0	0	100
fixed	2	6	12	307291	4	3	3	1	0	736	1	4	0	56	72	0	0	100
fixed	2	7	1	308600	4	1	1	1	0	672	1	4	0	40	73	0	0	100
fixed	2	7	2	309893	1	2	2	1	0	1673	1	4	0	48	74	0	0	100
fixed	2	7	3	311936	6	4	4	1	0	747	1	4	0	64	75	0	0	100
fixed	2	7	4	313009	2	1	1	1	0	1029	1	4	0	40	76	0	0	100
fixed	2	7	5	314353	5	3	3	1	0	972	1	4	0	56	77	0	0	100
fixed	2	7	6	315695	6	4	4	1	0	692	1	4	0	64	78	0	0	100
fixed	2	7	7	316992	3	1	1	1	0	780	1	4	0	40	79	0	0	100
fixed	2	7	8	318118	2	3	3	1	0	1013	1	4	0	56	80	0	0	100
fixed	2	7	9	319456	3	2	2	1	0	732	1	4	0	48	81	0	0	100
fixed	2	7	10	321010	1	4	4	1	0	635	1	4	0	64	82	0	0	100
fixed	2	7	11	322076	5	2	2	1	0	1005	1	4	0	48	83	0	0	100
fixed	2	7	12	323392	4	3	3	1	0	789	1	4	0	56	84	0	0	100
fixed	2	8	1	325158	4	1	1	1	0	754	1	4	0	40	85	0	0	100
fixed	2	8	2	326347	1	2	2	1	0	840	1	4	0	48	86	0	0	100
fixed	2	8	3	328105	6	4	4	1	0	622	1	4	0	64	87	0	0	100
fixed	2	8	4	329580	2	1	1	1	0	608	1	4	0	40	88	0	0	100
fixed	2	8	5	331213	5	3	3	1	0	1154	1	4	0	56	89	0	0	100
fixed	2	8	6	332829	6	4	4	1	0	629	1	4	0	64	90	0	0	100
fixed	2	8	7	334334	3	1	1	1	0	1014	1	4	0	40	91	0	0	100
fixed	2	8	8	335666	2	3	3	1	0	973	1	4	0	56	92	0	0	100
fixed	2	8	9	336947	3	2	2	1	0	663	1	4	0	48	93	0	0	100
fixed	2	8	10	338075	1	4	4	1	0	623	1	4	0	64	94	0	0	100
fixed	2	8	11	339631	5	2	2	1	0	878	1	4	0	48	95	0	0	100
fixed	2	8	12	341249	4	3	3	1	0	929	1	4	0	56	96	0	0	100
fixed	2	9	1	343152	4	1	1	1	0	728	1	4	0	40	97	0	0	100
fixed	2	9	2	344186	1	2	2	1	0	1436	1	4	0	48	98	0	0	100
fixed	2	9	3	345943	6	4	4	1	0	1010	1	4	0	64	99	0	0	100
fixed	2	9	4	347665	2	1	1	1	0	665	1	4	0	40	100	0	0	100
fixed	2	9	5	348950	5	3	3	1	0	875	1	4	0	56	101	0	0	100
fixed	2	9	6	350349	6	4	4	1	0	672	1	4	0	64	102	0	0	100
fixed	2	9	7	352033	3	1	1	1	0	688	1	4	0	40	103	0	0	100
fixed	2	9	8	353732	2	3	3	1	0	1088	1	4	0	56	104	0	0	100
fixed	2	9	9	355589	3	2	2	1	0	786	1	4	0	48	105	0	0	100
fixed	2	9	10	357029	1	4	4	1	0	861	1	4	0	64	106	0	0	100
fixed	2	9	11	358790	5	2	2	1	0	930	1	4	0	48	107	0	0	100
fixed	2	9	12	360403	4	3	3	1	0	990	1	4	0	56	108	0	0	100
fixed	2	10	1	362082	4	1	1	1	0	838	1	4	0	40	109	0	0	100
fixed	2	10	2	363522	1	2	2	1	0	994	1	4	0	48	110	0	0	100
fixed	2	10	3	365236	6	4	4	1	0	625	1	4	0	64	111	0	0	100
fixed	2	10	4	366325	2	1	1	1	0	931	1	4	0	40	112	0	0	100
fixed	2	10	5	368252	5	3	3	1	0	785	1	4	0	56	113	0	0	100
fixed	2	10	6	369725	6	4	4	1	0	691	1	4	0	64	114	0	0	100
fixed	2	10	7	371363	3	1	1	1	0	726	1	4	0	40	115	0	0	100
fixed	2	10	8	372919	2	3	3	1	0	1068	1	4	0	56	116	0	0	100
fixed	2	10	9	374961	3	2	2	1	0	653	1	4	0	48	117	0	0	100
fixed	2	10	10	376327	1	4	4	1	0	868	1	4	0	64	118	0	0	100
fixed	2	10	11	377556	5	2	2	1	0	1039	1	4	0	48	119	0	0	100
fixed	2	10	12	378995	4	3	3	1	0	962	1	4	0	56	120	0	0	100
fixed	3	1	1	381276	4	1	1	1	0	545	1	4	0	72	1	0	0	100
fixed	3	1	2	382543	1	2	2	1	0	884	1	4	0	80	2	0	0	100
fixed	3	1	3	383912	6	4	4	1	0	682	1	4	0	96	3	0	0	100
fixed	3	1	4	385364	2	1	1	1	0	685	1	4	0	72	4	0	0	100
fixed	3	1	5	386941	5	3	3	1	0	849	1	4	0	88	5	0	0	100
fixed	3	1	6	388513	6	4	4	1	0	663	1	4	0	96	6	0	0	100
fixed	3	1	7	390175	3	1	1	1	0	945	1	4	0	72	7	0	0	100
fixed	3	1	8	391936	2	3	3	1	0	998	1	4	0	88	8	0	0	100
fixed	3	1	9	393598	3	2	2	1	0	640	1	4	0	80	9	0	0	100
fixed	3	1	10	395169	1	4	4	1	0	717	1	4	0	96	10	0	0	100
fixed	3	1	11	396261	5	2	2	1	0	871	1	4	0	80	11	0	0	100
fixed	3	1	12	397848	4	3	3	1	0	884	1	4	0	88	12	0	0	100
fixed	3	2	1	399590	4	1	1	1	0	706	1	4	0	72	13	0	0	100
fixed	3	2	2	400594	1	2	2	1	0	1039	1	4	0	80	14	0	0	100
fixed	3	2	3	402170	6	4	4	1	0	781	1	4	0	96	15	0	0	100
fixed	3	2	4	403362	2	1	1	1	0	811	1	4	0	72	16	0	0	100
fixed	3	2	5	405057	5	3	3	1	0	914	1	4	0	88	17	0	0	100
fixed	3	2	6	406520	6	4	4	1	0	685	1	4	0	96	18	0	0	100
fixed	3	2	7	407715	3	1	1	1	0	930	1	4	0	72	19	0	0	100
fixed	3	2	8	408931	2	3	3	1	0	990	1	4	0	88	20	0	0	100
fixed	3	2	9	410235	3	2	2	1	0	647	1	4	0	80	21	0	0	100
fixed	3	2	10	411636	1	4	4	1	0	636	1	4	0	96	22	0	0	100
fixed	3	2	11	412625	5	2	2	1	0	882	1	4	0	80	23	0	0	100
fixed	3	2	12	414401	4	3	3	1	0	823	1	4	0	88	24	0	0	100
fixed	3	3	1	416331	4	1	1	1	0	733	1	4	0	72	25	0	0	100
fixed	3	3	2	417954	1	2	2	1	0	888	1	4	0	80	26	0	0	100
fixed	3	3	3	419567	6	4	4	1	0	668	1	4	0	96	27	0	0	100
fixed	3	3	4	420616	2	1	1	1	0	912	1	4	0	72	28	0	0	100
fixed	3	3	5	422107	5	3	3	1	0	1873	1	4	0	88	29	0	0	100
fixed	3	3	6	424500	6	4	4	1	0	795	1	4	0	96	30	0	0	100
fixed	3	3	7	425935	3	1	1	1	0	894	1	4	0	72	31	0	0	100
fixed	3	3	8	427464	2	3	3	1	0	933	1	4	0	88	32	0	0	100
fixed	3	3	9	428894	3	2	2	1	0	705	1	4	0	80	33	0	0	100
fixed	3	3	10	430336	1	4	4	1	0	676	1	4	0	96	34	0	0	100
fixed	3	3	11	431579	5	2	2	1	0	1127	1	4	0	80	35	0	0	100
fixed	3	3	12	433505	4	3	3	1	0	821	1	4	0	88	36	0	0	100
fixed	3	4	1	435328	4	1	1	1	0	664	1	4	0	72	37	0	0	100
fixed	3	4	2	436686	1	2	2	1	0	967	1	4	0	80	38	0	0	100
fixed	3	4	3	438286	6	4	4	1	0	643	1	4	0	96	39	0	0	100
fixed	3	4	4	439260	2	1	1	1	0	754	1	4	0	72	40	0	0	100
fixed	3	4	5	440457	5	3	0	1	2	0	3	4	0	88	40	0	1	98
fixed	3	4	6	443471	6	4	4	1	0	655	1	4	0	96	41	0	1	98
fixed	3	4	7	444748	3	1	1	1	0	954	1	4	0	72	42	0	1	98
fixed	3	4	8	446395	2	3	3	1	0	1052	1	4	0	88	43	0	1	98
fixed	3	4	9	448178	3	2	2	1	0	688	1	4	0	80	44	0	1	98
fixed	3	4	10	449240	1	4	4	1	0	851	1	4	0	96	45	0	1	98
fixed	3	4	11	450414	5	2	2	1	0	953	1	4	0	80	46	0	1	98
fixed	3	4	12	452132	4	3	3	1	0	1409	1	4	0	88	47	0	1	98
fixed	3	5	1	454408	4	1	1	1	0	776	1	4	0	72	48	0	1	98
fixed	3	5	2	455572	1	2	2	1	0	1479	1	4	0	80	49	0	1	98
fixed	3	5	3	457854	6	4	4	1	0	662	1	4	0	96	50	0	1	98
fixed	3	5	4	458867	2	1	1	1	0	835	1	4	0	72	51	0	1	98
fixed	3	5	5	460045	5	3	3	1	0	1025	1	4	0	88	52	0	1	98
fixed	3	5	6	461847	6	4	4	1	0	637	1	4	0	96	53	0	1	98
fixed	3	5	7	463113	3	1	1	1	0	735	1	4	0	72	54	0	1	98
fixed	3	5	8	464727	2	3	3	1	0	1123	1	4	0	88	55	0	1	98
fixed	3	5	9	466217	3	2	2	1	0	684	1	4	0	80	56	0	1	98
fixed	3	5	10	467519	1	4	4	1	0	829	1	4	0	96	57	0	1	98
fixed	3	5	11	468837	5	2	2	1	0	933	1	4	0	80	58	0	1	98
fixed	3	5	12	470100	4	3	3	1	0	719	1	4	0	88	59	0	1	98
fixed	3	6	1	471467	4	1	1	1	0	693	1	4	0	72	60	0	1	98
fixed	3	6	2	472546	1	2	2	1	0	904	1	4	0	80	61	0	1	98
fixed	3	6	3	473808	6	4	4	1	0	690	1	4	0	96	62	0	1	98
fixed	3	6	4	475351	2	1	1	1	0	849	1	4	0	72	63	0	1	98
fixed	3	6	5	477047	5	3	3	1	0	1017	1	4	0	88	64	0	1	98
fixed	3	6	6	478449	6	4	4	1	0	662	1	4	0	96	65	0	1	98
fixed	3	6	7	479978	3	1	1	1	0	509	1	4	0	72	66	0	1	99
fixed	3	6	8	481210	2	3	3	1	0	1089	1	4	0	88	67	0	1	99
fixed	3	6	9	483327	3	2	2	1	0	823	1	4	0	80	68	0	1	99
fixed	3	6	10	485167	1	4	4	1	0	737	1	4	0	96	69	0	1	99
fixed	3	6	11	486597	5	2	2	1	0	933	1	4	0	80	70	0	1	99
fixed	3	6	12	488017	4	3	3	1	0	865	1	4	0	88	71	0	1	99
fixed	3	7	1	489528	4	1	1	1	0	704	1	4	0	72	72	0	1	99
fixed	3	7	2	490733	1	2	2	1	0	862	1	4	0	80	73	0	1	99
fixed	3	7	3	492538	6	4	4	1	0	657	1	4	0	96	74	0	1	99
fixed	3	7	4	493845	2	1	1	1	0	738	1	4	0	72	75	0	1	99
fixed	3	7	5	494979	5	3	3	1	0	890	1	4	0	88	76	0	1	99
fixed	3	7	6	496416	6	4	4	1	0	581	1	4	0	96	77	0	1	99
fixed	3	7	7	497394	3	1	1	1	0	755	1	4	0	72	78	0	1	99
fixed	3	7	8	498930	2	3	3	1	0	1203	1	4	0	88	79	0	1	99
fixed	3	7	9	500528	3	2	2	1	0	703	1	4	0	80	80	0	1	99
fixed	3	7	10	501924	1	4	4	1	0	627	1	4	0	96	81	0	1	99
fixed	3	7	11	503074	5	2	2	1	0	907	1	4	0	80	82	0	1	99
fixed	3	7	12	504284	4	3	3	1	0	896	1	4	0	88	83	0	1	99
fixed	3	8	1	506018	4	1	1	1	0	798	1	4	0	72	84	0	1	99
fixed	3	8	2	507122	1	2	2	1	0	919	1	4	0	80	85	0	1	99
fixed	3	8	3	508871	6	4	4	1	0	686	1	4	0	96	86	0	1	99
fixed	3	8	4	510145	2	1	1	1	0	671	1	4	0	72	87	0	1	99
fixed	3	8	5	511438	5	3	3	1	0	953	1	4	0	88	88	0	1	99
fixed	3	8	6	512761	6	4	4	1	0	681	1	4	0	96	89	0	1	99
fixed	3	8	7	514219	3	1	1	1	0	803	1	4	0	72	90	0	1	99
fixed	3	8	8	515889	2	3	3	1	0	1044	1	4	0	88	91	0	1	99
fixed	3	8	9	517902	3	2	2	1	0	607	1	4	0	80	92	0	1	99
fixed	3	8	10	519061	1	4	4	1	0	598	1	4	0	96	93	0	1	99
fixed	3	8	11	520325	5	2	2	1	0	984	1	4	0	80	94	0	1	99
fixed	3	8	12	522330	4	3	3	1	0	1091	1	4	0	88	95	0	1	99
fixed	3	9	1	524146	4	1	1	1	0	766	1	4	0	72	96	0	1	99
fixed	3	9	2	525446	1	2	2	1	0	904	1	4	0	80	97	0	1	99
fixed	3	9	3	526969	6	4	4	1	0	503	1	4	0	96	98	0	1	99
fixed	3	9	4	527783	2	1	1	1	0	749	1	4	0	72	99	0	1	99
fixed	3	9	5	529235	5	3	3	1	0	943	1	4	0	88	100	0	1	99
fixed	3	9	6	530840	6	4	4	1	0	707	1	4	0	96	101	0	1	99
fixed	3	9	7	532169	3	1	1	1	0	827	1	4	0	72	102	0	1	99
fixed	3	9	8	533928	2	3	3	1	0	976	1	4	0	88	103	0	1	99
fixed	3	9	9	535693	3	2	2	1	0	509	1	4	0	80	104	0	1	99
fixed	3	9	10	536851	1	4	4	1	0	668	1	4	0	96	105	0	1	99
fixed	3	9	11	537905	5	2	2	1	0	824	1	4	0	80	106	0	1	99
fixed	3	9	12	539177	4	3	3	1	0	802	1	4	0	88	107	0	1	99
fixed	3	10	1	540636	4	1	1	1	0	772	1	4	0	72	108	0	1	99
fixed	3	10	2	542399	1	2	2	1	0	849	1	4	0	80	109	0	1	99
fixed	3	10	3	543902	6	4	4	1	0	634	1	4	0	96	110	0	1	99
fixed	3	10	4	545498	2	1	1	1	0	846	1	4	0	72	111	0	1	99
fixed	3	10	5	547097	5	3	3	1	0	963	1	4	0	88	112	0	1	99
fixed	3	10	6	548801	6	4	4	1	0	650	1	4	0	96	113	0	1	99
fixed	3	10	7	549971	3	1	1	1	0	1057	1	4	0	72	114	0	1	99
fixed	3	10	8	551861	2	3	3	1	0	1105	1	4	0	88	115	0	1	99
fixed	3	10	9	553647	3	2	2	1	0	685	1	4	0	80	116	0	1	99
fixed	3	10	10	554897	1	4	4	1	0	680	1	4	0	96	117	0	1	99
fixed	3	10	11	556527	5	2	2	1	0	987	1	4	0	80	118	0	1	99
fixed	3	10	12	558051	4	3	3	1	0	1066	1	4	0	88	119	0	1	99
fixed	4	1	1	676634	4	1	1	1	0	931	1	4	0	104	1	0	0	100
fixed	4	1	2	678291	1	2	2	1	0	901	1	4	0	112	2	0	0	100
fixed	4	1	3	679837	6	4	4	1	0	612	1	4	0	128	3	0	0	100
fixed	4	1	4	681141	2	1	1	1	0	669	1	4	0	104	4	0	0	100
fixed	4	1	5	682556	5	3	3	1	0	793	1	4	0	120	5	0	0	100
fixed	4	1	6	683994	6	4	4	1	0	644	1	4	0	128	6	0	0	100
fixed	4	1	7	685379	3	1	1	1	0	697	1	4	0	104	7	0	0	100
fixed	4	1	8	686504	2	3	3	1	0	1010	1	4	0	120	8	0	0	100
fixed	4	1	9	687905	3	2	2	1	0	702	1	4	0	112	9	0	0	100
fixed	4	1	10	688928	1	4	4	1	0	715	1	4	0	128	10	0	0	100
fixed	4	1	11	689925	5	2	2	1	0	1001	1	4	0	112	11	0	0	100
fixed	4	1	12	691546	4	3	3	1	0	700	1	4	0	120	12	0	0	100
fixed	4	2	1	693428	4	1	1	1	0	876	1	4	0	104	13	0	0	100
fixed	4	2	2	695063	1	2	2	1	0	863	1	4	0	112	14	0	0	100
fixed	4	2	3	696596	6	4	4	1	0	630	1	4	0	128	15	0	0	100
fixed	4	2	4	698154	2	1	1	1	0	1028	1	4	0	104	16	0	0	100
fixed	4	2	5	699718	5	3	3	1	0	938	1	4	0	120	17	0	0	100
fixed	4	2	6	701059	6	4	4	1	0	713	1	4	0	128	18	0	0	100
fixed	4	2	7	702210	3	1	1	1	0	825	1	4	0	104	19	0	0	100
fixed	4	2	8	703602	2	3	3	1	0	965	1	4	0	120	20	0	0	100
fixed	4	2	9	705130	3	2	2	1	0	541	1	4	0	112	21	0	0	100
fixed	4	2	10	706274	1	4	4	1	0	724	1	4	0	128	22	0	0	100
fixed	4	2	11	707306	5	2	2	1	0	857	1	4	0	112	23	0	0	100
fixed	4	2	12	708926	4	3	3	1	0	716	1	4	0	120	24	0	0	100
fixed	4	3	1	710386	4	1	1	1	0	718	1	4	0	104	25	0	0	100
fixed	4	3	2	711496	1	2	2	1	0	935	1	4	0	112	26	0	0	100
fixed	4	3	3	713121	6	4	4	1	0	547	1	4	0	128	27	0	0	100
fixed	4	3	4	714555	2	1	1	1	0	790	1	4	0	104	28	0	0	100
fixed	4	3	5	715964	5	3	3	1	0	818	1	4	0	120	29	0	0	100
fixed	4	3	6	717483	6	4	4	1	0	690	1	4	0	128	30	0	0	100
fixed	4	3	7	718925	3	1	1	1	0	732	1	4	0	104	31	0	0	100
fixed	4	3	8	720283	2	3	3	1	0	875	1	4	0	120	32	0	0	100
fixed	4	3	9	722166	3	2	2	1	0	755	1	4	0	112	33	0	0	100
fixed	4	3	10	723575	1	4	4	1	0	616	1	4	0	128	34	0	0	100
fixed	4	3	11	724740	5	2	2	1	0	950	1	4	0	112	35	0	0	100
fixed	4	3	12	726613	4	3	3	1	0	831	1	4	0	120	36	0	0	100
fixed	4	4	1	728364	4	1	1	1	0	756	1	4	0	104	37	0	0	100
fixed	4	4	2	729749	1	2	2	1	0	762	1	4	0	112	38	0	0	100
fixed	4	4	3	730823	6	4	4	1	0	1044	1	4	0	128	39	0	0	100
fixed	4	4	4	732704	2	1	1	1	0	669	1	4	0	104	40	0	0	100
fixed	4	4	5	734217	5	3	3	1	0	957	1	4	0	120	41	0	0	100
fixed	4	4	6	735843	6	4	4	1	0	1032	1	4	0	128	42	0	0	100
fixed	4	4	7	737544	3	1	1	1	0	552	1	4	0	104	43	0	0	100
fixed	4	4	8	738849	2	3	3	1	0	841	1	4	0	120	44	0	0	100
fixed	4	4	9	739978	3	2	2	1	0	881	1	4	0	112	45	0	0	100
fixed	4	4	10	741199	1	4	4	1	0	637	1	4	0	128	46	0	0	100
fixed	4	4	11	742661	5	2	2	1	0	711	1	4	0	112	47	0	0	100
fixed	4	4	12	744310	4	3	3	1	0	785	1	4	0	120	48	0	0	100
fixed	4	5	1	746107	4	1	1	1	0	725	1	4	0	104	49	0	0	100
fixed	4	5	2	747592	1	2	2	1	0	926	1	4	0	112	50	0	0	100
fixed	4	5	3	749111	6	4	4	1	0	670	1	4	0	128	51	0	0	100
fixed	4	5	4	750570	2	1	1	1	0	1032	1	4	0	104	52	0	0	100
fixed	4	5	5	752105	5	3	3	1	0	879	1	4	0	120	53	0	0	100
fixed	4	5	6	753888	6	4	4	1	0	972	1	4	0	128	54	0	0	100
fixed	4	5	7	755398	3	1	1	1	0	683	1	4	0	104	55	0	0	100
fixed	4	5	8	756613	2	3	3	1	0	1105	1	4	0	120	56	0	0	100
fixed	4	5	9	758397	3	2	2	1	0	717	1	4	0	112	57	0	0	100
fixed	4	5	10	759735	1	4	4	1	0	628	1	4	0	128	58	0	0	100
fixed	4	5	11	761115	5	2	2	1	0	785	1	4	0	112	59	0	0	100
fixed	4	5	12	762511	4	3	3	1	0	775	1	4	0	120	60	0	0	100
fixed	4	6	1	764051	4	1	1	1	0	621	1	4	0	104	61	0	0	100
fixed	4	6	2	765082	1	2	2	1	0	834	1	4	0	112	62	0	0	100
fixed	4	6	3	766932	6	4	4	1	0	603	1	4	0	128	63	0	0	100
fixed	4	6	4	768373	2	1	1	1	0	614	1	4	0	104	64	0	0	100
fixed	4	6	5	769695	5	3	3	1	0	910	1	4	0	120	65	0	0	100
fixed	4	6	6	771456	6	4	4	1	0	739	1	4	0	128	66	0	0	100
fixed	4	6	7	772822	3	1	1	1	0	969	1	4	0	104	67	0	0	100
fixed	4	6	8	774155	2	3	3	1	0	977	1	4	0	120	68	0	0	100
fixed	4	6	9	776078	3	2	2	1	0	583	1	4	0	112	69	0	0	100
fixed	4	6	10	777007	1	4	4	1	0	872	1	4	0	128	70	0	0	100
fixed	4	6	11	778245	5	2	2	1	0	820	1	4	0	112	71	0	0	100
fixed	4	6	12	779819	4	3	3	1	0	746	1	4	0	120	72	0	0	100
fixed	4	7	1	781360	4	1	1	1	0	688	1	4	0	104	73	0	0	100
fixed	4	7	2	782475	1	2	2	1	0	1177	1	4	0	112	74	0	0	100
fixed	4	7	3	784227	6	4	4	1	0	655	1	4	0	128	75	0	0	100
fixed	4	7	4	785322	2	1	1	1	0	704	1	4	0	104	76	0	0	100
fixed	4	7	5	786442	5	3	3	1	0	825	1	4	0	120	77	0	0	100
fixed	4	7	6	787725	6	4	4	1	0	682	1	4	0	128	78	0	0	100
fixed	4	7	7	789075	3	1	1	1	0	714	1	4	0	104	79	0	0	100
fixed	4	7	8	790436	2	3	3	1	0	960	1	4	0	120	80	0	0	100
fixed	4	7	9	791787	3	2	2	1	0	718	1	4	0	112	81	0	0	100
fixed	4	7	10	793361	1	4	4	1	0	700	1	4	0	128	82	0	0	100
fixed	4	7	11	794767	5	2	2	1	0	792	1	4	0	112	83	0	0	100
fixed	4	7	12	796223	4	3	3	1	0	1595	1	4	0	120	84	0	0	100
fixed	4	8	1	798853	4	1	1	1	0	691	1	4	0	104	85	0	0	100
fixed	4	8	2	800025	1	2	2	1	0	1017	1	4	0	112	86	0	0	100
fixed	4	8	3	802051	6	4	4	1	0	596	1	4	0	128	87	0	0	100
fixed	4	8	4	803264	2	1	1	1	0	680	1	4	0	104	88	0	0	100
fixed	4	8	5	804635	5	3	3	1	0	878	1	4	0	120	89	0	0	100
fixed	4	8	6	806172	6	4	4	1	0	637	1	4	0	128	90	0	0	100
fixed	4	8	7	807806	3	1	1	1	0	736	1	4	0	104	91	0	0	100
fixed	4	8	8	809350	2	3	3	1	0	1126	1	4	0	120	92	0	0	100
fixed	4	8	9	811091	3	2	2	1	0	757	1	4	0	112	93	0	0	100
fixed	4	8	10	812349	1	4	4	1	0	696	1	4	0	128	94	0	0	100
fixed	4	8	11	813414	5	2	2	1	0	955	1	4	0	112	95	0	0	100
fixed	4	8	12	815083	4	3	3	1	0	852	1	4	0	120	96	0	0	100
fixed	4	9	1	817048	4	1	1	1	0	816	1	4	0	104	97	0	0	100
fixed	4	9	2	818435	1	2	2	1	0	926	1	4	0	112	98	0	0	100
fixed	4	9	3	820078	6	4	4	1	0	632	1	4	0	128	99	0	0	100
fixed	4	9	4	821613	2	1	1	1	0	663	1	4	0	104	100	0	0	100
fixed	4	9	5	823300	5	3	3	1	0	856	1	4	0	120	101	0	0	100
fixed	4	9	6	824455	6	4	4	1	0	895	1	4	0	128	102	0	0	100
fixed	4	9	7	825698	3	1	1	1	0	842	1	4	0	104	103	0	0	100
fixed	4	9	8	826833	2	3	3	1	0	946	1	4	0	120	104	0	0	100
fixed	4	9	9	828446	3	2	2	1	0	662	1	4	0	112	105	0	0	100
fixed	4	9	10	829625	1	4	4	1	0	636	1	4	0	128	106	0	0	100
fixed	4	9	11	830850	5	2	2	1	0	824	1	4	0	112	107	0	0	100
fixed	4	9	12	832535	4	3	3	1	0	856	1	4	0	120	108	0	0	100
fixed	4	10	1	834641	4	1	1	1	0	1015	1	4	0	104	109	0	0	100
fixed	4	10	2	836591	1	2	2	1	0	717	1	4	0	112	110	0	0	100
fixed	4	10	3	837917	6	4	4	1	0	644	1	4	0	128	111	0	0	100
fixed	4	10	4	839280	2	1	1	1	0	843	1	4	0	104	112	0	0	100
fixed	4	10	5	840658	5	3	3	1	0	840	1	4	0	120	113	0	0	100
fixed	4	10	6	841831	6	4	4	1	0	623	1	4	0	128	114	0	0	100
fixed	4	10	7	843097	3	1	1	1	0	665	1	4	0	104	115	0	0	100
fixed	4	10	8	844450	2	3	3	1	0	1032	1	4	0	120	116	0	0	100
fixed	4	10	9	846251	3	2	2	1	0	691	1	4	0	112	117	0	0	100
fixed	4	10	10	847911	1	4	4	1	0	805	1	4	0	128	118	0	0	100
fixed	4	10	11	849749	5	2	2	1	0	887	1	4	0	112	119	0	0	100
fixed	4	10	12	851050	4	3	3	1	0	920	1	4	0	120	120	0	0	100
fixed	5	1	1	853351	4	1	1	1	0	582	1	4	0	136	1	0	0	100
fixed	5	1	2	854626	1	2	2	1	0	777	1	4	0	144	2	0	0	100
fixed	5	1	3	856064	6	4	4	1	0	548	1	4	0	160	3	0	0	100
fixed	5	1	4	857385	2	1	1	1	0	692	1	4	0	136	4	0	0	100
fixed	5	1	5	858497	5	3	3	1	0	893	1	4	0	152	5	0	0	100
fixed	5	1	6	859958	6	4	4	1	0	711	1	4	0	160	6	0	0	100
fixed	5	1	7	861004	3	1	1	1	0	738	1	4	0	136	7	0	0	100
fixed	5	1	8	862360	2	3	3	1	0	1025	1	4	0	152	8	0	0	100
fixed	5	1	9	864357	3	2	2	1	0	989	1	4	0	144	9	0	0	100
fixed	5	1	10	866048	1	4	4	1	0	1093	1	4	0	160	10	0	0	100
fixed	5	1	11	867853	5	2	2	1	0	873	1	4	0	144	11	0	0	100
fixed	5	1	12	869645	4	3	3	1	0	653	1	4	0	152	12	0	0	100
fixed	5	2	1	871515	4	1	1	1	0	629	1	4	0	136	13	0	0	100
fixed	5	2	2	872583	1	2	2	1	0	944	1	4	0	144	14	0	0	100
fixed	5	2	3	873937	6	4	4	1	0	615	1	4	0	160	15	0	0	100
fixed	5	2	4	875263	2	1	1	1	0	655	1	4	0	136	16	0	0	100
fixed	5	2	5	876482	5	3	3	1	0	843	1	4	0	152	17	0	0	100
fixed	5	2	6	878260	6	4	4	1	0	736	1	4	0	160	18	0	0	100
fixed	5	2	7	879981	3	1	1	1	0	767	1	4	0	136	19	0	0	100
fixed	5	2	8	881763	2	3	3	1	0	835	1	4	0	152	20	0	0	100
fixed	5	2	9	883234	3	2	2	1	0	589	1	4	0	144	21	0	0	100
fixed	5	2	10	884363	1	4	4	1	0	1173	1	4	0	160	22	0	0	100
fixed	5	2	11	886568	5	2	2	1	0	1000	1	4	0	144	23	0	0	100
fixed	5	2	12	888196	4	3	3	1	0	779	1	4	0	152	24	0	0	100
fixed	5	3	1	889927	4	1	1	1	0	610	1	4	0	136	25	0	0	100
fixed	5	3	2	891500	1	2	2	1	0	895	1	4	0	144	26	0	0	100
fixed	5	3	3	893037	6	4	4	1	0	710	1	4	0	160	27	0	0	100
fixed	5	3	4	894473	2	1	1	1	0	721	1	4	0	136	28	0	0	100
fixed	5	3	5	895711	5	3	3	1	0	917	1	4	0	152	29	0	0	100
fixed	5	3	6	897197	6	4	4	1	0	606	1	4	0	160	30	0	0	100
fixed	5	3	7	898230	3	1	1	1	0	754	1	4	0	136	31	0	0	100
fixed	5	3	8	899750	2	3	3	1	0	913	1	4	0	152	32	0	0	100
fixed	5	3	9	900964	3	2	2	1	0	526	1	4	0	144	33	0	0	100
fixed	5	3	10	902176	1	4	4	1	0	627	1	4	0	160	34	0	0	100
fixed	5	3	11	903815	5	2	2	1	0	933	1	4	0	144	35	0	0	100
fixed	5	3	12	905630	4	3	3	1	0	720	1	4	0	152	36	0	0	100
fixed	5	4	1	907420	4	1	1	1	0	620	1	4	0	136	37	0	0	100
fixed	5	4	2	908635	1	2	0	1	2	0	3	4	0	144	37	0	1	97
fixed	5	4	3	911552	6	4	4	1	0	654	1	4	0	160	38	0	1	97
fixed	5	4	4	912588	2	1	1	1	0	898	1	4	0	136	39	0	1	98
fixed	5	4	5	913924	5	3	3	1	0	937	1	4	0	152	40	0	1	98
fixed	5	4	6	915887	6	4	4	1	0	838	1	4	0	160	41	0	1	98
fixed	5	4	7	917651	3	1	1	1	0	707	1	4	0	136	42	0	1	98
fixed	5	4	8	919274	2	3	3	1	0	975	1	4	0	152	43	0	1	98
fixed	5	4	9	921134	3	2	2	1	0	680	1	4	0	144	44	0	1	98
fixed	5	4	10	922805	1	4	4	1	0	705	1	4	0	160	45	0	1	98
fixed	5	4	11	924193	5	2	2	1	0	886	1	4	0	144	46	0	1	98
fixed	5	4	12	925663	4	3	3	1	0	920	1	4	0	152	47	0	1	98
fixed	5	5	1	927770	4	1	1	1	0	751	1	4	0	136	48	0	1	98
fixed	5	5	2	929047	1	2	2	1	0	1105	1	4	0	144	49	0	1	98
fixed	5	5	3	930910	6	4	4	1	0	634	1	4	0	160	50	0	1	98
fixed	5	5	4	932271	2	1	1	1	0	784	1	4	0	136	51	0	1	98
fixed	5	5	5	933656	5	3	3	1	0	1173	1	4	0	152	52	0	1	98
fixed	5	5	6	935181	6	4	4	1	0	573	1	4	0	160	53	0	1	98
fixed	5	5	7	936193	3	1	1	1	0	658	1	4	0	136	54	0	1	98
fixed	5	5	8	937470	2	3	3	1	0	820	1	4	0	152	55	0	1	98
fixed	5	5	9	938854	3	2	2	1	0	489	1	4	0	144	56	0	1	98
fixed	5	5	10	940351	1	4	4	1	0	642	1	4	0	160	57	0	1	98
fixed	5	5	11	941567	5	2	2	1	0	998	1	4	0	144	58	0	1	98
fixed	5	5	12	943028	4	3	3	1	0	728	1	4	0	152	59	0	1	98
fixed	5	6	1	944728	4	1	1	1	0	616	1	4	0	136	60	0	1	98
fixed	5	6	2	946112	1	2	2	1	0	822	1	4	0	144	61	0	1	98
fixed	5	6	3	947640	6	4	4	1	0	629	1	4	0	160	62	0	1	98
fixed	5	6	4	948751	2	1	1	1	0	758	1	4	0	136	63	0	1	98
fixed	5	6	5	950226	5	3	3	1	0	840	1	4	0	152	64	0	1	98
fixed	5	6	6	951484	6	4	4	1	0	642	1	4	0	160	65	0	1	98
fixed	5	6	7	952581	3	1	1	1	0	860	1	4	0	136	66	0	1	99
fixed	5	6	8	954145	2	3	3	1	0	978	1	4	0	152	67	0	1	99
fixed	5	6	9	955464	3	2	2	1	0	778	1	4	0	144	68	0	1	99
fixed	5	6	10	956557	1	4	4	1	0	907	1	4	0	160	69	0	1	99
fixed	5	6	11	958295	5	2	2	1	0	770	1	4	0	144	70	0	1	99
fixed	5	6	12	959871	4	3	3	1	0	951	1	4	0	152	71	0	1	99
fixed	5	7	1	961970	4	1	1	1	0	686	1	4	0	136	72	0	1	99
fixed	5	7	2	963640	1	2	2	1	0	1143	1	4	0	144	73	0	1	99
fixed	5	7	3	965640	6	4	4	1	0	803	1	4	0	160	74	0	1	99
fixed	5	7	4	967235	2	1	1	1	0	743	1	4	0	136	75	0	1	99
fixed	5	7	5	968996	5	3	3	1	0	901	1	4	0	152	76	0	1	99
fixed	5	7	6	970674	6	4	4	1	0	637	1	4	0	160	77	0	1	99
fixed	5	7	7	972021	3	1	1	1	0	701	1	4	0	136	78	0	1	99
fixed	5	7	8	973059	2	3	3	1	0	1041	1	4	0	152	79	0	1	99
fixed	5	7	9	974624	3	2	2	1	0	534	1	4	0	144	80	0	1	99
fixed	5	7	10	975497	1	4	4	1	0	785	1	4	0	160	81	0	1	99
fixed	5	7	11	976643	5	2	2	1	0	905	1	4	0	144	82	0	1	99
fixed	5	7	12	978474	4	3	3	1	0	835	1	4	0	152	83	0	1	99
fixed	5	8	1	980198	4	1	1	1	0	1570	1	4	0	136	84	0	1	99
fixed	5	8	2	982589	1	2	2	1	0	749	1	4	0	144	85	0	1	99
fixed	5	8	3	984298	6	4	4	1	0	629	1	4	0	160	86	0	1	99
fixed	5	8	4	985530	2	1	1	1	0	760	1	4	0	136	87	0	1	99
fixed	5	8	5	987047	5	3	3	1	0	840	1	4	0	152	88	0	1	99
fixed	5	8	6	988378	6	4	4	1	0	616	1	4	0	160	89	0	1	99
fixed	5	8	7	989694	3	1	1	1	0	664	1	4	0	136	90	0	1	99
fixed	5	8	8	990774	2	3	3	1	0	938	1	4	0	152	91	0	1	99
fixed	5	8	9	992106	3	2	2	1	0	674	1	4	0	144	92	0	1	99
fixed	5	8	10	993369	1	4	4	1	0	660	1	4	0	160	93	0	1	99
fixed	5	8	11	994989	5	2	2	1	0	952	1	4	0	144	94	0	1	99
fixed	5	8	12	996375	4	3	3	1	0	685	1	4	0	152	95	0	1	99
fixed	5	9	1	998176	4	1	1	1	0	729	1	4	0	136	96	0	1	99
fixed	5	9	2	999906	1	2	2	1	0	784	1	4	0	144	97	0	1	99
fixed	5	9	3	1001540	6	4	4	1	0	914	1	4	0	160	98	0	1	99
fixed	5	9	4	1003143	2	1	1	1	0	838	1	4	0	136	99	0	1	99
fixed	5	9	5	1004607	5	3	3	1	0	1000	1	4	0	152	100	0	1	99
fixed	5	9	6	1006240	6	4	4	1	0	611	1	4	0	160	101	0	1	99
fixed	5	9	7	1007492	3	1	1	1	0	726	1	4	0	136	102	0	1	99
fixed	5	9	8	1008960	2	3	3	1	0	952	1	4	0	152	103	0	1	99
fixed	5	9	9	1010735	3	2	2	1	0	589	1	4	0	144	104	0	1	99
fixed	5	9	10	1012338	1	4	4	1	0	841	1	4	0	160	105	0	1	99
fixed	5	9	11	1014207	5	2	2	1	0	1178	1	4	0	144	106	0	1	99
fixed	5	9	12	1015803	4	3	3	1	0	686	1	4	0	152	107	0	1	99
fixed	5	10	1	1017557	4	1	1	1	0	1444	1	4	0	136	108	0	1	99
fixed	5	10	2	1019523	1	2	0	1	2	0	3	4	0	144	108	0	2	98
fixed	5	10	3	1022440	6	4	4	1	0	1133	1	4	0	160	109	0	2	98
fixed	5	10	4	1024428	2	1	1	1	0	705	1	4	0	136	110	0	2	98
fixed	5	10	5	1026032	5	3	3	1	0	1053	1	4	0	152	111	0	2	98
fixed	5	10	6	1027539	6	4	4	1	0	797	1	4	0	160	112	0	2	98
fixed	5	10	7	1028908	3	1	1	1	0	723	1	4	0	136	113	0	2	98
fixed	5	10	8	1030662	2	3	3	1	0	945	1	4	0	152	114	0	2	98
fixed	5	10	9	1032623	3	2	2	1	0	742	1	4	0	144	115	0	2	98
fixed	5	10	10	1033911	1	4	4	1	0	775	1	4	0	160	116	0	2	98
fixed	5	10	11	1035608	5	2	2	1	0	831	1	4	0	144	117	0	2	98
fixed	5	10	12	1037206	4	3	3	1	0	683	1	4	0	152	118	0	2	98
random	6	1	1	1136229	6	1	1	1	0	985	1	4	0	168	1	0	0	100
random	6	1	2	1137713	4	4	4	1	0	699	1	4	0	192	2	0	0	100
random	6	1	3	1139427	2	2	2	1	0	1002	1	4	0	176	3	0	0	100
random	6	1	4	1140730	3	3	3	1	0	755	1	4	0	184	4	0	0	100
random	6	1	5	1142122	5	2	2	1	0	904	1	4	0	176	5	0	0	100
random	6	1	6	1143566	1	4	4	1	0	611	1	4	0	192	6	0	0	100
random	6	1	7	1145145	6	1	1	1	0	784	1	4	0	168	7	0	0	100
random	6	1	8	1146449	2	3	3	1	0	753	1	4	0	184	8	0	0	100
random	6	1	9	1147617	4	2	2	1	0	695	1	4	0	176	9	0	0	100
random	6	1	10	1149290	1	1	1	1	0	753	1	4	0	168	10	0	0	100
random	6	1	11	1150969	5	4	4	1	0	593	1	4	0	192	11	0	0	100
random	6	1	12	1152048	3	3	3	1	0	908	1	4	0	184	12	0	0	100
random	6	1	13	1153674	5	2	2	1	0	1294	1	4	0	176	13	0	0	100
random	6	1	14	1155834	1	4	4	1	0	603	1	4	0	192	14	0	0	100
random	6	1	15	1156958	3	1	1	1	0	804	1	4	0	168	15	0	0	100
random	6	1	16	1158329	4	3	3	1	0	770	1	4	0	184	16	0	0	100
random	6	1	17	1160078	6	4	4	1	0	647	1	4	0	192	17	0	0	100
random	6	1	18	1161190	2	1	1	1	0	776	1	4	0	168	18	0	0	100
random	6	1	19	1162731	5	3	3	1	0	791	1	4	0	184	19	0	0	100
random	6	1	20	1164483	2	2	2	1	0	829	1	4	0	176	20	0	0	100
random	6	1	21	1165613	3	3	3	1	0	853	1	4	0	184	21	0	0	100
random	6	1	22	1166983	6	1	0	0	2	0	3	4	0	168	21	0	1	95
random	6	1	23	1169777	4	2	2	1	0	884	1	4	0	176	22	0	1	96
random	6	1	24	1171299	1	4	4	1	0	636	1	4	0	192	23	0	1	96
random	6	1	25	1172520	4	3	3	1	0	1168	1	4	0	184	24	0	1	96
random	6	1	26	1174167	2	1	1	1	0	795	1	4	0	168	25	0	1	96
random	6	1	27	1175487	5	2	2	1	0	795	1	4	0	176	26	0	1	96
random	6	1	28	1176678	6	4	4	1	0	672	1	4	0	192	27	0	1	96
random	6	1	29	1178117	1	3	3	1	0	1131	1	4	0	184	28	0	1	97
random	6	1	30	1179698	5	2	2	1	0	505	1	4	0	176	29	0	1	97
random	6	1	31	1180606	2	1	1	1	0	786	1	4	0	168	30	0	1	97
random	6	1	32	1182116	3	3	3	1	0	1050	1	4	0	184	31	0	1	97
random	6	1	33	1183761	6	4	4	1	0	693	1	4	0	192	32	0	1	97
random	6	1	34	1184737	4	2	2	1	0	643	1	4	0	176	33	0	1	97
random	6	1	35	1186412	3	4	4	1	0	1204	1	4	0	192	34	0	1	97
random	6	1	36	1188034	1	1	1	1	0	695	1	4	0	168	35	0	1	97
random	6	1	37	1189345	3	4	4	1	0	832	1	4	0	192	36	0	1	97
random	6	1	38	1190791	5	3	3	1	0	1067	1	4	0	184	37	0	1	97
random	6	1	39	1192491	6	1	1	1	0	819	1	4	0	168	38	0	1	97
random	6	1	40	1194175	1	2	2	1	0	803	1	4	0	176	39	0	1	98
random	6	1	41	1195409	2	3	3	1	0	791	1	4	0	184	40	0	1	98
random	6	1	42	1197016	4	4	4	1	0	859	1	4	0	192	41	0	1	98
random	6	1	43	1198361	1	2	2	1	0	938	1	4	0	176	42	0	1	98
random	6	1	44	1200197	6	3	3	1	0	764	1	4	0	184	43	0	1	98
random	6	1	45	1201742	3	1	1	1	0	650	1	4	0	168	44	0	1	98
random	6	1	46	1202915	4	4	4	1	0	729	1	4	0	192	45	0	1	98
random	6	1	47	1204038	2	2	2	1	0	874	1	4	0	176	46	0	1	98
random	6	1	48	1205495	5	1	1	2	0	2092	2	4	0	168	47	0	1	98
random	6	1	49	1208676	2	3	3	1	0	1309	1	4	0	184	48	0	1	98
random	6	1	50	1210607	3	1	1	1	0	1011	1	4	0	168	49	0	1	98
random	6	1	51	1212056	1	4	4	1	0	814	1	4	0	192	50	0	1	98
random	6	1	52	1213547	5	3	3	1	0	1119	1	4	0	184	51	0	1	98
random	6	1	53	1215215	3	2	2	1	0	976	1	4	0	176	52	0	1	98
random	6	1	54	1216869	6	4	4	1	0	1042	1	4	0	192	53	0	1	98
random	6	1	55	1218225	4	2	2	1	0	929	1	4	0	176	54	0	1	98
random	6	1	56	1219854	1	1	1	1	0	795	1	4	0	168	55	0	1	98
random	6	1	57	1220954	5	4	4	1	0	757	1	4	0	192	56	0	1	98
random	6	1	58	1222705	2	1	1	1	0	939	1	4	0	168	57	0	1	98
random	6	1	59	1224007	6	2	2	1	0	1004	1	4	0	176	58	0	1	98
random	6	1	60	1225444	4	3	3	1	0	831	1	4	0	184	59	0	1	98
random	6	1	61	1227438	1	2	2	1	0	1418	1	4	0	176	60	0	1	98
random	6	1	62	1229887	6	4	4	1	0	819	1	4	0	192	61	0	1	98
random	6	1	63	1231400	4	1	1	1	0	754	1	4	0	168	62	0	1	98
random	6	1	64	1232684	2	2	2	1	0	716	1	4	0	176	63	0	1	98
random	6	1	65	1233920	4	3	3	1	0	784	1	4	0	184	64	0	1	98
random	6	1	66	1235718	3	1	1	1	0	740	1	4	0	168	65	0	1	98
random	6	1	67	1237098	1	3	3	1	0	865	1	4	0	184	66	0	1	99
random	6	1	68	1238860	5	4	4	1	0	695	1	4	0	192	67	0	1	99
random	6	1	69	1240428	2	2	2	1	0	1172	1	4	0	176	68	0	1	99
random	6	1	70	1242520	3	1	1	1	0	884	1	4	0	168	69	0	1	99
random	6	1	71	1244185	5	4	4	1	0	581	1	4	0	192	70	0	1	99
random	6	1	72	1245435	6	3	3	1	0	816	1	4	0	184	71	0	1	99
random	6	1	73	1247187	2	1	1	1	0	726	1	4	0	168	72	0	1	99
random	6	1	74	1248388	5	3	3	1	0	1035	1	4	0	184	73	0	1	99
random	6	1	75	1250043	1	4	4	1	0	645	1	4	0	192	74	0	1	99
random	6	1	76	1251282	6	2	2	1	0	800	1	4	0	176	75	0	1	99
random	6	1	77	1252884	2	1	1	1	0	868	1	4	0	168	76	0	1	99
random	6	1	78	1254534	4	4	4	1	0	711	1	4	0	192	77	0	1	99
random	6	1	79	1256224	3	2	2	1	0	711	1	4	0	176	78	0	1	99
random	6	1	80	1257252	4	3	3	1	0	844	1	4	0	184	79	0	1	99
random	6	1	81	1259029	1	4	4	1	0	801	1	4	0	192	80	0	1	99
random	6	1	82	1260577	5	1	1	1	0	407	1	4	0	168	81	0	1	99
random	6	1	83	1261991	3	2	2	1	0	707	1	4	0	176	82	0	1	99
random	6	1	84	1263273	6	3	3	2	0	1140	2	4	0	184	83	0	1	99
random	6	1	85	1265699	3	2	2	1	0	958	1	4	0	176	84	0	1	99
random	6	1	86	1267011	1	3	3	1	0	798	1	4	0	184	85	0	1	99
random	6	1	87	1268119	4	4	4	1	0	887	1	4	0	192	86	0	1	99
random	6	1	88	1269856	2	1	1	1	0	1414	1	4	0	168	87	0	1	99
random	6	1	89	1272023	6	4	4	1	0	714	1	4	0	192	88	0	1	99
random	6	1	90	1273517	3	3	3	1	0	962	1	4	0	184	89	0	1	99
random	6	1	91	1274873	5	4	4	1	0	897	1	4	0	192	90	0	1	99
random	6	1	92	1276394	1	2	2	1	0	697	1	4	0	176	91	0	1	99
random	6	1	93	1277402	5	1	1	1	0	726	1	4	0	168	92	0	1	99
random	6	1	94	1278795	4	3	3	1	0	867	1	4	0	184	93	0	1	99
random	6	1	95	1280259	6	1	1	1	0	757	1	4	0	168	94	0	1	99
random	6	1	96	1281522	2	2	2	1	0	903	1	4	0	176	95	0	1	99
random	6	1	97	1283008	4	3	3	1	0	976	1	4	0	184	96	0	1	99
random	6	1	98	1284727	3	2	2	1	0	688	1	4	0	176	97	0	1	99
random	6	1	99	1286157	6	3	3	1	0	811	1	4	0	184	98	0	1	99
random	6	1	100	1287907	1	4	4	1	0	913	1	4	0	192	99	0	1	99
random	6	1	101	1289503	4	1	1	1	0	614	1	4	0	168	100	0	1	99
random	6	1	102	1291023	5	2	2	1	0	877	1	4	0	176	101	0	1	99
random	6	1	103	1292239	2	4	4	1	0	1026	1	4	0	192	102	0	1	99
random	6	1	104	1293784	3	1	1	1	0	624	1	4	0	168	103	0	1	99
random	6	1	105	1295428	1	3	3	1	0	859	1	4	0	184	104	0	1	99
random	6	1	106	1296987	2	2	2	1	0	809	1	4	0	176	105	0	1	99
random	6	1	107	1298659	5	4	4	1	0	698	1	4	0	192	106	0	1	99
random	6	1	108	1300216	6	1	1	1	0	984	1	4	0	168	107	0	1	99
random	6	1	109	1302171	5	4	4	1	0	1077	1	4	0	192	108	0	1	99
random	6	1	110	1303824	6	3	3	1	0	911	1	4	0	184	109	0	1	99
random	6	1	111	1305036	2	2	2	1	0	596	1	4	0	176	110	0	1	99
random	6	1	112	1306194	3	1	1	1	0	739	1	4	0	168	111	0	1	99
random	6	1	113	1307231	1	2	2	1	0	1054	1	4	0	176	112	0	1	99
random	6	1	114	1308920	2	3	3	1	0	751	1	4	0	184	113	0	1	99
random	6	1	115	1310543	3	1	1	1	0	738	1	4	0	168	114	0	1	99
random	6	1	116	1311862	4	4	4	1	0	642	1	4	0	192	115	0	1	99
random	6	1	117	1313427	6	1	1	1	0	792	1	4	0	168	116	0	1	99
random	6	1	118	1315233	5	3	3	1	0	884	1	4	0	184	117	0	1	99
random	6	1	119	1317133	1	4	4	1	0	827	1	4	0	192	118	0	1	99
random	6	1	120	1318502	4	2	2	1	0	641	1	4	0	176	119	0	1	99
fixed	7	1	1	1320364	4	1	1	1	0	970	1	4	0	200	1	0	0	100
fixed	7	1	2	1321936	1	2	2	1	0	800	1	4	0	208	2	0	0	100
fixed	7	1	3	1323729	6	4	4	1	0	620	1	4	0	224	3	0	0	100
fixed	7	1	4	1325071	2	1	1	1	0	1091	1	4	0	200	4	0	0	100
fixed	7	1	5	1326904	5	3	3	1	0	989	1	4	0	216	5	0	0	100
fixed	7	1	6	1328422	6	4	4	1	0	717	1	4	0	224	6	0	0	100
fixed	7	1	7	1330052	3	1	1	1	0	688	1	4	0	200	7	0	0	100
fixed	7	1	8	1331547	2	3	3	1	0	985	1	4	0	216	8	0	0	100
fixed	7	1	9	1332926	3	2	2	1	0	583	1	4	0	208	9	0	0	100
fixed	7	1	10	1334053	1	4	4	1	0	623	1	4	0	224	10	0	0	100
fixed	7	1	11	1335291	5	2	2	1	0	882	1	4	0	208	11	0	0	100
fixed	7	1	12	1336759	4	3	3	1	0	636	1	4	0	216	12	0	0	100
fixed	7	2	1	1337959	4	1	1	1	0	1049	1	4	0	200	1	0	0	8
fixed	7	2	2	1339838	1	2	2	1	0	802	1	4	0	208	2	0	0	14
fixed	7	2	3	1341221	6	4	4	1	0	591	1	4	0	224	3	0	0	20
fixed	7	2	4	1342271	2	1	1	1	0	698	1	4	0	200	4	0	0	25
fixed	7	2	5	1343329	5	3	3	1	0	926	1	4	0	216	5	0	0	29
fixed	7	2	6	1344659	6	4	4	1	0	677	1	4	0	224	6	0	0	33
fixed	7	2	7	1346288	3	1	1	1	0	833	1	4	0	200	7	0	0	37
fixed	7	2	8	1347991	2	3	3	1	0	912	1	4	0	216	8	0	0	40
fixed	7	2	9	1349212	3	2	2	1	0	653	1	4	0	208	9	0	0	43
fixed	7	2	10	1350177	1	4	4	1	0	884	1	4	0	224	10	0	0	45
fixed	7	2	11	1352008	5	2	2	1	0	886	1	4	0	208	11	0	0	48
fixed	7	2	12	1353854	4	3	3	1	0	712	1	4	0	216	12	0	0	50
fixed	7	3	1	1355235	4	1	1	1	0	781	1	4	0	200	1	0	0	4
fixed	7	3	2	1356426	1	2	2	1	0	1091	1	4	0	208	2	0	0	8
fixed	7	3	3	1357934	6	4	4	1	0	627	1	4	0	224	3	0	0	11
fixed	7	3	4	1359015	2	1	1	1	0	693	1	4	0	200	4	0	0	14
fixed	7	3	5	1360047	5	3	3	1	0	777	1	4	0	216	5	0	0	17
fixed	7	3	6	1361848	6	4	4	1	0	998	1	4	0	224	6	0	0	20
fixed	7	3	7	1363619	3	1	1	1	0	995	1	4	0	200	7	0	0	23
fixed	7	3	8	1364900	2	3	3	1	0	948	1	4	0	216	8	0	0	25
fixed	7	3	9	1366326	3	2	2	1	0	655	1	4	0	208	9	0	0	27
fixed	7	3	10	1367338	1	4	4	1	0	725	1	4	0	224	10	0	0	29
fixed	7	3	11	1368949	5	2	2	1	0	976	1	4	0	208	11	0	0	31
fixed	7	3	12	1370659	4	3	3	1	0	696	1	4	0	216	12	0	0	33
fixed	7	4	1	1372578	4	1	1	1	0	807	1	4	0	200	1	0	0	3
fixed	7	4	2	1373773	1	2	2	1	0	1116	1	4	0	208	2	0	0	5
fixed	7	4	3	1375199	6	4	4	1	0	752	1	4	0	224	3	0	0	8
fixed	7	4	4	1376540	2	1	1	1	0	567	1	4	0	200	4	0	0	10
fixed	7	4	5	1377489	5	3	3	1	0	879	1	4	0	216	5	0	0	12
fixed	7	4	6	1379044	6	4	4	1	0	653	1	4	0	224	6	0	0	14
fixed	7	4	7	1380454	3	1	1	1	0	649	1	4	0	200	7	0	0	16
fixed	7	4	8	1381668	2	3	3	1	0	1262	1	4	0	216	8	0	0	18
fixed	7	4	9	1383234	3	2	2	1	0	795	1	4	0	208	9	0	0	20
fixed	7	4	10	1384708	1	4	4	1	0	757	1	4	0	224	10	0	0	22
fixed	7	4	11	1386197	5	2	2	1	0	758	1	4	0	208	11	0	0	23
fixed	7	4	12	1387891	4	3	3	1	0	870	1	4	0	216	12	0	0	25
fixed	7	5	1	1389820	4	1	1	1	0	604	1	4	0	200	1	0	0	2
fixed	7	5	2	1390896	1	2	2	1	0	887	1	4	0	208	2	0	0	4
fixed	7	5	3	1392159	6	4	4	1	0	593	1	4	0	224	3	0	0	6
fixed	7	5	4	1393093	2	1	1	1	0	618	1	4	0	200	4	0	0	8
fixed	7	5	5	1394054	5	3	3	1	0	977	1	4	0	216	5	0	0	9
fixed	7	5	6	1395934	6	4	4	1	0	753	1	4	0	224	6	0	0	11
fixed	7	5	7	1397131	3	1	1	1	0	559	1	4	0	200	7	0	0	13
fixed	7	5	8	1398173	2	3	3	2	0	1003	2	4	0	216	8	0	0	14
fixed	7	5	9	1399523	3	2	2	1	0	762	1	4	0	208	9	0	0	16
fixed	7	5	10	1401294	1	4	4	1	0	775	1	4	0	224	10	0	0	17
fixed	7	5	11	1403017	5	2	2	1	0	813	1	4	0	208	11	0	0	19
fixed	7	5	12	1404281	4	3	3	1	0	800	1	4	0	216	12	0	0	20
fixed	7	6	1	1406360	4	1	1	1	0	560	1	4	0	200	1	0	0	2
fixed	7	6	2	1407470	1	2	2	1	0	825	1	4	0	208	2	0	0	3
fixed	7	6	3	1409326	6	4	4	1	0	787	1	4	0	224	3	0	0	5
fixed	7	6	4	1410436	2	1	1	1	0	659	1	4	0	200	4	0	0	6
fixed	7	6	5	1411626	5	3	3	1	0	801	1	4	0	216	5	0	0	8
fixed	7	6	6	1412824	6	4	4	1	0	942	1	4	0	224	6	0	0	9
fixed	7	6	7	1414282	3	1	1	1	0	672	1	4	0	200	7	0	0	10
fixed	7	6	8	1415817	2	3	3	1	0	935	1	4	0	216	8	0	0	12
fixed	7	6	9	1417771	3	2	2	1	0	548	1	4	0	208	9	0	0	13
fixed	7	6	10	1419267	1	4	4	1	0	885	1	4	0	224	10	0	0	14
fixed	7	6	11	1421057	5	2	2	1	0	842	1	4	0	208	11	0	0	15
fixed	7	6	12	1422326	4	3	3	1	0	628	1	4	0	216	12	0	0	17
fixed	7	7	1	1423536	4	1	1	1	0	872	1	4	0	200	1	0	0	1
fixed	7	7	2	1425283	1	2	2	1	0	1007	1	4	0	208	2	0	0	3
fixed	7	7	3	1427181	6	4	4	1	0	654	1	4	0	224	3	0	0	4
fixed	7	7	4	1428523	2	1	1	1	0	1045	1	4	0	200	4	0	0	5
fixed	7	7	5	1430068	5	3	3	1	0	932	1	4	0	216	5	0	0	6
fixed	7	7	6	1431623	6	4	4	1	0	1282	1	4	0	224	6	0	0	8
fixed	7	7	7	1433322	3	1	1	1	0	674	1	4	0	200	7	0	0	9
fixed	7	7	8	1434434	2	3	3	1	0	963	1	4	0	216	8	0	0	10
fixed	7	7	9	1435952	3	2	2	1	0	635	1	4	0	208	9	0	0	11
fixed	7	7	10	1437340	1	4	4	1	0	720	1	4	0	224	10	0	0	12
fixed	7	7	11	1439086	5	2	2	1	0	830	1	4	0	208	11	0	0	13
fixed	7	7	12	1440878	4	3	3	1	0	714	1	4	0	216	12	0	0	14
fixed	7	8	1	1442549	4	1	1	1	0	603	1	4	0	200	1	0	0	1
fixed	7	8	2	1444165	1	2	2	1	0	903	1	4	0	208	2	0	0	2
fixed	7	8	3	1445611	6	4	4	1	0	601	1	4	0	224	3	0	0	3
fixed	7	8	4	1446796	2	1	1	1	0	839	1	4	0	200	4	0	0	5
fixed	7	8	5	1447976	5	3	3	1	0	974	1	4	0	216	5	0	0	6
fixed	7	8	6	1449686	6	4	4	1	0	621	1	4	0	224	6	0	0	7
fixed	7	8	7	1450951	3	1	1	1	0	447	1	4	0	200	7	0	0	8
fixed	7	8	8	1452040	2	3	3	1	0	1041	1	4	0	216	8	0	0	9
fixed	7	8	9	1453995	3	2	2	1	0	806	1	4	0	208	9	0	0	10
fixed	7	8	10	1455112	1	4	4	1	0	767	1	4	0	224	10	0	0	11
fixed	7	8	11	1456611	5	2	2	1	0	808	1	4	0	208	11	0	0	12
fixed	7	8	12	1457737	4	3	3	1	0	800	1	4	0	216	12	0	0	13
fixed	7	9	1	1459324	4	1	1	1	0	596	1	4	0	200	1	0	0	1
fixed	7	9	2	1460788	1	2	2	1	0	815	1	4	0	208	2	0	0	2
fixed	7	9	3	1461986	6	4	4	1	0	740	1	4	0	224	3	0	0	3
fixed	7	9	4	1463133	2	1	1	1	0	675	1	4	0	200	4	0	0	4
fixed	7	9	5	1464391	5	3	3	1	0	886	1	4	0	216	5	0	0	5
fixed	7	9	6	1466102	6	4	4	1	0	806	1	4	0	224	6	0	0	6
fixed	7	9	7	1467702	3	1	1	1	0	794	1	4	0	200	7	0	0	7
fixed	7	9	8	1469148	2	3	3	1	0	988	1	4	0	216	8	0	0	8
fixed	7	9	9	1470460	3	2	2	1	0	669	1	4	0	208	9	0	0	9
fixed	7	9	10	1471424	1	4	4	1	0	756	1	4	0	224	10	0	0	9
fixed	7	9	11	1472617	5	2	2	1	0	858	1	4	0	208	11	0	0	10
fixed	7	9	12	1474133	4	3	3	1	0	578	1	4	0	216	12	0	0	11
fixed	7	10	1	1475647	4	1	1	1	0	585	1	4	0	200	1	0	0	1
fixed	7	10	2	1476556	1	2	2	1	0	915	1	4	0	208	2	0	0	2
fixed	7	10	3	1478487	6	4	4	1	0	601	1	4	0	224	3	0	0	3
fixed	7	10	4	1479978	2	1	1	1	0	738	1	4	0	200	4	0	0	4
fixed	7	10	5	1481236	5	3	3	1	0	957	1	4	0	216	5	0	0	4
fixed	7	10	6	1483195	6	4	4	1	0	714	1	4	0	224	6	0	0	5
fixed	7	10	7	1484525	3	1	1	1	0	729	1	4	0	200	7	0	0	6
fixed	7	10	8	1485852	2	3	3	1	0	1065	1	4	0	216	8	0	0	7
fixed	7	10	9	1487261	3	2	2	1	0	717	1	4	0	208	9	0	0	8
fixed	7	10	10	1488928	1	4	4	1	0	679	1	4	0	224	10	0	0	8
fixed	7	10	11	1490011	5	2	2	1	0	729	1	4	0	208	11	0	0	9
fixed	7	10	12	1491292	4	3	3	1	0	795	1	4	0	216	12	0	0	10
