type	block	sequ.	trial	time	Pos.	Color	Button	NumRsp	Resp_1	RT_1	R_Code	Resp_2	RT_2	Trigg.	n_hit	n_inc	n_miss	score_%

random	1	1	1	3887	6	1	1	1	0	951	1	4	0	8	1	0	0	100
random	1	1	2	5643	4	4	4	1	0	732	1	4	0	32	2	0	0	100
random	1	1	3	7289	2	2	2	1	0	951	1	4	0	16	3	0	0	100
random	1	1	4	9191	3	3	3	1	0	638	1	4	0	24	4	0	0	100
random	1	1	5	10834	5	2	2	1	0	1017	1	4	0	16	5	0	0	100
random	1	1	6	12154	1	4	4	1	0	729	1	4	0	32	6	0	0	100
random	1	1	7	13180	6	1	1	1	0	709	1	4	0	8	7	0	0	100
random	1	1	8	14208	2	3	3	1	0	1050	1	4	0	24	8	0	0	100
random	1	1	9	16084	4	2	2	1	0	778	1	4	0	16	9	0	0	100
random	1	1	10	17719	1	1	1	1	0	1110	1	4	0	8	10	0	0	100
random	1	1	11	19628	5	4	4	1	0	668	1	4	0	32	11	0	0	100
random	1	1	12	21333	3	3	3	1	0	932	1	4	0	24	12	0	0	100
random	1	1	13	23486	5	2	2	1	0	1033	1	4	0	16	13	0	0	100
random	1	1	14	25476	1	4	4	1	0	844	1	4	0	32	14	0	0	100
random	1	1	15	26649	3	1	1	1	0	827	1	4	0	8	15	0	0	100
random	1	1	16	27771	4	3	3	1	0	1148	1	4	0	24	16	0	0	100
random	1	1	17	29320	6	4	4	1	0	754	1	4	0	32	17	0	0	100
random	1	1	18	30542	2	1	1	1	0	830	1	4	0	8	18	0	0	100
random	1	1	19	31959	5	3	3	1	0	922	1	4	0	24	19	0	0	100
random	1	1	20	33279	2	2	2	1	0	858	1	4	0	16	20	0	0	100
random	1	1	21	34606	3	3	3	1	0	874	1	4	0	24	21	0	0	100
random	1	1	22	36325	6	1	1	1	0	1105	1	4	0	8	22	0	0	100
random	1	1	23	38396	4	2	2	1	0	873	1	4	0	16	23	0	0	100
random	1	1	24	39696	1	4	4	1	0	738	1	4	0	32	24	0	0	100
random	1	1	25	41214	4	3	3	1	0	1354	1	4	0	24	25	0	0	100
random	1	1	26	43449	2	1	1	1	0	932	1	4	0	8	26	0	0	100
random	1	1	27	45357	5	2	2	1	0	834	1	4	0	16	27	0	0	100
random	1	1	28	46526	6	4	4	1	0	705	1	4	0	32	28	0	0	100
random	1	1	29	47902	1	3	3	1	0	935	1	4	0	24	29	0	0	100
random	1	1	30	49763	5	2	2	1	0	960	1	4	0	16	30	0	0	100
random	1	1	31	51707	2	1	1	1	0	677	1	4	0	8	31	0	0	100
random	1	1	32	52984	3	3	3	1	0	1008	1	4	0	24	32	0	0	100
random	1	1	33	54535	6	4	4	1	0	830	1	4	0	32	33	0	0	100
random	1	1	34	56225	4	2	2	1	0	774	1	4	0	16	34	0	0	100
random	1	1	35	57926	3	4	4	1	0	702	1	4	0	32	35	0	0	100
random	1	1	36	59220	1	1	1	1	0	768	1	4	0	8	36	0	0	100
random	1	1	37	60695	3	4	4	1	0	1097	1	4	0	32	37	0	0	100
random	1	1	38	62569	5	3	3	1	0	1073	1	4	0	24	38	0	0	100
random	1	1	39	64599	6	1	1	1	0	844	1	4	0	8	39	0	0	100
random	1	1	40	66431	1	2	2	1	0	694	1	4	0	16	40	0	0	100
random	1	1	41	67543	2	3	3	1	0	775	1	4	0	24	41	0	0	100
random	1	1	42	69050	4	4	4	1	0	631	1	4	0	32	42	0	0	100
random	1	1	43	70560	1	2	2	1	0	1207	1	4	0	16	43	0	0	100
random	1	1	44	72151	6	3	3	1	0	636	1	4	0	24	44	0	0	100
random	1	1	45	73243	3	1	1	1	0	821	1	4	0	8	45	0	0	100
random	1	1	46	74835	4	4	4	1	0	682	1	4	0	32	46	0	0	100
random	1	1	47	75943	2	2	2	1	0	1139	1	4	0	16	47	0	0	100
random	1	1	48	77417	5	1	1	1	0	868	1	4	0	8	48	0	0	100
random	1	1	49	78890	2	3	3	1	0	1110	1	4	0	24	49	0	0	100
random	1	1	50	80453	3	1	1	1	0	956	1	4	0	8	50	0	0	100
random	1	1	51	81954	1	4	4	1	0	813	1	4	0	32	51	0	0	100
random	1	1	52	83274	5	3	3	1	0	1021	1	4	0	24	52	0	0	100
random	1	1	53	84941	3	2	2	1	0	678	1	4	0	16	53	0	0	100
random	1	1	54	86543	6	4	4	1	0	874	1	4	0	32	54	0	0	100
random	1	1	55	87731	4	2	2	1	0	1120	1	4	0	16	55	0	0	100
random	1	1	56	89710	1	1	1	1	0	700	1	4	0	8	56	0	0	100
random	1	1	57	90765	5	4	4	1	0	872	1	4	0	32	57	0	0	100
random	1	1	58	92460	2	1	1	1	0	1191	1	4	0	8	58	0	0	100
random	1	1	59	94596	6	2	2	1	0	861	1	4	0	16	59	0	0	100
random	1	1	60	95821	4	3	3	1	0	785	1	4	0	24	60	0	0	100
random	1	1	61	97218	1	2	2	1	0	1414	1	4	0	16	61	0	0	100
random	1	1	62	99558	6	4	4	1	0	739	1	4	0	32	62	0	0	100
random	1	1	63	100844	4	1	1	1	0	732	1	4	0	8	63	0	0	100
random	1	1	64	102166	2	2	2	1	0	812	1	4	0	16	64	0	0	100
random	1	1	65	103756	4	3	3	1	0	777	1	4	0	24	65	0	0	100
random	1	1	66	105041	3	1	1	1	0	691	1	4	0	8	66	0	0	100
random	1	1	67	106069	1	3	3	1	0	1255	1	4	0	24	67	0	0	100
random	1	1	68	108196	5	4	4	1	0	781	1	4	0	32	68	0	0	100
random	1	1	69	109771	2	2	2	1	0	906	1	4	0	16	69	0	0	100
random	1	1	70	111651	3	1	1	1	0	738	1	4	0	8	70	0	0	100
random	1	1	71	113282	5	4	4	1	0	742	1	4	0	32	71	0	0	100
random	1	1	72	114477	6	3	3	1	0	851	1	4	0	24	72	0	0	100
random	1	1	73	115998	2	1	1	1	0	882	1	4	0	8	73	0	0	100
random	1	1	74	117673	5	3	3	1	0	1180	1	4	0	24	74	0	0	100
random	1	1	75	119763	1	4	4	1	0	683	1	4	0	32	75	0	0	100
random	1	1	76	121426	6	2	2	1	0	740	1	4	0	16	76	0	0	100
random	1	1	77	123069	2	1	1	1	0	791	1	4	0	8	77	0	0	100
random	1	1	78	124327	4	4	4	1	0	714	1	4	0	32	78	0	0	100
random	1	1	79	125326	3	2	2	1	0	847	1	4	0	16	79	0	0	100
random	1	1	80	127049	4	3	3	1	0	823	1	4	0	24	80	0	0	100
random	1	1	81	128828	1	4	4	1	0	779	1	4	0	32	81	0	0	100
random	1	1	82	130206	5	1	1	1	0	825	1	4	0	8	82	0	0	100
random	1	1	83	131795	3	2	2	1	0	798	1	4	0	16	83	0	0	100
random	1	1	84	132980	6	3	3	1	0	723	1	4	0	24	84	0	0	100
random	1	1	85	134944	3	2	2	1	0	1016	1	4	0	16	85	0	0	100
random	1	1	86	136513	1	3	3	1	0	709	1	4	0	24	86	0	0	100
random	1	1	87	137929	4	4	4	1	0	794	1	4	0	32	87	0	0	100
random	1	1	88	139567	2	1	1	1	0	637	1	4	0	8	88	0	0	100
random	1	1	89	140796	6	4	4	1	0	656	1	4	0	32	89	0	0	100
random	1	1	90	141810	3	3	3	1	0	837	1	4	0	24	90	0	0	100
random	1	1	91	143142	5	4	4	1	0	1069	1	4	0	32	91	0	0	100
random	1	1	92	144689	1	2	2	1	0	1091	1	4	0	16	92	0	0	100
random	1	1	93	146210	5	1	1	1	0	875	1	4	0	8	93	0	0	100
random	1	1	94	147795	4	3	3	1	0	800	1	4	0	24	94	0	0	100
random	1	1	95	149549	6	1	1	1	0	941	1	4	0	8	95	0	0	100
random	1	1	96	151140	2	2	2	1	0	770	1	4	0	16	96	0	0	100
random	1	1	97	152888	4	3	3	1	0	888	1	4	0	24	97	0	0	100
random	1	1	98	154512	3	2	2	1	0	1067	1	4	0	16	98	0	0	100
random	1	1	99	156485	6	3	3	1	0	1112	1	4	0	24	99	0	0	100
random	1	1	100	158614	1	4	4	1	0	862	1	4	0	32	100	0	0	100
random	1	1	101	160022	4	1	1	1	0	930	1	4	0	8	101	0	0	100
random	1	1	102	161569	5	2	2	1	0	945	1	4	0	16	102	0	0	100
random	1	1	103	163249	2	4	4	1	0	809	1	4	0	32	103	0	0	100
random	1	1	104	165030	3	1	1	1	0	718	1	4	0	8	104	0	0	100
random	1	1	105	166491	1	3	3	1	0	912	1	4	0	24	105	0	0	100
random	1	1	106	167697	2	2	2	1	0	1045	1	4	0	16	106	0	0	100
random	1	1	107	169077	5	4	4	1	0	898	1	4	0	32	107	0	0	100
random	1	1	108	170546	6	1	1	1	0	844	1	4	0	8	108	0	0	100
random	1	1	109	172303	5	4	4	1	0	1650	1	4	0	32	109	0	0	100
random	1	1	110	174479	6	3	3	1	0	1094	1	4	0	24	110	0	0	100
random	1	1	111	176331	2	2	2	1	0	695	1	4	0	16	111	0	0	100
random	1	1	112	177363	3	1	1	1	0	859	1	4	0	8	112	0	0	100
random	1	1	113	179109	1	2	2	1	0	938	1	4	0	16	113	0	0	100
random	1	1	114	180902	2	3	3	1	0	966	1	4	0	24	114	0	0	100
random	1	1	115	182458	3	1	1	1	0	699	1	4	0	8	115	0	0	100
random	1	1	116	183933	4	4	4	1	0	741	1	4	0	32	116	0	0	100
random	1	1	117	185276	6	1	1	1	0	868	1	4	0	8	117	0	0	100
random	1	1	118	186595	5	3	3	1	0	909	1	4	0	24	118	0	0	100
random	1	1	119	187890	1	4	4	1	0	853	1	4	0	32	119	0	0	100
random	1	1	120	189128	4	2	2	1	0	793	1	4	0	16	120	0	0	100
fixed	2	1	1	191013	4	1	1	1	0	1041	1	4	0	40	1	0	0	100
fixed	2	1	2	192422	1	2	2	1	0	1382	1	4	0	48	2	0	0	100
fixed	2	1	3	194389	6	4	4	1	0	698	1	4	0	64	3	0	0	100
fixed	2	1	4	195522	2	1	1	1	0	795	1	4	0	40	4	0	0	100
fixed	2	1	5	196925	5	3	3	1	0	791	1	4	0	56	5	0	0	100
fixed	2	1	6	198090	6	4	4	1	0	822	1	4	0	64	6	0	0	100
fixed	2	1	7	199445	3	1	1	1	0	764	1	4	0	40	7	0	0	100
fixed	2	1	8	200615	2	3	3	1	0	971	1	4	0	56	8	0	0	100
fixed	2	1	9	201928	3	2	2	1	0	779	1	4	0	48	9	0	0	100
fixed	2	1	10	203026	1	4	4	1	0	772	1	4	0	64	10	0	0	100
fixed	2	1	11	204206	5	2	2	1	0	1099	1	4	0	48	11	0	0	100
fixed	2	1	12	206283	4	3	3	1	0	706	1	4	0	56	12	0	0	100
fixed	2	2	1	207873	4	1	1	1	0	823	1	4	0	40	13	0	0	100
fixed	2	2	2	209628	1	2	2	1	0	901	1	4	0	48	14	0	0	100
fixed	2	2	3	211197	6	4	4	1	0	650	1	4	0	64	15	0	0	100
fixed	2	2	4	212554	2	1	1	1	0	737	1	4	0	40	16	0	0	100
fixed	2	2	5	214074	5	3	3	1	0	960	1	4	0	56	17	0	0	100
fixed	2	2	6	215384	6	4	4	1	0	857	1	4	0	64	18	0	0	100
fixed	2	2	7	216636	3	1	1	1	0	796	1	4	0	40	19	0	0	100
fixed	2	2	8	218064	2	3	3	1	0	1087	1	4	0	56	20	0	0	100
fixed	2	2	9	220135	3	2	2	1	0	720	1	4	0	48	21	0	0	100
fixed	2	2	10	221898	1	4	4	1	0	1021	1	4	0	64	22	0	0	100
fixed	2	2	11	223855	5	2	2	1	0	818	1	4	0	48	23	0	0	100
fixed	2	2	12	225679	4	3	3	1	0	693	1	4	0	56	24	0	0	100
fixed	2	3	1	227137	4	1	1	1	0	783	1	4	0	40	25	0	0	100
fixed	2	3	2	228649	1	2	2	1	0	991	1	4	0	48	26	0	0	100
fixed	2	3	3	230092	6	4	4	1	0	618	1	4	0	64	27	0	0	100
fixed	2	3	4	231555	2	1	1	1	0	956	1	4	0	40	28	0	0	100
fixed	2	3	5	233414	5	3	3	1	0	798	1	4	0	56	29	0	0	100
fixed	2	3	6	235195	6	4	4	1	0	610	1	4	0	64	30	0	0	100
fixed	2	3	7	236559	3	1	1	1	0	752	1	4	0	40	31	0	0	100
fixed	2	3	8	237855	2	3	3	1	0	961	1	4	0	56	32	0	0	100
fixed	2	3	9	239176	3	2	2	1	0	666	1	4	0	48	33	0	0	100
fixed	2	3	10	240470	1	4	4	1	0	1098	1	4	0	64	34	0	0	100
fixed	2	3	11	242161	5	2	2	1	0	683	1	4	0	48	35	0	0	100
fixed	2	3	12	243519	4	3	3	1	0	690	1	4	0	56	36	0	0	100
fixed	2	4	1	244998	4	1	1	1	0	1003	1	4	0	40	37	0	0	100
fixed	2	4	2	246526	1	2	2	1	0	906	1	4	0	48	38	0	0	100
fixed	2	4	3	248322	6	4	4	1	0	606	1	4	0	64	39	0	0	100
fixed	2	4	4	249350	2	1	1	1	0	907	1	4	0	40	40	0	0	100
fixed	2	4	5	251001	5	3	3	1	0	852	1	4	0	56	41	0	0	100
fixed	2	4	6	252216	6	4	4	1	0	777	1	4	0	64	42	0	0	100
fixed	2	4	7	253551	3	1	1	1	0	808	1	4	0	40	43	0	0	100
fixed	2	4	8	255180	2	3	3	1	0	964	1	4	0	56	44	0	0	100
fixed	2	4	9	256548	3	2	2	1	0	754	1	4	0	48	45	0	0	100
fixed	2	4	10	257901	1	4	4	1	0	768	1	4	0	64	46	0	0	100
fixed	2	4	11	259491	5	2	2	1	0	781	1	4	0	48	47	0	0	100
fixed	2	4	12	261191	4	3	3	1	0	845	1	4	0	56	48	0	0	100
fixed	2	5	1	263242	4	1	1	1	0	734	1	4	0	40	49	0	0	100
fixed	2	5	2	264964	1	2	2	1	0	821	1	4	0	48	50	0	0	100
fixed	2	5	3	266176	6	4	4	1	0	658	1	4	0	64	51	0	0	100
fixed	2	5	4	267840	2	1	1	1	0	699	1	4	0	40	52	0	0	100
fixed	2	5	5	269483	5	3	3	1	0	758	1	4	0	56	53	0	0	100
fixed	2	5	6	270889	6	4	4	1	0	634	1	4	0	64	54	0	0	100
fixed	2	5	7	271975	3	1	1	1	0	740	1	4	0	40	55	0	0	100
fixed	2	5	8	273263	2	3	3	1	0	1006	1	4	0	56	56	0	0	100
fixed	2	5	9	274695	3	2	2	1	0	617	1	4	0	48	57	0	0	100
fixed	2	5	10	275934	1	4	4	1	0	829	1	4	0	64	58	0	0	100
fixed	2	5	11	277058	5	2	2	1	0	853	1	4	0	48	59	0	0	100
fixed	2	5	12	278731	4	3	3	1	0	894	1	4	0	56	60	0	0	100
fixed	2	6	1	280702	4	1	1	1	0	730	1	4	0	40	61	0	0	100
fixed	2	6	2	281785	1	2	0	1	2	0	3	4	0	48	61	0	1	98
fixed	2	6	3	284825	6	4	4	1	0	740	1	4	0	64	62	0	1	98
fixed	2	6	4	285895	2	1	1	1	0	743	1	4	0	40	63	0	1	98
fixed	2	6	5	286940	5	3	3	1	0	866	1	4	0	56	64	0	1	98
fixed	2	6	6	288216	6	4	4	1	0	709	1	4	0	64	65	0	1	98
fixed	2	6	7	289907	3	1	1	1	0	828	1	4	0	40	66	0	1	99
fixed	2	6	8	291170	2	3	3	1	0	1039	1	4	0	56	67	0	1	99
fixed	2	6	9	292669	3	2	2	1	0	640	1	4	0	48	68	0	1	99
fixed	2	6	10	293756	1	4	4	1	0	642	1	4	0	64	69	0	1	99
fixed	2	6	11	294812	5	2	2	2	0	2173	2	4	0	48	70	0	1	99
fixed	2	6	12	297957	4	3	3	1	0	712	1	4	0	56	71	0	1	99
fixed	2	7	1	299431	4	1	1	1	0	929	1	4	0	40	72	0	1	99
fixed	2	7	2	300701	1	2	2	1	0	1419	1	4	0	48	73	0	1	99
fixed	2	7	3	302583	6	4	4	1	0	788	1	4	0	64	74	0	1	99
fixed	2	7	4	303834	2	1	1	1	0	679	1	4	0	40	75	0	1	99
fixed	2	7	5	305299	5	3	3	1	0	913	1	4	0	56	76	0	1	99
fixed	2	7	6	306643	6	4	4	1	0	656	1	4	0	64	77	0	1	99
fixed	2	7	7	307729	3	1	1	1	0	802	1	4	0	40	78	0	1	99
fixed	2	7	8	308958	2	3	3	1	0	886	1	4	0	56	79	0	1	99
fixed	2	7	9	310464	3	2	2	1	0	638	1	4	0	48	80	0	1	99
fixed	2	7	10	311659	1	4	4	1	0	675	1	4	0	64	81	0	1	99
fixed	2	7	11	313060	5	2	2	1	0	760	1	4	0	48	82	0	1	99
fixed	2	7	12	314241	4	3	3	1	0	710	1	4	0	56	83	0	1	99
fixed	2	8	1	315755	4	1	1	1	0	622	1	4	0	40	84	0	1	99
fixed	2	8	2	317080	1	2	2	3	0	2126	2	4	0	48	85	0	1	99
fixed	2	8	3	319960	6	4	4	1	0	660	1	4	0	64	86	0	1	99
fixed	2	8	4	321050	2	1	1	1	0	893	1	4	0	40	87	0	1	99
fixed	2	8	5	322584	5	3	3	1	0	837	1	4	0	56	88	0	1	99
fixed	2	8	6	324320	6	4	4	1	0	659	1	4	0	64	89	0	1	99
fixed	2	8	7	325401	3	1	1	1	0	933	1	4	0	40	90	0	1	99
fixed	2	8	8	327055	2	3	3	1	0	1079	1	4	0	56	91	0	1	99
fixed	2	8	9	328735	3	2	2	1	0	632	1	4	0	48	92	0	1	99
fixed	2	8	10	330164	1	4	4	1	0	644	1	4	0	64	93	0	1	99
fixed	2	8	11	331106	5	2	2	1	0	1107	1	4	0	48	94	0	1	99
fixed	2	8	12	332948	4	3	3	1	0	981	1	4	0	56	95	0	1	99
fixed	2	9	1	334651	4	1	1	1	0	709	1	4	0	40	96	0	1	99
fixed	2	9	2	336316	1	2	2	1	0	1295	1	4	0	48	97	0	1	99
fixed	2	9	3	338372	6	4	4	1	0	592	1	4	0	64	98	0	1	99
fixed	2	9	4	339341	2	1	1	1	0	663	1	4	0	40	99	0	1	99
fixed	2	9	5	340497	5	3	3	1	0	822	1	4	0	56	100	0	1	99
fixed	2	9	6	342323	6	4	4	1	0	808	1	4	0	64	101	0	1	99
fixed	2	9	7	343978	3	1	1	1	0	586	1	4	0	40	102	0	1	99
fixed	2	9	8	344921	2	3	3	1	0	931	1	4	0	56	103	0	1	99
fixed	2	9	9	346300	3	2	2	1	0	640	1	4	0	48	104	0	1	99
fixed	2	9	10	347301	1	4	4	1	0	782	1	4	0	64	105	0	1	99
fixed	2	9	11	348741	5	2	2	1	0	1129	1	4	0	48	106	0	1	99
fixed	2	9	12	350308	4	3	3	1	0	718	1	4	0	56	107	0	1	99
fixed	2	10	1	351943	4	1	1	1	0	777	1	4	0	40	108	0	1	99
fixed	2	10	2	353331	1	2	2	1	0	766	1	4	0	48	109	0	1	99
fixed	2	10	3	354546	6	4	4	1	0	971	1	4	0	64	110	0	1	99
fixed	2	10	4	356289	2	1	1	1	0	793	1	4	0	40	111	0	1	99
fixed	2	10	5	357631	5	3	3	1	0	920	1	4	0	56	112	0	1	99
fixed	2	10	6	359593	6	4	4	1	0	997	1	4	0	64	113	0	1	99
fixed	2	10	7	361123	3	1	1	1	0	732	1	4	0	40	114	0	1	99
fixed	2	10	8	362314	2	3	3	1	0	1002	1	4	0	56	115	0	1	99
fixed	2	10	9	363953	3	2	2	1	0	572	1	4	0	48	116	0	1	99
fixed	2	10	10	365537	1	4	4	1	0	930	1	4	0	64	117	0	1	99
fixed	2	10	11	367026	5	2	2	1	0	947	1	4	0	48	118	0	1	99
fixed	2	10	12	368636	4	3	3	1	0	774	1	4	0	56	119	0	1	99
fixed	3	1	1	370771	4	1	1	1	0	811	1	4	0	72	1	0	0	100
fixed	3	1	2	372428	1	2	0	1	2	0	3	4	0	80	1	0	1	50
fixed	3	1	3	375719	6	4	4	1	0	746	1	4	0	96	2	0	1	67
fixed	3	1	4	376892	2	1	1	1	0	880	1	4	0	72	3	0	1	75
fixed	3	1	5	378705	5	3	3	1	0	860	1	4	0	88	4	0	1	80
fixed	3	1	6	380455	6	4	4	1	0	642	1	4	0	96	5	0	1	83
fixed	3	1	7	381627	3	1	1	1	0	648	1	4	0	72	6	0	1	86
fixed	3	1	8	382852	2	3	3	1	0	1100	1	4	0	88	7	0	1	88
fixed	3	1	9	384617	3	2	2	1	0	809	1	4	0	80	8	0	1	89
fixed	3	1	10	386167	1	4	4	1	0	680	1	4	0	96	9	0	1	90
fixed	3	1	11	387229	5	2	2	1	0	906	1	4	0	80	10	0	1	91
fixed	3	1	12	389143	4	3	3	1	0	802	1	4	0	88	11	0	1	92
fixed	3	2	1	391206	4	1	1	1	0	794	1	4	0	72	12	0	1	92
fixed	3	2	2	392868	1	2	2	2	0	2228	2	4	0	80	13	0	1	93
fixed	3	2	3	395587	6	4	4	1	0	656	1	4	0	96	14	0	1	93
fixed	3	2	4	396838	2	1	1	1	0	843	1	4	0	72	15	0	1	94
fixed	3	2	5	398125	5	3	3	1	0	949	1	4	0	88	16	0	1	94
fixed	3	2	6	400024	6	4	4	1	0	685	1	4	0	96	17	0	1	94
fixed	3	2	7	401469	3	1	1	1	0	711	1	4	0	72	18	0	1	95
fixed	3	2	8	402817	2	3	3	1	0	990	1	4	0	88	19	0	1	95
fixed	3	2	9	404495	3	2	2	1	0	631	1	4	0	80	20	0	1	95
fixed	3	2	10	405447	1	4	4	1	0	719	1	4	0	96	21	0	1	95
fixed	3	2	11	406480	5	2	2	1	0	1123	1	4	0	80	22	0	1	96
fixed	3	2	12	407941	4	3	3	1	0	726	1	4	0	88	23	0	1	96
fixed	3	3	1	409819	4	1	1	1	0	846	1	4	0	72	24	0	1	96
fixed	3	3	2	411509	1	2	2	1	0	1206	1	4	0	80	25	0	1	96
fixed	3	3	3	413468	6	4	4	1	0	747	1	4	0	96	26	0	1	96
fixed	3	3	4	415115	2	1	1	1	0	613	1	4	0	72	27	0	1	96
fixed	3	3	5	416071	5	3	3	1	0	1013	1	4	0	88	28	0	1	97
fixed	3	3	6	417806	6	4	4	1	0	675	1	4	0	96	29	0	1	97
fixed	3	3	7	419454	3	1	1	1	0	918	1	4	0	72	30	0	1	97
fixed	3	3	8	421282	2	3	3	1	0	1024	1	4	0	88	31	0	1	97
fixed	3	3	9	422811	3	2	2	1	0	688	1	4	0	80	32	0	1	97
fixed	3	3	10	424058	1	4	4	1	0	755	1	4	0	96	33	0	1	97
fixed	3	3	11	425581	5	2	2	1	0	1058	1	4	0	80	34	0	1	97
fixed	3	3	12	427121	4	3	3	2	0	1857	2	4	0	88	35	0	1	97
fixed	3	4	1	429968	4	1	1	1	0	856	1	4	0	72	36	0	1	97
fixed	3	4	2	431650	1	2	2	1	0	1713	1	4	0	80	37	0	1	97
fixed	3	4	3	433846	6	4	4	1	0	772	1	4	0	96	38	0	1	97
fixed	3	4	4	435311	2	1	1	1	0	702	1	4	0	72	39	0	1	98
fixed	3	4	5	437021	5	3	3	1	0	933	1	4	0	88	40	0	1	98
fixed	3	4	6	438304	6	4	4	1	0	863	1	4	0	96	41	0	1	98
fixed	3	4	7	439842	3	1	1	1	0	734	1	4	0	72	42	0	1	98
fixed	3	4	8	441062	2	3	3	1	0	874	1	4	0	88	43	0	1	98
fixed	3	4	9	442720	3	2	2	1	0	660	1	4	0	80	44	0	1	98
fixed	3	4	10	444118	1	4	4	1	0	977	1	4	0	96	45	0	1	98
fixed	3	4	11	445640	5	2	2	1	0	1016	1	4	0	80	46	0	1	98
fixed	3	4	12	447526	4	3	3	1	0	760	1	4	0	88	47	0	1	98
fixed	3	5	1	449500	4	1	1	1	0	765	1	4	0	72	48	0	1	98
fixed	3	5	2	450852	1	2	2	1	0	1340	1	4	0	80	49	0	1	98
fixed	3	5	3	452988	6	4	4	1	0	1034	1	4	0	96	50	0	1	98
fixed	3	5	4	454483	2	1	1	1	0	1002	1	4	0	72	51	0	1	98
fixed	3	5	5	456179	5	3	3	1	0	979	1	4	0	88	52	0	1	98
fixed	3	5	6	457577	6	4	4	1	0	791	1	4	0	96	53	0	1	98
fixed	3	5	7	459056	3	1	1	1	0	688	1	4	0	72	54	0	1	98
fixed	3	5	8	460151	2	3	3	1	0	970	1	4	0	88	55	0	1	98
fixed	3	5	9	461798	3	2	2	1	0	668	1	4	0	80	56	0	1	98
fixed	3	5	10	463468	1	4	4	1	0	709	1	4	0	96	57	0	1	98
fixed	3	5	11	464812	5	2	2	1	0	965	1	4	0	80	58	0	1	98
fixed	3	5	12	466382	4	3	3	1	0	682	1	4	0	88	59	0	1	98
fixed	3	6	1	468078	4	1	1	1	0	810	1	4	0	72	60	0	1	98
fixed	3	6	2	469624	1	2	2	1	0	1273	1	4	0	80	61	0	1	98
fixed	3	6	3	471758	6	4	4	1	0	766	1	4	0	96	62	0	1	98
fixed	3	6	4	473494	2	1	1	1	0	725	1	4	0	72	63	0	1	98
fixed	3	6	5	475109	5	3	3	1	0	681	1	4	0	88	64	0	1	98
fixed	3	6	6	476503	6	4	4	1	0	669	1	4	0	96	65	0	1	98
fixed	3	6	7	477793	3	1	1	1	0	687	1	4	0	72	66	0	1	99
fixed	3	6	8	478894	2	3	3	1	0	928	1	4	0	88	67	0	1	99
fixed	3	6	9	480361	3	2	2	1	0	618	1	4	0	80	68	0	1	99
fixed	3	6	10	481522	1	4	4	1	0	665	1	4	0	96	69	0	1	99
fixed	3	6	11	482575	5	2	2	1	0	892	1	4	0	80	70	0	1	99
fixed	3	6	12	483837	4	3	3	1	0	679	1	4	0	88	71	0	1	99
fixed	3	7	1	485705	4	1	1	1	0	823	1	4	0	72	72	0	1	99
fixed	3	7	2	487541	1	2	2	2	0	1586	2	4	0	80	73	0	1	99
fixed	3	7	3	490135	6	4	4	1	0	740	1	4	0	96	74	0	1	99
fixed	3	7	4	491406	2	1	1	1	0	790	1	4	0	72	75	0	1	99
fixed	3	7	5	492957	5	3	3	1	0	980	1	4	0	88	76	0	1	99
fixed	3	7	6	494645	6	4	4	1	0	573	1	4	0	96	77	0	1	99
fixed	3	7	7	495592	3	1	1	1	0	789	1	4	0	72	78	0	1	99
fixed	3	7	8	497255	2	3	3	1	0	1006	1	4	0	88	79	0	1	99
fixed	3	7	9	499204	3	2	2	1	0	636	1	4	0	80	80	0	1	99
fixed	3	7	10	500365	1	4	4	1	0	835	1	4	0	96	81	0	1	99
fixed	3	7	11	501576	5	2	2	1	0	1031	1	4	0	80	82	0	1	99
fixed	3	7	12	503120	4	3	3	1	0	814	1	4	0	88	83	0	1	99
fixed	3	8	1	504618	4	1	1	1	0	790	1	4	0	72	84	0	1	99
fixed	3	8	2	506063	1	2	2	1	0	841	1	4	0	80	85	0	1	99
fixed	3	8	3	507633	6	4	4	1	0	607	1	4	0	96	86	0	1	99
fixed	3	8	4	508910	2	1	1	1	0	688	1	4	0	72	87	0	1	99
fixed	3	8	5	510355	5	3	3	1	0	940	1	4	0	88	88	0	1	99
fixed	3	8	6	511710	6	4	4	1	0	1178	1	4	0	96	89	0	1	99
fixed	3	8	7	513204	3	1	1	1	0	707	1	4	0	72	90	0	1	99
fixed	3	8	8	514301	2	3	3	1	0	941	1	4	0	88	91	0	1	99
fixed	3	8	9	515688	3	2	2	1	0	674	1	4	0	80	92	0	1	99
fixed	3	8	10	516912	1	4	4	1	0	702	1	4	0	96	93	0	1	99
fixed	3	8	11	518504	5	2	2	1	0	834	1	4	0	80	94	0	1	99
fixed	3	8	12	520346	4	3	3	1	0	564	1	4	0	88	95	0	1	99
fixed	3	9	1	522077	4	1	1	1	0	691	1	4	0	72	96	0	1	99
fixed	3	9	2	523623	1	2	2	1	0	1242	1	4	0	80	97	0	1	99
fixed	3	9	3	525562	6	4	4	1	0	840	1	4	0	96	98	0	1	99
fixed	3	9	4	527204	2	1	1	1	0	690	1	4	0	72	99	0	1	99
fixed	3	9	5	528507	5	3	3	1	0	930	1	4	0	88	100	0	1	99
fixed	3	9	6	530037	6	4	4	1	0	682	1	4	0	96	101	0	1	99
fixed	3	9	7	531496	3	1	1	1	0	724	1	4	0	72	102	0	1	99
fixed	3	9	8	532726	2	3	3	1	0	896	1	4	0	88	103	0	1	99
fixed	3	9	9	534116	3	2	2	1	0	677	1	4	0	80	104	0	1	99
fixed	3	9	10	535254	1	4	4	1	0	765	1	4	0	96	105	0	1	99
fixed	3	9	11	537004	5	2	2	1	0	843	1	4	0	80	106	0	1	99
fixed	3	9	12	538659	4	3	3	1	0	349	1	4	0	88	107	0	1	99
fixed	3	10	1	540205	4	1	1	1	0	643	1	4	0	72	108	0	1	99
fixed	3	10	2	541872	1	2	2	1	0	1141	1	4	0	80	109	0	1	99
fixed	3	10	3	543491	6	4	4	1	0	768	1	4	0	96	110	0	1	99
fixed	3	10	4	545256	2	1	1	1	0	669	1	4	0	72	111	0	1	99
fixed	3	10	5	546969	5	3	3	1	0	884	1	4	0	88	112	0	1	99
fixed	3	10	6	548256	6	4	4	1	0	798	1	4	0	96	113	0	1	99
fixed	3	10	7	549424	3	1	1	1	0	661	1	4	0	72	114	0	1	99
fixed	3	10	8	550456	2	3	3	1	0	873	1	4	0	88	115	0	1	99
fixed	3	10	9	552079	3	2	2	1	0	725	1	4	0	80	116	0	1	99
fixed	3	10	10	553672	1	4	4	1	0	1201	1	4	0	96	117	0	1	99
fixed	3	10	11	555558	5	2	2	1	0	761	1	4	0	80	118	0	1	99
fixed	3	10	12	557104	4	3	3	1	0	576	1	4	0	88	119	0	1	99
fixed	4	1	1	646631	4	1	1	1	0	927	1	4	0	104	1	0	0	100
fixed	4	1	2	648006	1	2	2	1	0	893	1	4	0	112	2	0	0	100
fixed	4	1	3	649820	6	4	4	1	0	729	1	4	0	128	3	0	0	100
fixed	4	1	4	650951	2	1	1	1	0	713	1	4	0	104	4	0	0	100
fixed	4	1	5	651992	5	3	3	1	0	909	1	4	0	120	5	0	0	100
fixed	4	1	6	653633	6	4	4	1	0	751	1	4	0	128	6	0	0	100
fixed	4	1	7	655205	3	1	1	1	0	676	1	4	0	104	7	0	0	100
fixed	4	1	8	656187	2	3	3	1	0	994	1	4	0	120	8	0	0	100
fixed	4	1	9	657923	3	2	2	1	0	730	1	4	0	112	9	0	0	100
fixed	4	1	10	659353	1	4	4	1	0	749	1	4	0	128	10	0	0	100
fixed	4	1	11	660864	5	2	2	1	0	709	1	4	0	112	11	0	0	100
fixed	4	1	12	662497	4	3	3	1	0	720	1	4	0	120	12	0	0	100
fixed	4	2	1	664143	4	1	1	1	0	730	1	4	0	104	13	0	0	100
fixed	4	2	2	665172	1	2	2	1	0	1006	1	4	0	112	14	0	0	100
fixed	4	2	3	666522	6	4	4	1	0	749	1	4	0	128	15	0	0	100
fixed	4	2	4	667925	2	1	1	1	0	914	1	4	0	104	16	0	0	100
fixed	4	2	5	669307	5	3	3	1	0	1063	1	4	0	120	17	0	0	100
fixed	4	2	6	670837	6	4	4	1	0	702	1	4	0	128	18	0	0	100
fixed	4	2	7	672367	3	1	1	1	0	757	1	4	0	104	19	0	0	100
fixed	4	2	8	673416	2	3	3	1	0	993	1	4	0	120	20	0	0	100
fixed	4	2	9	675029	3	2	2	1	0	637	1	4	0	112	21	0	0	100
fixed	4	2	10	676621	1	4	4	1	0	977	1	4	0	128	22	0	0	100
fixed	4	2	11	678242	5	2	2	1	0	788	1	4	0	112	23	0	0	100
fixed	4	2	12	679747	4	3	3	1	0	669	1	4	0	120	24	0	0	100
fixed	4	3	1	681151	4	1	1	1	0	769	1	4	0	104	25	0	0	100
fixed	4	3	2	682717	1	2	2	1	0	1167	1	4	0	112	26	0	0	100
fixed	4	3	3	684532	6	4	4	1	0	698	1	4	0	128	27	0	0	100
fixed	4	3	4	686041	2	1	1	1	0	723	1	4	0	104	28	0	0	100
fixed	4	3	5	687747	5	3	3	1	0	778	1	4	0	120	29	0	0	100
fixed	4	3	6	689186	6	4	4	1	0	685	1	4	0	128	30	0	0	100
fixed	4	3	7	690685	3	1	1	1	0	718	1	4	0	104	31	0	0	100
fixed	4	3	8	692272	2	3	3	1	0	883	1	4	0	120	32	0	0	100
fixed	4	3	9	693925	3	2	2	1	0	684	1	4	0	112	33	0	0	100
fixed	4	3	10	695417	1	4	4	1	0	693	1	4	0	128	34	0	0	100
fixed	4	3	11	696758	5	2	2	1	0	828	1	4	0	112	35	0	0	100
fixed	4	3	12	698606	4	3	3	1	0	734	1	4	0	120	36	0	0	100
fixed	4	4	1	700064	4	1	1	1	0	656	1	4	0	104	37	0	0	100
fixed	4	4	2	701412	1	2	2	1	0	1215	1	4	0	112	38	0	0	100
fixed	4	4	3	703050	6	4	4	1	0	1090	1	4	0	128	39	0	0	100
fixed	4	4	4	704976	2	1	1	1	0	1888	1	4	0	104	40	0	0	100
fixed	4	4	5	707846	5	3	3	1	0	863	1	4	0	120	41	0	0	100
fixed	4	4	6	709713	6	4	4	1	0	712	1	4	0	128	42	0	0	100
fixed	4	4	7	711213	3	1	1	1	0	688	1	4	0	104	43	0	0	100
fixed	4	4	8	712449	2	3	3	1	0	948	1	4	0	120	44	0	0	100
fixed	4	4	9	714356	3	2	2	1	0	595	1	4	0	112	45	0	0	100
fixed	4	4	10	715736	1	4	4	1	0	744	1	4	0	128	46	0	0	100
fixed	4	4	11	716976	5	2	2	1	0	780	1	4	0	112	47	0	0	100
fixed	4	4	12	718544	4	3	3	1	0	689	1	4	0	120	48	0	0	100
fixed	4	5	1	720464	4	1	1	1	0	888	1	4	0	104	49	0	0	100
fixed	4	5	2	721736	1	2	2	1	0	850	1	4	0	112	50	0	0	100
fixed	4	5	3	723040	6	4	4	1	0	1251	1	4	0	128	51	0	0	100
fixed	4	5	4	725078	2	1	1	1	0	717	1	4	0	104	52	0	0	100
fixed	4	5	5	726807	5	3	3	1	0	844	1	4	0	120	53	0	0	100
fixed	4	5	6	728244	6	4	4	1	0	759	1	4	0	128	54	0	0	100
fixed	4	5	7	729517	3	1	1	1	0	568	1	4	0	104	55	0	0	100
fixed	4	5	8	730591	2	3	3	1	0	883	1	4	0	120	56	0	0	100
fixed	4	5	9	732029	3	2	2	1	0	638	1	4	0	112	57	0	0	100
fixed	4	5	10	733013	1	4	4	1	0	813	1	4	0	128	58	0	0	100
fixed	4	5	11	734516	5	2	2	1	0	717	1	4	0	112	59	0	0	100
fixed	4	5	12	735874	4	3	3	1	0	956	1	4	0	120	60	0	0	100
fixed	4	6	1	737790	4	1	1	1	0	650	1	4	0	104	61	0	0	100
fixed	4	6	2	739079	1	2	2	1	0	876	1	4	0	112	62	0	0	100
fixed	4	6	3	740477	6	4	4	1	0	720	1	4	0	128	63	0	0	100
fixed	4	6	4	741802	2	1	1	1	0	2000	1	4	0	104	64	0	0	100
fixed	4	6	5	744579	5	3	3	1	0	747	1	4	0	120	65	0	0	100
fixed	4	6	6	746176	6	4	4	1	0	735	1	4	0	128	66	0	0	100
fixed	4	6	7	747826	3	1	1	1	0	738	1	4	0	104	67	0	0	100
fixed	4	6	8	749360	2	3	3	1	0	864	1	4	0	120	68	0	0	100
fixed	4	6	9	751123	3	2	2	1	0	525	1	4	0	112	69	0	0	100
fixed	4	6	10	752187	1	4	4	1	0	1113	1	4	0	128	70	0	0	100
fixed	4	6	11	754181	5	2	2	1	0	724	1	4	0	112	71	0	0	100
fixed	4	6	12	755704	4	3	3	1	0	892	1	4	0	120	72	0	0	100
fixed	4	7	1	757622	4	1	1	1	0	770	1	4	0	104	73	0	0	100
fixed	4	7	2	758890	1	2	2	1	0	1140	1	4	0	112	74	0	0	100
fixed	4	7	3	761008	6	4	4	1	0	771	1	4	0	128	75	0	0	100
fixed	4	7	4	762530	2	1	1	1	0	819	1	4	0	104	76	0	0	100
fixed	4	7	5	764005	5	3	3	1	0	1092	1	4	0	120	77	0	0	100
fixed	4	7	6	765742	6	4	4	1	0	666	1	4	0	128	78	0	0	100
fixed	4	7	7	767346	3	1	1	1	0	758	1	4	0	104	79	0	0	100
fixed	4	7	8	769047	2	3	3	1	0	727	1	4	0	120	80	0	0	100
fixed	4	7	9	770422	3	2	2	1	0	684	1	4	0	112	81	0	0	100
fixed	4	7	10	772097	1	4	4	1	0	1021	1	4	0	128	82	0	0	100
fixed	4	7	11	773803	5	2	2	1	0	741	1	4	0	112	83	0	0	100
fixed	4	7	12	774981	4	3	3	1	0	1051	1	4	0	120	84	0	0	100
fixed	4	8	1	777237	4	1	1	1	0	859	1	4	0	104	85	0	0	100
fixed	4	8	2	779021	1	2	2	1	0	1264	1	4	0	112	86	0	0	100
fixed	4	8	3	780996	6	4	4	1	0	788	1	4	0	128	87	0	0	100
fixed	4	8	4	782639	2	1	1	1	0	1263	1	4	0	104	88	0	0	100
fixed	4	8	5	784798	5	3	3	1	0	780	1	4	0	120	89	0	0	100
fixed	4	8	6	785967	6	4	4	1	0	754	1	4	0	128	90	0	0	100
fixed	4	8	7	787138	3	1	1	1	0	656	1	4	0	104	91	0	0	100
fixed	4	8	8	788720	2	3	3	1	0	845	1	4	0	120	92	0	0	100
fixed	4	8	9	789965	3	2	2	1	0	640	1	4	0	112	93	0	0	100
fixed	4	8	10	791121	1	4	4	1	0	647	1	4	0	128	94	0	0	100
fixed	4	8	11	792331	5	2	2	1	0	980	1	4	0	112	95	0	0	100
fixed	4	8	12	794333	4	3	3	1	0	1055	1	4	0	120	96	0	0	100
fixed	4	9	1	796601	4	1	1	1	0	839	1	4	0	104	97	0	0	100
fixed	4	9	2	797788	1	2	2	1	0	1325	1	4	0	112	98	0	0	100
fixed	4	9	3	799464	6	4	4	1	0	638	1	4	0	128	99	0	0	100
fixed	4	9	4	800785	2	1	1	1	0	982	1	4	0	104	100	0	0	100
fixed	4	9	5	802447	5	3	3	1	0	800	1	4	0	120	101	0	0	100
fixed	4	9	6	803857	6	4	4	1	0	708	1	4	0	128	102	0	0	100
fixed	4	9	7	805454	3	1	1	1	0	816	1	4	0	104	103	0	0	100
fixed	4	9	8	806758	2	3	3	1	0	993	1	4	0	120	104	0	0	100
fixed	4	9	9	808427	3	2	2	1	0	723	1	4	0	112	105	0	0	100
fixed	4	9	10	809622	1	4	4	1	0	704	1	4	0	128	106	0	0	100
fixed	4	9	11	811057	5	2	2	1	0	923	1	4	0	112	107	0	0	100
fixed	4	9	12	812633	4	3	3	1	0	905	1	4	0	120	108	0	0	100
fixed	4	10	1	814762	4	1	1	1	0	662	1	4	0	104	109	0	0	100
fixed	4	10	2	816447	1	2	2	1	0	1135	1	4	0	112	110	0	0	100
fixed	4	10	3	818067	6	4	4	1	0	699	1	4	0	128	111	0	0	100
fixed	4	10	4	819312	2	1	1	1	0	741	1	4	0	104	112	0	0	100
fixed	4	10	5	820529	5	3	3	1	0	714	1	4	0	120	113	0	0	100
fixed	4	10	6	821671	6	4	4	1	0	842	1	4	0	128	114	0	0	100
fixed	4	10	7	823131	3	1	1	1	0	571	1	4	0	104	115	0	0	100
fixed	4	10	8	824356	2	3	3	1	0	808	1	4	0	120	116	0	0	100
fixed	4	10	9	825959	3	2	2	1	0	692	1	4	0	112	117	0	0	100
fixed	4	10	10	827341	1	4	4	1	0	777	1	4	0	128	118	0	0	100
fixed	4	10	11	829119	5	2	2	1	0	710	1	4	0	112	119	0	0	100
fixed	4	10	12	830591	4	3	3	1	0	736	1	4	0	120	120	0	0	100
fixed	5	1	1	832387	4	1	1	1	0	819	1	4	0	136	1	0	0	100
fixed	5	1	2	833886	1	2	2	1	0	940	1	4	0	144	2	0	0	100
fixed	5	1	3	835620	6	4	4	1	0	579	1	4	0	160	3	0	0	100
fixed	5	1	4	836582	2	1	1	1	0	730	1	4	0	136	4	0	0	100
fixed	5	1	5	837627	5	3	3	1	0	934	1	4	0	152	5	0	0	100
fixed	5	1	6	839444	6	4	4	1	0	641	1	4	0	160	6	0	0	100
fixed	5	1	7	840550	3	1	1	1	0	690	1	4	0	136	7	0	0	100
fixed	5	1	8	841570	2	3	3	1	0	1055	1	4	0	152	8	0	0	100
fixed	5	1	9	843443	3	2	2	1	0	720	1	4	0	144	9	0	0	100
fixed	5	1	10	844903	1	4	4	1	0	657	1	4	0	160	10	0	0	100
fixed	5	1	11	846217	5	2	2	1	0	786	1	4	0	144	11	0	0	100
fixed	5	1	12	848023	4	3	3	1	0	710	1	4	0	152	12	0	0	100
fixed	5	2	1	849698	4	1	1	1	0	702	1	4	0	136	13	0	0	100
fixed	5	2	2	850752	1	2	2	1	0	1682	1	4	0	144	14	0	0	100
fixed	5	2	3	853271	6	4	4	1	0	599	1	4	0	160	15	0	0	100
fixed	5	2	4	854468	2	1	1	1	0	733	1	4	0	136	16	0	0	100
fixed	5	2	5	855805	5	3	3	1	0	1068	1	4	0	152	17	0	0	100
fixed	5	2	6	857448	6	4	4	1	0	734	1	4	0	160	18	0	0	100
fixed	5	2	7	858914	3	1	1	1	0	792	1	4	0	136	19	0	0	100
fixed	5	2	8	860542	2	3	3	1	0	1083	1	4	0	152	20	0	0	100
fixed	5	2	9	862532	3	2	2	1	0	647	1	4	0	144	21	0	0	100
fixed	5	2	10	864059	1	4	4	1	0	926	1	4	0	160	22	0	0	100
fixed	5	2	11	865464	5	2	2	1	0	723	1	4	0	144	23	0	0	100
fixed	5	2	12	866758	4	3	3	1	0	860	1	4	0	152	24	0	0	100
fixed	5	3	1	868862	4	1	1	1	0	795	1	4	0	136	25	0	0	100
fixed	5	3	2	870318	1	2	2	1	0	1541	1	4	0	144	26	0	0	100
fixed	5	3	3	872481	6	4	4	1	0	674	1	4	0	160	27	0	0	100
fixed	5	3	4	873637	2	1	1	1	0	945	1	4	0	136	28	0	0	100
fixed	5	3	5	875122	5	3	3	1	0	866	1	4	0	152	29	0	0	100
fixed	5	3	6	876828	6	4	4	1	0	713	1	4	0	160	30	0	0	100
fixed	5	3	7	878166	3	1	1	1	0	768	1	4	0	136	31	0	0	100
fixed	5	3	8	879439	2	3	3	1	0	995	1	4	0	152	32	0	0	100
fixed	5	3	9	880944	3	2	2	1	0	675	1	4	0	144	33	0	0	100
fixed	5	3	10	882634	1	4	4	1	0	820	1	4	0	160	34	0	0	100
fixed	5	3	11	884400	5	2	2	1	0	1072	1	4	0	144	35	0	0	100
fixed	5	3	12	886225	4	3	3	1	0	579	1	4	0	152	36	0	0	100
fixed	5	4	1	887608	4	1	1	1	0	593	1	4	0	136	37	0	0	100
fixed	5	4	2	888908	1	2	2	1	0	1354	1	4	0	144	38	0	0	100
fixed	5	4	3	891037	6	4	4	1	0	624	1	4	0	160	39	0	0	100
fixed	5	4	4	892493	2	1	1	1	0	762	1	4	0	136	40	0	0	100
fixed	5	4	5	894255	5	3	3	1	0	807	1	4	0	152	41	0	0	100
fixed	5	4	6	895361	6	4	4	1	0	688	1	4	0	160	42	0	0	100
fixed	5	4	7	896712	3	1	1	1	0	1431	1	4	0	136	43	0	0	100
fixed	5	4	8	898971	2	3	3	1	0	1047	1	4	0	152	44	0	0	100
fixed	5	4	9	900970	3	2	2	1	0	731	1	4	0	144	45	0	0	100
fixed	5	4	10	902278	1	4	4	1	0	891	1	4	0	160	46	0	0	100
fixed	5	4	11	903931	5	2	2	1	0	965	1	4	0	144	47	0	0	100
fixed	5	4	12	905367	4	3	3	1	0	592	1	4	0	152	48	0	0	100
fixed	5	5	1	906755	4	1	1	1	0	790	1	4	0	136	49	0	0	100
fixed	5	5	2	908481	1	2	2	1	0	1709	1	4	0	144	50	0	0	100
fixed	5	5	3	910814	6	4	4	1	0	642	1	4	0	160	51	0	0	100
fixed	5	5	4	912433	2	1	1	1	0	901	1	4	0	136	52	0	0	100
fixed	5	5	5	913922	5	3	3	1	0	974	1	4	0	152	53	0	0	100
fixed	5	5	6	915408	6	4	4	1	0	719	1	4	0	160	54	0	0	100
fixed	5	5	7	916545	3	1	1	1	0	695	1	4	0	136	55	0	0	100
fixed	5	5	8	918099	2	3	3	2	0	2189	2	4	0	152	56	0	0	100
fixed	5	5	9	920595	3	2	2	1	0	548	1	4	0	144	57	0	0	100
fixed	5	5	10	921568	1	4	4	1	0	875	1	4	0	160	58	0	0	100
fixed	5	5	11	923114	5	2	2	1	0	1257	1	4	0	144	59	0	0	100
fixed	5	5	12	925163	4	3	3	1	0	754	1	4	0	152	60	0	0	100
fixed	5	6	1	926603	4	1	1	1	0	701	1	4	0	136	61	0	0	100
fixed	5	6	2	927742	1	2	2	1	0	1213	1	4	0	144	62	0	0	100
fixed	5	6	3	929871	6	4	4	1	0	907	1	4	0	160	63	0	0	100
fixed	5	6	4	931566	2	1	1	1	0	707	1	4	0	136	64	0	0	100
fixed	5	6	5	932901	5	3	3	1	0	818	1	4	0	152	65	0	0	100
fixed	5	6	6	934691	6	4	4	1	0	598	1	4	0	160	66	0	0	100
fixed	5	6	7	936111	3	1	1	1	0	754	1	4	0	136	67	0	0	100
fixed	5	6	8	937461	2	3	0	0	2	0	3	4	0	152	67	0	1	99
fixed	5	6	9	940765	3	2	2	1	0	670	1	4	0	144	68	0	1	99
fixed	5	6	10	942067	1	4	4	1	0	846	1	4	0	160	69	0	1	99
fixed	5	6	11	943654	5	2	2	1	0	747	1	4	0	144	70	0	1	99
fixed	5	6	12	944858	4	3	3	1	0	1440	1	4	0	152	71	0	1	99
fixed	5	7	1	947588	4	1	1	1	0	940	1	4	0	136	72	0	1	99
fixed	5	7	2	949223	1	2	2	1	0	919	1	4	0	144	73	0	1	99
fixed	5	7	3	950846	6	4	4	1	0	690	1	4	0	160	74	0	1	99
fixed	5	7	4	952318	2	1	1	1	0	1316	1	4	0	136	75	0	1	99
fixed	5	7	5	954199	5	3	3	1	0	765	1	4	0	152	76	0	1	99
fixed	5	7	6	955887	6	4	4	1	0	669	1	4	0	160	77	0	1	99
fixed	5	7	7	957559	3	1	1	1	0	886	1	4	0	136	78	0	1	99
fixed	5	7	8	959283	2	3	3	1	0	1069	1	4	0	152	79	0	1	99
fixed	5	7	9	960748	3	2	2	1	0	711	1	4	0	144	80	0	1	99
fixed	5	7	10	961779	1	4	4	1	0	859	1	4	0	160	81	0	1	99
fixed	5	7	11	963375	5	2	2	1	0	903	1	4	0	144	82	0	1	99
fixed	5	7	12	964676	4	3	3	1	0	729	1	4	0	152	83	0	1	99
fixed	5	8	1	966251	4	1	1	1	0	766	1	4	0	136	84	0	1	99
fixed	5	8	2	967722	1	2	2	1	0	959	1	4	0	144	85	0	1	99
fixed	5	8	3	969578	6	4	4	1	0	769	1	4	0	160	86	0	1	99
fixed	5	8	4	970968	2	1	1	1	0	1094	1	4	0	136	87	0	1	99
fixed	5	8	5	973076	5	3	3	1	0	989	1	4	0	152	88	0	1	99
fixed	5	8	6	974961	6	4	4	1	0	1053	1	4	0	160	89	0	1	99
fixed	5	8	7	976455	3	1	1	1	0	1150	1	4	0	136	90	0	1	99
fixed	5	8	8	978436	2	3	3	1	0	1378	1	4	0	152	91	0	1	99
fixed	5	8	9	980273	3	2	2	1	0	444	1	4	0	144	92	0	1	99
fixed	5	8	10	981556	1	4	4	1	0	1077	1	4	0	160	93	0	1	99
fixed	5	8	11	983670	5	2	2	1	0	876	1	4	0	144	94	0	1	99
fixed	5	8	12	985073	4	3	3	1	0	393	1	4	0	152	95	0	1	99
fixed	5	9	1	986233	4	1	1	1	0	743	1	4	0	136	96	0	1	99
fixed	5	9	2	987499	1	2	2	1	0	986	1	4	0	144	97	0	1	99
fixed	5	9	3	989238	6	4	4	1	0	784	1	4	0	160	98	0	1	99
fixed	5	9	4	990968	2	1	1	1	0	1479	1	4	0	136	99	0	1	99
fixed	5	9	5	993199	5	3	3	1	0	912	1	4	0	152	100	0	1	99
fixed	5	9	6	994416	6	4	4	1	0	1149	1	4	0	160	101	0	1	99
fixed	5	9	7	996476	3	1	1	1	0	941	1	4	0	136	102	0	1	99
fixed	5	9	8	998287	2	3	3	1	0	1577	1	4	0	152	103	0	1	99
fixed	5	9	9	1000515	3	2	2	1	0	299	1	4	0	144	104	0	1	99
fixed	5	9	10	1001809	1	4	4	1	0	764	1	4	0	160	105	0	1	99
fixed	5	9	11	1003268	5	2	2	1	0	1670	1	4	0	144	106	0	1	99
fixed	5	9	12	1005682	4	3	3	1	0	1104	1	4	0	152	107	0	1	99
fixed	5	10	1	1007435	4	1	1	1	0	2413	1	4	0	136	108	0	1	99
fixed	5	10	2	1010821	1	2	2	1	0	790	1	4	0	144	109	0	1	99
fixed	5	10	3	1012066	6	4	4	1	0	881	1	4	0	160	110	0	1	99
fixed	5	10	4	1013540	2	1	1	1	0	715	1	4	0	136	111	0	1	99
fixed	5	10	5	1014704	5	3	3	1	0	865	1	4	0	152	112	0	1	99
fixed	5	10	6	1016503	6	4	4	1	0	654	1	4	0	160	113	0	1	99
fixed	5	10	7	1017977	3	1	1	1	0	799	1	4	0	136	114	0	1	99
fixed	5	10	8	1019191	2	3	3	1	0	868	1	4	0	152	115	0	1	99
fixed	5	10	9	1020443	3	2	2	1	0	415	1	4	0	144	116	0	1	99
fixed	5	10	10	1021412	1	4	4	1	0	654	1	4	0	160	117	0	1	99
fixed	5	10	11	1023094	5	2	2	1	0	942	1	4	0	144	118	0	1	99
fixed	5	10	12	1024888	4	3	3	1	0	730	1	4	0	152	119	0	1	99
random	6	1	1	1125372	6	1	1	1	0	962	1	4	0	168	1	0	0	100
random	6	1	2	1126685	4	4	4	1	0	803	1	4	0	192	2	0	0	100
random	6	1	3	1128244	2	2	2	1	0	873	1	4	0	176	3	0	0	100
random	6	1	4	1129945	3	3	3	1	0	545	1	4	0	184	4	0	0	100
random	6	1	5	1131095	5	2	2	1	0	1120	1	4	0	176	5	0	0	100
random	6	1	6	1132679	1	4	4	1	0	597	1	4	0	192	6	0	0	100
random	6	1	7	1133580	6	1	1	1	0	654	1	4	0	168	7	0	0	100
random	6	1	8	1135235	2	3	3	1	0	872	1	4	0	184	8	0	0	100
random	6	1	9	1136824	4	2	2	1	0	549	1	4	0	176	9	0	0	100
random	6	1	10	1138035	1	1	1	1	0	754	1	4	0	168	10	0	0	100
random	6	1	11	1139738	5	4	4	1	0	594	1	4	0	192	11	0	0	100
random	6	1	12	1141326	3	3	3	1	0	879	1	4	0	184	12	0	0	100
random	6	1	13	1143201	5	2	2	1	0	1143	1	4	0	176	13	0	0	100
random	6	1	14	1145188	1	4	4	1	0	643	1	4	0	192	14	0	0	100
random	6	1	15	1146685	3	1	1	1	0	716	1	4	0	168	15	0	0	100
random	6	1	16	1147885	4	3	3	1	0	1009	1	4	0	184	16	0	0	100
random	6	1	17	1149759	6	4	4	1	0	593	1	4	0	192	17	0	0	100
random	6	1	18	1151107	2	1	1	1	0	640	1	4	0	168	18	0	0	100
random	6	1	19	1152333	5	3	3	1	0	788	1	4	0	184	19	0	0	100
random	6	1	20	1153464	2	2	2	1	0	892	1	4	0	176	20	0	0	100
random	6	1	21	1155379	3	3	3	2	0	1323	2	4	0	184	21	0	0	100
random	6	1	22	1157069	6	1	1	2	0	1996	2	4	0	168	22	0	0	100
random	6	1	23	1160032	4	2	2	1	0	862	1	4	0	176	23	0	0	100
random	6	1	24	1161295	1	4	4	1	0	640	1	4	0	192	24	0	0	100
random	6	1	25	1162666	4	3	3	1	0	982	1	4	0	184	25	0	0	100
random	6	1	26	1164503	2	1	1	1	0	761	1	4	0	168	26	0	0	100
random	6	1	27	1165873	5	2	2	1	0	727	1	4	0	176	27	0	0	100
random	6	1	28	1166966	6	4	4	1	0	648	1	4	0	192	28	0	0	100
random	6	1	29	1168180	1	3	3	1	0	1013	1	4	0	184	29	0	0	100
random	6	1	30	1169859	5	2	2	1	0	598	1	4	0	176	30	0	0	100
random	6	1	31	1171393	2	1	1	1	0	685	1	4	0	168	31	0	0	100
random	6	1	32	1172442	3	3	3	1	0	1088	1	4	0	184	32	0	0	100
random	6	1	33	1174148	6	4	4	1	0	688	1	4	0	192	33	0	0	100
random	6	1	34	1175763	4	2	2	1	0	996	1	4	0	176	34	0	0	100
random	6	1	35	1177169	3	4	4	1	0	744	1	4	0	192	35	0	0	100
random	6	1	36	1178834	1	1	1	1	0	610	1	4	0	168	36	0	0	100
random	6	1	37	1180075	3	4	4	1	0	1277	1	4	0	192	37	0	0	100
random	6	1	38	1181655	5	3	3	1	0	899	1	4	0	184	38	0	0	100
random	6	1	39	1183357	6	1	1	1	0	858	1	4	0	168	39	0	0	100
random	6	1	40	1185242	1	2	2	1	0	706	1	4	0	176	40	0	0	100
random	6	1	41	1186729	2	3	3	1	0	691	1	4	0	184	41	0	0	100
random	6	1	42	1188353	4	4	4	1	0	807	1	4	0	192	42	0	0	100
random	6	1	43	1190170	1	2	2	1	0	882	1	4	0	176	43	0	0	100
random	6	1	44	1191610	6	3	3	1	0	813	1	4	0	184	44	0	0	100
random	6	1	45	1193081	3	1	1	1	0	1038	1	4	0	168	45	0	0	100
random	6	1	46	1194846	4	4	4	1	0	595	1	4	0	192	46	0	0	100
random	6	1	47	1196401	2	2	2	1	0	826	1	4	0	176	47	0	0	100
random	6	1	48	1197906	5	1	1	1	0	882	1	4	0	168	48	0	0	100
random	6	1	49	1200024	2	3	3	1	0	1168	1	4	0	184	49	0	0	100
random	6	1	50	1202127	3	1	1	1	0	807	1	4	0	168	50	0	0	100
random	6	1	51	1203930	1	4	4	1	0	1059	1	4	0	192	51	0	0	100
random	6	1	52	1205507	5	3	3	1	0	936	1	4	0	184	52	0	0	100
random	6	1	53	1206874	3	2	2	1	0	614	1	4	0	176	53	0	0	100
random	6	1	54	1208166	6	4	4	1	0	1015	1	4	0	192	54	0	0	100
random	6	1	55	1210034	4	2	2	1	0	856	1	4	0	176	55	0	0	100
random	6	1	56	1211434	1	1	1	1	0	773	1	4	0	168	56	0	0	100
random	6	1	57	1212786	5	4	4	1	0	683	1	4	0	192	57	0	0	100
random	6	1	58	1214433	2	1	1	1	0	910	1	4	0	168	58	0	0	100
random	6	1	59	1215660	6	2	2	1	0	978	1	4	0	176	59	0	0	100
random	6	1	60	1217301	4	3	3	1	0	772	1	4	0	184	60	0	0	100
random	6	1	61	1218921	1	2	2	1	0	1032	1	4	0	176	61	0	0	100
random	6	1	62	1220444	6	4	4	1	0	759	1	4	0	192	62	0	0	100
random	6	1	63	1221563	4	1	1	1	0	736	1	4	0	168	63	0	0	100
random	6	1	64	1222816	2	2	2	1	0	795	1	4	0	176	64	0	0	100
random	6	1	65	1224413	4	3	3	1	0	624	1	4	0	184	65	0	0	100
random	6	1	66	1225885	3	1	1	1	0	665	1	4	0	168	66	0	0	100
random	6	1	67	1227450	1	3	3	1	0	911	1	4	0	184	67	0	0	100
random	6	1	68	1228865	5	4	4	1	0	851	1	4	0	192	68	0	0	100
random	6	1	69	1230226	2	2	2	1	0	921	1	4	0	176	69	0	0	100
random	6	1	70	1231611	3	1	1	1	0	823	1	4	0	168	70	0	0	100
random	6	1	71	1232893	5	4	4	1	0	640	1	4	0	192	71	0	0	100
random	6	1	72	1234158	6	3	3	1	0	858	1	4	0	184	72	0	0	100
random	6	1	73	1235979	2	1	1	1	0	797	1	4	0	168	73	0	0	100
random	6	1	74	1237713	5	3	3	1	0	860	1	4	0	184	74	0	0	100
random	6	1	75	1239546	1	4	4	1	0	582	1	4	0	192	75	0	0	100
random	6	1	76	1241061	6	2	0	1	2	0	3	4	0	176	75	0	1	99
random	6	1	77	1244025	2	1	1	1	0	1265	1	4	0	168	76	0	1	99
random	6	1	78	1245780	4	4	4	1	0	719	1	4	0	192	77	0	1	99
random	6	1	79	1247015	3	2	2	1	0	922	1	4	0	176	78	0	1	99
random	6	1	80	1248418	4	3	3	1	0	727	1	4	0	184	79	0	1	99
random	6	1	81	1249942	1	4	4	1	0	1062	1	4	0	192	80	0	1	99
random	6	1	82	1251456	5	1	1	1	0	742	1	4	0	168	81	0	1	99
random	6	1	83	1253145	3	2	2	1	0	718	1	4	0	176	82	0	1	99
random	6	1	84	1254682	6	3	3	1	0	837	1	4	0	184	83	0	1	99
random	6	1	85	1256413	3	2	2	1	0	1220	1	4	0	176	84	0	1	99
random	6	1	86	1258658	1	3	3	1	0	893	1	4	0	184	85	0	1	99
random	6	1	87	1260448	4	4	4	1	0	561	1	4	0	192	86	0	1	99
random	6	1	88	1261539	2	1	1	1	0	523	1	4	0	168	87	0	1	99
random	6	1	89	1262764	6	4	4	1	0	1207	1	4	0	192	88	0	1	99
random	6	1	90	1264499	3	3	3	1	0	917	1	4	0	184	89	0	1	99
random	6	1	91	1266025	5	4	4	1	0	933	1	4	0	192	90	0	1	99
random	6	1	92	1267453	1	2	2	1	0	1129	1	4	0	176	91	0	1	99
random	6	1	93	1268899	5	1	1	1	0	931	1	4	0	168	92	0	1	99
random	6	1	94	1270558	4	3	3	1	0	877	1	4	0	184	93	0	1	99
random	6	1	95	1272399	6	1	1	1	0	919	1	4	0	168	94	0	1	99
random	6	1	96	1273714	2	2	2	1	0	879	1	4	0	176	95	0	1	99
random	6	1	97	1275460	4	3	3	1	0	853	1	4	0	184	96	0	1	99
random	6	1	98	1276887	3	2	2	1	0	593	1	4	0	176	97	0	1	99
random	6	1	99	1278313	6	3	3	1	0	765	1	4	0	184	98	0	1	99
random	6	1	100	1279564	1	4	4	1	0	744	1	4	0	192	99	0	1	99
random	6	1	101	1281221	4	1	1	1	0	641	1	4	0	168	100	0	1	99
random	6	1	102	1282719	5	2	2	1	0	874	1	4	0	176	101	0	1	99
random	6	1	103	1283975	2	4	4	1	0	1005	1	4	0	192	102	0	1	99
random	6	1	104	1285702	3	1	1	1	0	803	1	4	0	168	103	0	1	99
random	6	1	105	1287360	1	3	3	1	0	1013	1	4	0	184	104	0	1	99
random	6	1	106	1289283	2	2	2	1	0	1244	1	4	0	176	105	0	1	99
random	6	1	107	1291337	5	4	4	1	0	717	1	4	0	192	106	0	1	99
random	6	1	108	1292735	6	1	1	1	0	841	1	4	0	168	107	0	1	99
random	6	1	109	1294590	5	4	4	1	0	1867	1	4	0	192	108	0	1	99
random	6	1	110	1296973	6	3	3	1	0	830	1	4	0	184	109	0	1	99
random	6	1	111	1298286	2	2	2	1	0	646	1	4	0	176	110	0	1	99
random	6	1	112	1299397	3	1	1	1	0	920	1	4	0	168	111	0	1	99
random	6	1	113	1301315	1	2	2	1	0	966	1	4	0	176	112	0	1	99
random	6	1	114	1302887	2	3	3	1	0	892	1	4	0	184	113	0	1	99
random	6	1	115	1304620	3	1	1	1	0	698	1	4	0	168	114	0	1	99
random	6	1	116	1305811	4	4	4	1	0	712	1	4	0	192	115	0	1	99
random	6	1	117	1307495	6	1	1	1	0	824	1	4	0	168	116	0	1	99
random	6	1	118	1309353	5	3	3	1	0	914	1	4	0	184	117	0	1	99
random	6	1	119	1310986	1	4	4	1	0	813	1	4	0	192	118	0	1	99
random	6	1	120	1312221	4	2	2	1	0	696	1	4	0	176	119	0	1	99
fixed	7	1	1	1314018	4	1	1	1	0	812	1	4	0	200	1	0	0	100
fixed	7	1	2	1315667	1	2	2	1	0	758	1	4	0	208	2	0	0	100
fixed	7	1	3	1317329	6	4	4	1	0	904	1	4	0	224	3	0	0	100
fixed	7	1	4	1318749	2	1	1	1	0	723	1	4	0	200	4	0	0	100
fixed	7	1	5	1320105	5	3	3	1	0	810	1	4	0	216	5	0	0	100
fixed	7	1	6	1321538	6	4	4	1	0	629	1	4	0	224	6	0	0	100
fixed	7	1	7	1322877	3	1	1	1	0	629	1	4	0	200	7	0	0	100
fixed	7	1	8	1324415	2	3	3	1	0	1276	1	4	0	216	8	0	0	100
fixed	7	1	9	1326593	3	2	2	1	0	760	1	4	0	208	9	0	0	100
fixed	7	1	10	1328097	1	4	4	1	0	864	1	4	0	224	10	0	0	100
fixed	7	1	11	1329314	5	2	2	1	0	852	1	4	0	208	11	0	0	100
fixed	7	1	12	1330735	4	3	3	1	0	696	1	4	0	216	12	0	0	100
fixed	7	2	1	1332483	4	1	1	1	0	750	1	4	0	200	1	0	0	8
fixed	7	2	2	1333757	1	2	2	1	0	1568	1	4	0	208	2	0	0	14
fixed	7	2	3	1336192	6	4	4	1	0	769	1	4	0	224	3	0	0	20
fixed	7	2	4	1337648	2	1	1	1	0	1427	1	4	0	200	4	0	0	25
fixed	7	2	5	1339620	5	3	3	1	0	824	1	4	0	216	5	0	0	29
fixed	7	2	6	1340972	6	4	4	1	0	886	1	4	0	224	6	0	0	33
fixed	7	2	7	1342883	3	1	1	1	0	854	1	4	0	200	7	0	0	37
fixed	7	2	8	1344399	2	3	3	1	0	1413	1	4	0	216	8	0	0	40
fixed	7	2	9	1346460	3	2	2	1	0	494	1	4	0	208	9	0	0	43
fixed	7	2	10	1347360	1	4	4	1	0	1008	1	4	0	224	10	0	0	45
fixed	7	2	11	1349132	5	2	2	1	0	781	1	4	0	208	11	0	0	48
fixed	7	2	12	1350584	4	3	3	1	0	1047	1	4	0	216	12	0	0	50
fixed	7	3	1	1352665	4	1	1	1	0	975	1	4	0	200	1	0	0	4
fixed	7	3	2	1354070	1	2	2	1	0	1707	1	4	0	208	2	0	0	8
fixed	7	3	3	1356677	6	4	4	1	0	1301	1	4	0	224	3	0	0	11
fixed	7	3	4	1358290	2	1	1	1	0	697	1	4	0	200	4	0	0	14
fixed	7	3	5	1359420	5	3	3	1	0	913	1	4	0	216	5	0	0	17
fixed	7	3	6	1361163	6	4	4	1	0	839	1	4	0	224	6	0	0	20
fixed	7	3	7	1362879	3	1	1	1	0	639	1	4	0	200	7	0	0	23
fixed	7	3	8	1364433	2	3	3	1	0	1061	1	4	0	216	8	0	0	25
fixed	7	3	9	1366521	3	2	2	1	0	756	1	4	0	208	9	0	0	27
fixed	7	3	10	1368120	1	4	4	1	0	800	1	4	0	224	10	0	0	29
fixed	7	3	11	1369785	5	2	2	1	0	906	1	4	0	208	11	0	0	31
fixed	7	3	12	1371228	4	3	3	1	0	493	1	4	0	216	12	0	0	33
fixed	7	4	1	1372698	4	1	1	1	0	766	1	4	0	200	1	0	0	3
fixed	7	4	2	1374114	1	2	2	1	0	987	1	4	0	208	2	0	0	5
fixed	7	4	3	1375722	6	4	4	1	0	662	1	4	0	224	3	0	0	8
fixed	7	4	4	1376772	2	1	1	1	0	658	1	4	0	200	4	0	0	10
fixed	7	4	5	1378059	5	3	3	1	0	739	1	4	0	216	5	0	0	12
fixed	7	4	6	1379671	6	4	4	1	0	735	1	4	0	224	6	0	0	14
fixed	7	4	7	1380725	3	1	1	1	0	915	1	4	0	200	7	0	0	16
fixed	7	4	8	1382234	2	3	3	1	0	1051	1	4	0	216	8	0	0	18
fixed	7	4	9	1384085	3	2	2	1	0	661	1	4	0	208	9	0	0	20
fixed	7	4	10	1385690	1	4	4	1	0	697	1	4	0	224	10	0	0	22
fixed	7	4	11	1387098	5	2	2	1	0	852	1	4	0	208	11	0	0	23
fixed	7	4	12	1388857	4	3	3	1	0	482	1	4	0	216	12	0	0	25
fixed	7	5	1	1390107	4	1	1	1	0	933	1	4	0	200	1	0	0	2
fixed	7	5	2	1391363	1	2	2	2	0	1768	2	4	0	208	2	0	0	4
fixed	7	5	3	1393539	6	4	4	1	0	548	1	4	0	224	3	0	0	6
fixed	7	5	4	1394459	2	1	1	1	0	821	1	4	0	200	4	0	0	8
fixed	7	5	5	1396259	5	3	3	1	0	777	1	4	0	216	5	0	0	9
fixed	7	5	6	1397658	6	4	4	1	0	917	1	4	0	224	6	0	0	11
fixed	7	5	7	1399032	3	1	1	1	0	771	1	4	0	200	7	0	0	13
fixed	7	5	8	1400168	2	3	3	1	0	979	1	4	0	216	8	0	0	14
fixed	7	5	9	1402072	3	2	2	1	0	914	1	4	0	208	9	0	0	16
fixed	7	5	10	1403841	1	4	4	1	0	1015	1	4	0	224	10	0	0	17
fixed	7	5	11	1405444	5	2	2	1	0	1595	1	4	0	208	11	0	0	19
fixed	7	5	12	1407422	4	3	3	1	0	752	1	4	0	216	12	0	0	20
fixed	7	6	1	1408853	4	1	1	1	0	1955	1	4	0	200	1	0	0	2
fixed	7	6	2	1411490	1	2	2	1	0	1916	1	4	0	208	2	0	0	3
fixed	7	6	3	1413973	6	4	4	1	0	1450	1	4	0	224	3	0	0	5
fixed	7	6	4	1416341	2	1	1	1	0	1094	1	4	0	200	4	0	0	6
fixed	7	6	5	1418098	5	3	3	1	0	1684	1	4	0	216	5	0	0	8
fixed	7	6	6	1420777	6	4	4	2	0	1946	2	4	0	224	6	0	0	9
fixed	7	6	7	1423598	3	1	1	1	0	627	1	4	0	200	7	0	0	10
fixed	7	6	8	1424949	2	3	3	2	0	1962	2	4	0	216	8	0	0	12
fixed	7	6	9	1427692	3	2	2	1	0	622	1	4	0	208	9	0	0	13
fixed	7	6	10	1429266	1	4	4	1	0	787	1	4	0	224	10	0	0	14
fixed	7	6	11	1430611	5	2	2	1	0	890	1	4	0	208	11	0	0	15
fixed	7	6	12	1432296	4	3	3	1	0	650	1	4	0	216	12	0	0	17
fixed	7	7	1	1433898	4	1	1	1	0	782	1	4	0	200	1	0	0	1
fixed	7	7	2	1435300	1	2	2	1	0	835	1	4	0	208	2	0	0	3
fixed	7	7	3	1437083	6	4	4	1	0	928	1	4	0	224	3	0	0	4
fixed	7	7	4	1439031	2	1	1	1	0	653	1	4	0	200	4	0	0	5
fixed	7	7	5	1440624	5	3	3	1	0	898	1	4	0	216	5	0	0	6
fixed	7	7	6	1442429	6	4	4	1	0	869	1	4	0	224	6	0	0	8
fixed	7	7	7	1444131	3	1	1	1	0	861	1	4	0	200	7	0	0	9
fixed	7	7	8	1445478	2	3	3	1	0	1204	1	4	0	216	8	0	0	10
fixed	7	7	9	1447678	3	2	2	1	0	719	1	4	0	208	9	0	0	11
fixed	7	7	10	1449062	1	4	4	1	0	1188	1	4	0	224	10	0	0	12
fixed	7	7	11	1450698	5	2	2	1	0	1023	1	4	0	208	11	0	0	13
fixed	7	7	12	1452655	4	3	3	1	0	268	1	4	0	216	12	0	0	14
fixed	7	8	1	1454114	4	1	1	1	0	710	1	4	0	200	1	0	0	1
fixed	7	8	2	1455505	1	2	2	1	0	1123	1	4	0	208	2	0	0	2
fixed	7	8	3	1457446	6	4	4	1	0	641	1	4	0	224	3	0	0	3
fixed	7	8	4	1458496	2	1	1	1	0	757	1	4	0	200	4	0	0	5
fixed	7	8	5	1459839	5	3	3	1	0	772	1	4	0	216	5	0	0	6
fixed	7	8	6	1461180	6	4	4	1	0	939	1	4	0	224	6	0	0	7
fixed	7	8	7	1462871	3	1	1	1	0	963	1	4	0	200	7	0	0	8
fixed	7	8	8	1464798	2	3	3	1	0	1226	1	4	0	216	8	0	0	9
fixed	7	8	9	1466921	3	2	2	1	0	648	1	4	0	208	9	0	0	10
fixed	7	8	10	1468590	1	4	4	1	0	1185	1	4	0	224	10	0	0	11
fixed	7	8	11	1470344	5	2	2	1	0	2415	1	4	0	208	11	0	0	12
fixed	7	8	12	1473099	4	3	3	1	0	602	1	4	0	216	12	0	0	13
fixed	7	9	1	1474865	4	1	1	1	0	1383	1	4	0	200	1	0	0	1
fixed	7	9	2	1476871	1	2	2	1	0	1274	1	4	0	208	2	0	0	2
fixed	7	9	3	1479068	6	4	4	1	0	901	1	4	0	224	3	0	0	3
fixed	7	9	4	1480418	2	1	1	1	0	796	1	4	0	200	4	0	0	4
fixed	7	9	5	1481882	5	3	3	1	0	1102	1	4	0	216	5	0	0	5
fixed	7	9	6	1483807	6	4	4	1	0	948	1	4	0	224	6	0	0	6
fixed	7	9	7	1485217	3	1	0	0	2	0	3	4	0	200	6	0	1	6
fixed	7	9	8	1488324	2	3	3	3	0	1133	2	4	0	216	7	0	1	7
fixed	7	9	9	1489765	3	2	2	1	0	649	1	4	0	208	8	0	1	8
fixed	7	9	10	1491304	1	4	4	2	0	823	2	4	0	224	9	0	1	8
fixed	7	9	11	1492825	5	2	2	1	0	702	1	4	0	208	10	0	1	9
fixed	7	9	12	1494400	4	3	3	1	0	492	1	4	0	216	11	0	1	10
fixed	7	10	1	1495666	4	1	1	1	0	678	1	4	0	200	1	0	0	1
fixed	7	10	2	1497057	1	2	2	1	0	779	1	4	0	208	2	0	0	2
fixed	7	10	3	1498523	6	4	4	1	0	629	1	4	0	224	3	0	0	3
fixed	7	10	4	1499842	2	1	1	1	0	677	1	4	0	200	4	0	0	4
fixed	7	10	5	1501051	5	3	3	1	0	850	1	4	0	216	5	0	0	4
fixed	7	10	6	1502780	6	4	4	1	0	657	1	4	0	224	6	0	0	5
fixed	7	10	7	1504235	3	1	1	1	0	507	1	4	0	200	7	0	0	6
fixed	7	10	8	1505527	2	3	3	1	0	765	1	4	0	216	8	0	0	7
fixed	7	10	9	1506748	3	2	2	1	0	481	1	4	0	208	9	0	0	8
fixed	7	10	10	1507733	1	4	4	1	0	719	1	4	0	224	10	0	0	8
fixed	7	10	11	1509266	5	2	2	1	0	662	1	4	0	208	11	0	0	9
fixed	7	10	12	1510644	4	3	3	1	0	644	1	4	0	216	12	0	0	10
