type	block	sequ.	trial	time	Pos.	Color	Button	NumRsp	Resp_1	RT_1	R_Code	Resp_2	RT_2	Trigg.	n_hit	n_inc	n_miss	score_%

random	1	1	1	1399	6	1	1	1	0	1007	1	4	0	8	1	0	0	100
random	1	1	2	3123	4	4	4	1	0	1198	1	4	0	32	2	0	0	100
random	1	1	3	5183	2	2	2	1	0	959	1	4	0	16	3	0	0	100
random	1	1	4	6734	3	3	3	1	0	541	1	4	0	24	4	0	0	100
random	1	1	5	7955	5	2	2	1	0	1321	1	4	0	16	5	0	0	100
random	1	1	6	10039	1	4	4	1	0	817	1	4	0	32	6	0	0	100
random	1	1	7	11667	6	1	1	1	0	852	1	4	0	8	7	0	0	100
random	1	1	8	13007	2	3	3	1	0	1340	1	4	0	24	8	0	0	100
random	1	1	9	14708	4	2	2	1	0	811	1	4	0	16	9	0	0	100
random	1	1	10	16037	1	1	1	1	0	891	1	4	0	8	10	0	0	100
random	1	1	11	17961	5	4	4	1	0	841	1	4	0	32	11	0	0	100
random	1	1	12	19585	3	3	3	1	0	1013	1	4	0	24	12	0	0	100
random	1	1	13	21216	5	2	2	1	0	911	1	4	0	16	13	0	0	100
random	1	1	14	22421	1	4	4	1	0	828	1	4	0	32	14	0	0	100
random	1	1	15	24277	3	1	1	1	0	854	1	4	0	8	15	0	0	100
random	1	1	16	25490	4	3	3	1	0	1027	1	4	0	24	16	0	0	100
random	1	1	17	27334	6	4	4	1	0	876	1	4	0	32	17	0	0	100
random	1	1	18	29116	2	1	1	1	0	849	1	4	0	8	18	0	0	100
random	1	1	19	30424	5	3	3	1	0	914	1	4	0	24	19	0	0	100
random	1	1	20	32195	2	2	2	1	0	503	1	4	0	16	20	0	0	100
random	1	1	21	33137	3	3	3	1	0	1175	1	4	0	24	21	0	0	100
random	1	1	22	34794	6	1	1	1	0	833	1	4	0	8	22	0	0	100
random	1	1	23	35953	4	2	2	1	0	943	1	4	0	16	23	0	0	100
random	1	1	24	37832	1	4	4	1	0	768	1	4	0	32	24	0	0	100
random	1	1	25	39679	4	3	3	1	0	1233	1	4	0	24	25	0	0	100
random	1	1	26	41234	2	1	1	1	0	832	1	4	0	8	26	0	0	100
random	1	1	27	42806	5	2	2	1	0	885	1	4	0	16	27	0	0	100
random	1	1	28	44517	6	4	4	1	0	693	1	4	0	32	28	0	0	100
random	1	1	29	46213	1	3	3	1	0	1085	1	4	0	24	29	0	0	100
random	1	1	30	47872	5	2	2	1	0	591	1	4	0	16	30	0	0	100
random	1	1	31	49351	2	1	1	1	0	608	1	4	0	8	31	0	0	100
random	1	1	32	50677	3	3	3	1	0	864	1	4	0	24	32	0	0	100
random	1	1	33	52292	6	4	4	1	0	579	1	4	0	32	33	0	0	100
random	1	1	34	53169	4	2	2	1	0	822	1	4	0	16	34	0	0	100
random	1	1	35	54653	3	4	4	1	0	863	1	4	0	32	35	0	0	100
random	1	1	36	56061	1	1	1	1	0	1028	1	4	0	8	36	0	0	100
random	1	1	37	57974	3	4	4	1	0	707	1	4	0	32	37	0	0	100
random	1	1	38	59048	5	3	3	1	0	1077	1	4	0	24	38	0	0	100
random	1	1	39	60889	6	1	1	1	0	1055	1	4	0	8	39	0	0	100
random	1	1	40	62770	1	2	2	1	0	992	1	4	0	16	40	0	0	100
random	1	1	41	64567	2	3	3	1	0	1092	1	4	0	24	41	0	0	100
random	1	1	42	66415	4	4	4	1	0	853	1	4	0	32	42	0	0	100
random	1	1	43	68285	1	2	2	1	0	918	1	4	0	16	43	0	0	100
random	1	1	44	69579	6	3	3	1	0	1031	1	4	0	24	44	0	0	100
random	1	1	45	71386	3	1	1	1	0	491	1	4	0	8	45	0	0	100
random	1	1	46	72403	4	4	4	1	0	864	1	4	0	32	46	0	0	100
random	1	1	47	73761	2	2	2	1	0	918	1	4	0	16	47	0	0	100
random	1	1	48	75380	5	1	1	1	0	730	1	4	0	8	48	0	0	100
random	1	1	49	76803	2	3	3	1	0	973	1	4	0	24	49	0	0	100
random	1	1	50	78811	3	1	1	1	0	872	1	4	0	8	50	0	0	100
random	1	1	51	80165	1	4	4	1	0	847	1	4	0	32	51	0	0	100
random	1	1	52	81693	5	3	3	1	0	1238	1	4	0	24	52	0	0	100
random	1	1	53	83934	3	2	2	1	0	736	1	4	0	16	53	0	0	100
random	1	1	54	85660	6	4	4	1	0	654	1	4	0	32	54	0	0	100
random	1	1	55	86642	4	2	2	1	0	900	1	4	0	16	55	0	0	100
random	1	1	56	88392	1	1	1	1	0	915	1	4	0	8	56	0	0	100
random	1	1	57	90149	5	4	4	1	0	760	1	4	0	32	57	0	0	100
random	1	1	58	91451	2	1	1	1	0	889	1	4	0	8	58	0	0	100
random	1	1	59	92645	6	2	2	1	0	1038	1	4	0	16	59	0	0	100
random	1	1	60	94483	4	3	3	1	0	520	1	4	0	24	60	0	0	100
random	1	1	61	95616	1	2	2	1	0	992	1	4	0	16	61	0	0	100
random	1	1	62	97175	6	4	4	1	0	694	1	4	0	32	62	0	0	100
random	1	1	63	98396	4	1	1	1	0	611	1	4	0	8	63	0	0	100
random	1	1	64	99776	2	2	2	1	0	864	1	4	0	16	64	0	0	100
random	1	1	65	101295	4	3	3	1	0	784	1	4	0	24	65	0	0	100
random	1	1	66	103087	3	1	1	1	0	796	1	4	0	8	66	0	0	100
random	1	1	67	104703	1	3	3	1	0	1255	1	4	0	24	67	0	0	100
random	1	1	68	106404	5	4	4	1	0	824	1	4	0	32	68	0	0	100
random	1	1	69	108093	2	2	2	1	0	704	1	4	0	16	69	0	0	100
random	1	1	70	109582	3	1	1	1	0	761	1	4	0	8	70	0	0	100
random	1	1	71	110720	5	4	4	1	0	833	1	4	0	32	71	0	0	100
random	1	1	72	112521	6	3	3	1	0	1157	1	4	0	24	72	0	0	100
random	1	1	73	114563	2	1	1	1	0	926	1	4	0	8	73	0	0	100
random	1	1	74	116093	5	3	0	1	2	0	3	4	0	24	73	0	1	99
random	1	1	75	119139	1	4	4	1	0	700	1	4	0	32	74	0	1	99
random	1	1	76	120444	6	2	2	1	0	869	1	4	0	16	75	0	1	99
random	1	1	77	121661	2	1	1	1	0	849	1	4	0	8	76	0	1	99
random	1	1	78	123442	4	4	4	1	0	942	1	4	0	32	77	0	1	99
random	1	1	79	125252	3	2	2	1	0	1378	1	4	0	16	78	0	1	99
random	1	1	80	127043	4	3	3	1	0	541	1	4	0	24	79	0	1	99
random	1	1	81	127990	1	4	4	1	0	806	1	4	0	32	80	0	1	99
random	1	1	82	129326	5	1	1	1	0	989	1	4	0	8	81	0	1	99
random	1	1	83	130938	3	2	2	1	0	856	1	4	0	16	82	0	1	99
random	1	1	84	132132	6	3	3	1	0	990	1	4	0	24	83	0	1	99
random	1	1	85	133777	3	2	2	1	0	840	1	4	0	16	84	0	1	99
random	1	1	86	135057	1	3	3	1	0	1122	1	4	0	24	85	0	1	99
random	1	1	87	136952	4	4	4	1	0	858	1	4	0	32	86	0	1	99
random	1	1	88	138111	2	1	1	1	0	833	1	4	0	8	87	0	1	99
random	1	1	89	139605	6	4	4	1	0	841	1	4	0	32	88	0	1	99
random	1	1	90	140752	3	3	3	1	0	1217	1	4	0	24	89	0	1	99
random	1	1	91	142924	5	4	4	1	0	813	1	4	0	32	90	0	1	99
random	1	1	92	144038	1	2	2	1	0	853	1	4	0	16	91	0	1	99
random	1	1	93	145444	5	1	1	1	0	450	1	4	0	8	92	0	1	99
random	1	1	94	146924	4	3	3	1	0	1027	1	4	0	24	93	0	1	99
random	1	1	95	148747	6	1	1	1	0	1038	1	4	0	8	94	0	1	99
random	1	1	96	150576	2	2	2	1	0	905	1	4	0	16	95	0	1	99
random	1	1	97	152656	4	3	3	1	0	976	1	4	0	24	96	0	1	99
random	1	1	98	154486	3	2	2	1	0	851	1	4	0	16	97	0	1	99
random	1	1	99	155755	6	3	3	1	0	989	1	4	0	24	98	0	1	99
random	1	1	100	157480	1	4	4	1	0	828	1	4	0	32	99	0	1	99
random	1	1	101	159274	4	1	1	1	0	776	1	4	0	8	100	0	1	99
random	1	1	102	160972	5	2	2	1	0	873	1	4	0	16	101	0	1	99
random	1	1	103	162482	2	4	4	1	0	904	1	4	0	32	102	0	1	99
random	1	1	104	163901	3	1	1	1	0	1020	1	4	0	8	103	0	1	99
random	1	1	105	165668	1	3	3	1	0	1026	1	4	0	24	104	0	1	99
random	1	1	106	167210	2	2	2	1	0	680	1	4	0	16	105	0	1	99
random	1	1	107	168372	5	4	4	1	0	799	1	4	0	32	106	0	1	99
random	1	1	108	169786	6	1	1	1	0	491	1	4	0	8	107	0	1	99
random	1	1	109	170867	5	4	4	1	0	805	1	4	0	32	108	0	1	99
random	1	1	110	172668	6	3	3	1	0	1097	1	4	0	24	109	0	1	99
random	1	1	111	174778	2	2	2	1	0	535	1	4	0	16	110	0	1	99
random	1	1	112	175640	3	1	1	1	0	779	1	4	0	8	111	0	1	99
random	1	1	113	177348	1	2	2	1	0	1026	1	4	0	16	112	0	1	99
random	1	1	114	179082	2	3	3	1	0	953	1	4	0	24	113	0	1	99
random	1	1	115	180847	3	1	1	1	0	790	1	4	0	8	114	0	1	99
random	1	1	116	182299	4	4	4	1	0	465	1	4	0	32	115	0	1	99
random	1	1	117	183704	6	1	1	1	0	1013	1	4	0	8	116	0	1	99
random	1	1	118	185655	5	3	3	1	0	1091	1	4	0	24	117	0	1	99
random	1	1	119	187357	1	4	4	1	0	954	1	4	0	32	118	0	1	99
random	1	1	120	188980	4	2	2	1	0	766	1	4	0	16	119	0	1	99
fixed	2	1	1	191098	4	1	1	1	0	780	1	4	0	40	1	0	0	100
fixed	2	1	2	192672	1	2	2	1	0	1545	1	4	0	48	2	0	0	100
fixed	2	1	3	194769	6	4	4	1	0	945	1	4	0	64	3	0	0	100
fixed	2	1	4	196059	2	1	1	1	0	1267	1	4	0	40	4	0	0	100
fixed	2	1	5	198156	5	3	3	1	0	905	1	4	0	56	5	0	0	100
fixed	2	1	6	199354	6	4	4	1	0	902	1	4	0	64	6	0	0	100
fixed	2	1	7	200961	3	1	1	1	0	930	1	4	0	40	7	0	0	100
fixed	2	1	8	202323	2	3	3	1	0	1249	1	4	0	56	8	0	0	100
fixed	2	1	9	204088	3	2	2	1	0	694	1	4	0	48	9	0	0	100
fixed	2	1	10	205519	1	4	4	1	0	801	1	4	0	64	10	0	0	100
fixed	2	1	11	207305	5	2	2	1	0	814	1	4	0	48	11	0	0	100
fixed	2	1	12	208680	4	3	3	1	0	1276	1	4	0	56	12	0	0	100
fixed	2	2	1	211166	4	1	1	1	0	810	1	4	0	40	13	0	0	100
fixed	2	2	2	212848	1	2	2	1	0	979	1	4	0	48	14	0	0	100
fixed	2	2	3	214849	6	4	4	1	0	830	1	4	0	64	15	0	0	100
fixed	2	2	4	216362	2	1	1	1	0	1502	1	4	0	40	16	0	0	100
fixed	2	2	5	218440	5	3	3	1	0	878	1	4	0	56	17	0	0	100
fixed	2	2	6	219812	6	4	4	1	0	812	1	4	0	64	18	0	0	100
fixed	2	2	7	221536	3	1	1	1	0	947	1	4	0	40	19	0	0	100
fixed	2	2	8	223278	2	3	3	1	0	1273	1	4	0	56	20	0	0	100
fixed	2	2	9	224958	3	2	2	1	0	674	1	4	0	48	21	0	0	100
fixed	2	2	10	226608	1	4	4	1	0	836	1	4	0	64	22	0	0	100
fixed	2	2	11	228279	5	2	2	1	0	837	1	4	0	48	23	0	0	100
fixed	2	2	12	230108	4	3	3	1	0	1016	1	4	0	56	24	0	0	100
fixed	2	3	1	231784	4	1	1	1	0	657	1	4	0	40	25	0	0	100
fixed	2	3	2	233220	1	2	2	1	0	940	1	4	0	48	26	0	0	100
fixed	2	3	3	234965	6	4	4	1	0	690	1	4	0	64	27	0	0	100
fixed	2	3	4	236232	2	1	1	1	0	933	1	4	0	40	28	0	0	100
fixed	2	3	5	237890	5	3	3	1	0	895	1	4	0	56	29	0	0	100
fixed	2	3	6	239208	6	4	4	1	0	951	1	4	0	64	30	0	0	100
fixed	2	3	7	241031	3	1	1	1	0	945	1	4	0	40	31	0	0	100
fixed	2	3	8	242478	2	3	3	1	0	1052	1	4	0	56	32	0	0	100
fixed	2	3	9	244488	3	2	2	1	0	711	1	4	0	48	33	0	0	100
fixed	2	3	10	245534	1	4	4	1	0	738	1	4	0	64	34	0	0	100
fixed	2	3	11	247039	5	2	2	1	0	771	1	4	0	48	35	0	0	100
fixed	2	3	12	248501	4	3	3	1	0	957	1	4	0	56	36	0	0	100
fixed	2	4	1	250212	4	1	1	1	0	652	1	4	0	40	37	0	0	100
fixed	2	4	2	251696	1	2	2	1	0	918	1	4	0	48	38	0	0	100
fixed	2	4	3	253381	6	4	4	1	0	719	1	4	0	64	39	0	0	100
fixed	2	4	4	254992	2	1	1	1	0	770	1	4	0	40	40	0	0	100
fixed	2	4	5	256116	5	3	3	1	0	1130	1	4	0	56	41	0	0	100
fixed	2	4	6	257964	6	4	4	1	0	932	1	4	0	64	42	0	0	100
fixed	2	4	7	259764	3	1	1	1	0	880	1	4	0	40	43	0	0	100
fixed	2	4	8	261229	2	3	3	1	0	1026	1	4	0	56	44	0	0	100
fixed	2	4	9	263232	3	2	2	1	0	797	1	4	0	48	45	0	0	100
fixed	2	4	10	264469	1	4	4	1	0	841	1	4	0	64	46	0	0	100
fixed	2	4	11	265684	5	2	2	1	0	909	1	4	0	48	47	0	0	100
fixed	2	4	12	267569	4	3	3	1	0	965	1	4	0	56	48	0	0	100
fixed	2	5	1	269693	4	1	1	1	0	1011	1	4	0	40	49	0	0	100
fixed	2	5	2	271067	1	2	2	1	0	1537	1	4	0	48	50	0	0	100
fixed	2	5	3	272953	6	4	4	1	0	753	1	4	0	64	51	0	0	100
fixed	2	5	4	274049	2	1	1	1	0	1083	1	4	0	40	52	0	0	100
fixed	2	5	5	275850	5	3	3	1	0	1031	1	4	0	56	53	0	0	100
fixed	2	5	6	277904	6	4	4	1	0	872	1	4	0	64	54	0	0	100
fixed	2	5	7	279355	3	1	1	1	0	1114	1	4	0	40	55	0	0	100
fixed	2	5	8	281413	2	3	3	1	0	1475	1	4	0	56	56	0	0	100
fixed	2	5	9	283462	3	2	2	1	0	580	1	4	0	48	57	0	0	100
fixed	2	5	10	284981	1	4	4	1	0	780	1	4	0	64	58	0	0	100
fixed	2	5	11	286632	5	2	2	1	0	918	1	4	0	48	59	0	0	100
fixed	2	5	12	288286	4	3	3	1	0	792	1	4	0	56	60	0	0	100
fixed	2	6	1	290043	4	1	1	1	0	797	1	4	0	40	61	0	0	100
fixed	2	6	2	291131	1	2	2	1	0	1199	1	4	0	48	62	0	0	100
fixed	2	6	3	293310	6	4	4	1	0	723	1	4	0	64	63	0	0	100
fixed	2	6	4	294859	2	1	1	1	0	865	1	4	0	40	64	0	0	100
fixed	2	6	5	296146	5	3	3	1	0	931	1	4	0	56	65	0	0	100
fixed	2	6	6	297430	6	4	4	1	0	788	1	4	0	64	66	0	0	100
fixed	2	6	7	298559	3	1	1	1	0	1109	1	4	0	40	67	0	0	100
fixed	2	6	8	300069	2	3	0	1	2	0	3	4	0	56	67	0	1	99
fixed	2	6	9	303555	3	2	2	1	0	834	1	4	0	48	68	0	1	99
fixed	2	6	10	305027	1	4	4	1	0	674	1	4	0	64	69	0	1	99
fixed	2	6	11	306441	5	2	2	1	0	879	1	4	0	48	70	0	1	99
fixed	2	6	12	308223	4	3	3	1	0	923	1	4	0	56	71	0	1	99
fixed	2	7	1	309942	4	1	1	1	0	674	1	4	0	40	72	0	1	99
fixed	2	7	2	310930	1	2	2	1	0	1449	1	4	0	48	73	0	1	99
fixed	2	7	3	313023	6	4	4	1	0	784	1	4	0	64	74	0	1	99
fixed	2	7	4	314264	2	1	1	1	0	972	1	4	0	40	75	0	1	99
fixed	2	7	5	315792	5	3	3	1	0	1187	1	4	0	56	76	0	1	99
fixed	2	7	6	317829	6	4	4	1	0	812	1	4	0	64	77	0	1	99
fixed	2	7	7	319637	3	1	1	1	0	904	1	4	0	40	78	0	1	99
fixed	2	7	8	321200	2	3	3	1	0	989	1	4	0	56	79	0	1	99
fixed	2	7	9	322589	3	2	2	1	0	803	1	4	0	48	80	0	1	99
fixed	2	7	10	323825	1	4	4	1	0	662	1	4	0	64	81	0	1	99
fixed	2	7	11	324779	5	2	2	1	0	1174	1	4	0	48	82	0	1	99
fixed	2	7	12	326621	4	3	3	1	0	808	1	4	0	56	83	0	1	99
fixed	2	8	1	328671	4	1	1	1	0	641	1	4	0	40	84	0	1	99
fixed	2	8	2	330226	1	2	2	1	0	855	1	4	0	48	85	0	1	99
fixed	2	8	3	331558	6	4	4	1	0	687	1	4	0	64	86	0	1	99
fixed	2	8	4	333178	2	1	1	1	0	867	1	4	0	40	87	0	1	99
fixed	2	8	5	334676	5	3	3	1	0	915	1	4	0	56	88	0	1	99
fixed	2	8	6	335941	6	4	4	1	0	901	1	4	0	64	89	0	1	99
fixed	2	8	7	337428	3	1	1	1	0	902	1	4	0	40	90	0	1	99
fixed	2	8	8	338888	2	3	3	1	0	1345	1	4	0	56	91	0	1	99
fixed	2	8	9	340520	3	2	2	1	0	732	1	4	0	48	92	0	1	99
fixed	2	8	10	342224	1	4	4	1	0	731	1	4	0	64	93	0	1	99
fixed	2	8	11	343793	5	2	2	1	0	929	1	4	0	48	94	0	1	99
fixed	2	8	12	345212	4	3	3	1	0	997	1	4	0	56	95	0	1	99
fixed	2	9	1	346983	4	1	1	1	0	650	1	4	0	40	96	0	1	99
fixed	2	9	2	348288	1	2	2	1	0	1170	1	4	0	48	97	0	1	99
fixed	2	9	3	350250	6	4	4	1	0	744	1	4	0	64	98	0	1	99
fixed	2	9	4	351770	2	1	1	1	0	807	1	4	0	40	99	0	1	99
fixed	2	9	5	353451	5	3	3	1	0	976	1	4	0	56	100	0	1	99
fixed	2	9	6	355339	6	4	4	1	0	920	1	4	0	64	101	0	1	99
fixed	2	9	7	356835	3	1	1	1	0	857	1	4	0	40	102	0	1	99
fixed	2	9	8	358672	2	3	0	1	2	0	3	4	0	56	102	0	2	98
fixed	2	9	9	361528	3	2	2	1	0	858	1	4	0	48	103	0	2	98
fixed	2	9	10	363251	1	4	4	1	0	945	1	4	0	64	104	0	2	98
fixed	2	9	11	364491	5	2	2	1	0	996	1	4	0	48	105	0	2	98
fixed	2	9	12	365915	4	3	3	1	0	984	1	4	0	56	106	0	2	98
fixed	2	10	1	367984	4	1	1	1	0	752	1	4	0	40	107	0	2	98
fixed	2	10	2	369164	1	2	2	1	0	927	1	4	0	48	108	0	2	98
fixed	2	10	3	370807	6	4	4	1	0	777	1	4	0	64	109	0	2	98
fixed	2	10	4	372168	2	1	1	1	0	1471	1	4	0	40	110	0	2	98
fixed	2	10	5	374533	5	3	3	1	0	1107	1	4	0	56	111	0	2	98
fixed	2	10	6	376371	6	4	4	1	0	1669	1	4	0	64	112	0	2	98
fixed	2	10	7	378550	3	1	1	1	0	761	1	4	0	40	113	0	2	98
fixed	2	10	8	379679	2	3	3	1	0	873	1	4	0	56	114	0	2	98
fixed	2	10	9	381259	3	2	2	1	0	742	1	4	0	48	115	0	2	98
fixed	2	10	10	382419	1	4	4	1	0	733	1	4	0	64	116	0	2	98
fixed	2	10	11	383527	5	2	2	1	0	1094	1	4	0	48	117	0	2	98
fixed	2	10	12	384954	4	3	3	1	0	1050	1	4	0	56	118	0	2	98
fixed	3	1	1	387129	4	1	1	1	0	709	1	4	0	72	1	0	0	100
fixed	3	1	2	388754	1	2	2	1	0	928	1	4	0	80	2	0	0	100
fixed	3	1	3	390369	6	4	4	1	0	701	1	4	0	96	3	0	0	100
fixed	3	1	4	391687	2	1	1	1	0	1045	1	4	0	72	4	0	0	100
fixed	3	1	5	393299	5	3	0	1	2	0	3	4	0	88	4	0	1	80
fixed	3	1	6	396767	6	4	4	1	0	774	1	4	0	96	5	0	1	83
fixed	3	1	7	398208	3	1	1	1	0	920	1	4	0	72	6	0	1	86
fixed	3	1	8	399685	2	3	3	1	0	890	1	4	0	88	7	0	1	88
fixed	3	1	9	400904	3	2	2	1	0	782	1	4	0	80	8	0	1	89
fixed	3	1	10	402014	1	4	4	1	0	831	1	4	0	96	9	0	1	90
fixed	3	1	11	403194	5	2	2	1	0	1045	1	4	0	80	10	0	1	91
fixed	3	1	12	405168	4	3	3	1	0	1090	1	4	0	88	11	0	1	92
fixed	3	2	1	407181	4	1	1	1	0	884	1	4	0	72	12	0	1	92
fixed	3	2	2	409019	1	2	2	1	0	1022	1	4	0	80	13	0	1	93
fixed	3	2	3	410424	6	4	4	1	0	707	1	4	0	96	14	0	1	93
fixed	3	2	4	411619	2	1	1	1	0	1096	1	4	0	72	15	0	1	94
fixed	3	2	5	413699	5	3	3	1	0	1048	1	4	0	88	16	0	1	94
fixed	3	2	6	415099	6	4	4	1	0	1044	1	4	0	96	17	0	1	94
fixed	3	2	7	416438	3	1	1	1	0	908	1	4	0	72	18	0	1	95
fixed	3	2	8	417813	2	3	3	1	0	970	1	4	0	88	19	0	1	95
fixed	3	2	9	419690	3	2	2	1	0	779	1	4	0	80	20	0	1	95
fixed	3	2	10	421268	1	4	4	1	0	1151	1	4	0	96	21	0	1	95
fixed	3	2	11	423079	5	2	2	1	0	811	1	4	0	80	22	0	1	96
fixed	3	2	12	424408	4	3	3	1	0	970	1	4	0	88	23	0	1	96
fixed	3	3	1	426562	4	1	1	1	0	679	1	4	0	72	24	0	1	96
fixed	3	3	2	427769	1	2	2	1	0	924	1	4	0	80	25	0	1	96
fixed	3	3	3	429168	6	4	4	1	0	745	1	4	0	96	26	0	1	96
fixed	3	3	4	430570	2	1	1	1	0	949	1	4	0	72	27	0	1	96
fixed	3	3	5	432495	5	3	3	1	0	1140	1	4	0	88	28	0	1	97
fixed	3	3	6	434298	6	4	4	1	0	775	1	4	0	96	29	0	1	97
fixed	3	3	7	436109	3	1	1	1	0	723	1	4	0	72	30	0	1	97
fixed	3	3	8	437835	2	3	3	1	0	906	1	4	0	88	31	0	1	97
fixed	3	3	9	439071	3	2	2	1	0	918	1	4	0	80	32	0	1	97
fixed	3	3	10	440473	1	4	4	1	0	826	1	4	0	96	33	0	1	97
fixed	3	3	11	442128	5	2	2	1	0	996	1	4	0	80	34	0	1	97
fixed	3	3	12	443545	4	3	3	1	0	1040	1	4	0	88	35	0	1	97
fixed	3	4	1	445157	4	1	1	1	0	763	1	4	0	72	36	0	1	97
fixed	3	4	2	446349	1	2	2	1	0	1273	1	4	0	80	37	0	1	97
fixed	3	4	3	448329	6	4	4	1	0	798	1	4	0	96	38	0	1	97
fixed	3	4	4	449547	2	1	1	1	0	1898	1	4	0	72	39	0	1	98
fixed	3	4	5	452278	5	3	3	1	0	958	1	4	0	88	40	0	1	98
fixed	3	4	6	453584	6	4	4	1	0	775	1	4	0	96	41	0	1	98
fixed	3	4	7	454702	3	1	1	1	0	1183	1	4	0	72	42	0	1	98
fixed	3	4	8	456652	2	3	3	1	0	1213	1	4	0	88	43	0	1	98
fixed	3	4	9	458510	3	2	2	1	0	870	1	4	0	80	44	0	1	98
fixed	3	4	10	459696	1	4	4	1	0	892	1	4	0	96	45	0	1	98
fixed	3	4	11	461326	5	2	2	1	0	1215	1	4	0	80	46	0	1	98
fixed	3	4	12	463283	4	3	3	1	0	1268	1	4	0	88	47	0	1	98
fixed	3	5	1	465624	4	1	1	1	0	697	1	4	0	72	48	0	1	98
fixed	3	5	2	466998	1	2	2	1	0	855	1	4	0	80	49	0	1	98
fixed	3	5	3	468626	6	4	4	1	0	738	1	4	0	96	50	0	1	98
fixed	3	5	4	469745	2	1	1	1	0	890	1	4	0	72	51	0	1	98
fixed	3	5	5	471067	5	3	3	1	0	1019	1	4	0	88	52	0	1	98
fixed	3	5	6	472469	6	4	4	1	0	839	1	4	0	96	53	0	1	98
fixed	3	5	7	473687	3	1	1	1	0	787	1	4	0	72	54	0	1	98
fixed	3	5	8	474786	2	3	3	1	0	1301	1	4	0	88	55	0	1	98
fixed	3	5	9	476581	3	2	2	1	0	657	1	4	0	80	56	0	1	98
fixed	3	5	10	478104	1	4	4	1	0	672	1	4	0	96	57	0	1	98
fixed	3	5	11	479371	5	2	2	1	0	1099	1	4	0	80	58	0	1	98
fixed	3	5	12	480995	4	3	3	1	0	926	1	4	0	88	59	0	1	98
fixed	3	6	1	483100	4	1	1	1	0	740	1	4	0	72	60	0	1	98
fixed	3	6	2	484799	1	2	2	1	0	981	1	4	0	80	61	0	1	98
fixed	3	6	3	486539	6	4	4	1	0	635	1	4	0	96	62	0	1	98
fixed	3	6	4	487720	2	1	1	1	0	1089	1	4	0	72	63	0	1	98
fixed	3	6	5	489752	5	3	3	1	0	1139	1	4	0	88	64	0	1	98
fixed	3	6	6	491921	6	4	4	1	0	743	1	4	0	96	65	0	1	98
fixed	3	6	7	493443	3	1	1	1	0	1006	1	4	0	72	66	0	1	99
fixed	3	6	8	494909	2	3	0	1	2	0	3	4	0	88	66	0	2	97
fixed	3	6	9	497705	3	2	2	1	0	818	1	4	0	80	67	0	2	97
fixed	3	6	10	499512	1	4	4	1	0	909	1	4	0	96	68	0	2	97
fixed	3	6	11	500893	5	2	2	1	0	931	1	4	0	80	69	0	2	97
fixed	3	6	12	502774	4	3	3	1	0	963	1	4	0	88	70	0	2	97
fixed	3	7	1	504770	4	1	1	1	0	607	1	4	0	72	71	0	2	97
fixed	3	7	2	505838	1	2	2	1	0	961	1	4	0	80	72	0	2	97
fixed	3	7	3	507416	6	4	4	1	0	1039	1	4	0	96	73	0	2	97
fixed	3	7	4	509255	2	1	1	1	0	873	1	4	0	72	74	0	2	97
fixed	3	7	5	510693	5	3	3	1	0	1068	1	4	0	88	75	0	2	97
fixed	3	7	6	512312	6	4	4	1	0	807	1	4	0	96	76	0	2	97
fixed	3	7	7	513941	3	1	1	1	0	906	1	4	0	72	77	0	2	97
fixed	3	7	8	515420	2	3	3	1	0	1548	1	4	0	88	78	0	2	98
fixed	3	7	9	517528	3	2	2	1	0	643	1	4	0	80	79	0	2	98
fixed	3	7	10	519181	1	4	4	1	0	797	1	4	0	96	80	0	2	98
fixed	3	7	11	520288	5	2	2	1	0	1286	1	4	0	80	81	0	2	98
fixed	3	7	12	522419	4	3	3	1	0	843	1	4	0	88	82	0	2	98
fixed	3	8	1	524301	4	1	1	1	0	691	1	4	0	72	83	0	2	98
fixed	3	8	2	525664	1	2	2	1	0	906	1	4	0	80	84	0	2	98
fixed	3	8	3	527171	6	4	4	1	0	770	1	4	0	96	85	0	2	98
fixed	3	8	4	528566	2	1	1	1	0	839	1	4	0	72	86	0	2	98
fixed	3	8	5	529921	5	3	3	1	0	1317	1	4	0	88	87	0	2	98
fixed	3	8	6	532086	6	4	0	0	2	0	3	4	0	96	87	0	3	97
fixed	3	8	7	535297	3	1	1	1	0	834	1	4	0	72	88	0	3	97
fixed	3	8	8	536692	2	3	3	1	0	1015	1	4	0	88	89	0	3	97
fixed	3	8	9	538010	3	2	2	1	0	791	1	4	0	80	90	0	3	97
fixed	3	8	10	539315	1	4	4	1	0	736	1	4	0	96	91	0	3	97
fixed	3	8	11	540835	5	2	2	1	0	767	1	4	0	80	92	0	3	97
fixed	3	8	12	541992	4	3	3	1	0	967	1	4	0	88	93	0	3	97
fixed	3	9	1	543832	4	1	1	1	0	720	1	4	0	72	94	0	3	97
fixed	3	9	2	544908	1	2	2	1	0	1139	1	4	0	80	95	0	3	97
fixed	3	9	3	546408	6	4	4	1	0	699	1	4	0	96	96	0	3	97
fixed	3	9	4	547519	2	1	1	1	0	924	1	4	0	72	97	0	3	97
fixed	3	9	5	548905	5	3	3	1	0	834	1	4	0	88	98	0	3	97
fixed	3	9	6	550418	6	4	4	1	0	721	1	4	0	96	99	0	3	97
fixed	3	9	7	551508	3	1	1	1	0	859	1	4	0	72	100	0	3	97
fixed	3	9	8	552686	2	3	3	1	0	1017	1	4	0	88	101	0	3	97
fixed	3	9	9	554001	3	2	2	1	0	850	1	4	0	80	102	0	3	97
fixed	3	9	10	555272	1	4	4	1	0	772	1	4	0	96	103	0	3	97
fixed	3	9	11	557080	5	2	2	1	0	751	1	4	0	80	104	0	3	97
fixed	3	9	12	558792	4	3	3	1	0	919	1	4	0	88	105	0	3	97
fixed	3	10	1	560707	4	1	1	1	0	725	1	4	0	72	106	0	3	97
fixed	3	10	2	561829	1	2	2	1	0	950	1	4	0	80	107	0	3	97
fixed	3	10	3	563668	6	4	4	1	0	1088	1	4	0	96	108	0	3	97
fixed	3	10	4	565389	2	1	1	1	0	735	1	4	0	72	109	0	3	97
fixed	3	10	5	566695	5	3	3	1	0	976	1	4	0	88	110	0	3	97
fixed	3	10	6	568306	6	4	4	1	0	724	1	4	0	96	111	0	3	97
fixed	3	10	7	569781	3	1	1	1	0	1277	1	4	0	72	112	0	3	97
fixed	3	10	8	571628	2	3	3	1	0	1039	1	4	0	88	113	0	3	97
fixed	3	10	9	573392	3	2	2	1	0	740	1	4	0	80	114	0	3	97
fixed	3	10	10	574913	1	4	4	1	0	1004	1	4	0	96	115	0	3	97
fixed	3	10	11	576542	5	2	2	1	0	799	1	4	0	80	116	0	3	97
fixed	3	10	12	577619	4	3	3	1	0	1673	1	4	0	88	117	0	3	98
fixed	4	1	1	673281	4	1	1	1	0	1301	1	4	0	104	1	0	0	100
fixed	4	1	2	675364	1	2	2	1	0	1053	1	4	0	112	2	0	0	100
fixed	4	1	3	676755	6	4	4	1	0	819	1	4	0	128	3	0	0	100
fixed	4	1	4	677910	2	1	1	1	0	937	1	4	0	104	4	0	0	100
fixed	4	1	5	679448	5	3	3	1	0	1016	1	4	0	120	5	0	0	100
fixed	4	1	6	681003	6	4	4	1	0	822	1	4	0	128	6	0	0	100
fixed	4	1	7	682239	3	1	1	1	0	866	1	4	0	104	7	0	0	100
fixed	4	1	8	683531	2	3	3	1	0	963	1	4	0	120	8	0	0	100
fixed	4	1	9	685504	3	2	2	1	0	736	1	4	0	112	9	0	0	100
fixed	4	1	10	686885	1	4	4	1	0	741	1	4	0	128	10	0	0	100
fixed	4	1	11	688263	5	2	2	1	0	811	1	4	0	112	11	0	0	100
fixed	4	1	12	689498	4	3	3	1	0	1135	1	4	0	120	12	0	0	100
fixed	4	2	1	691445	4	1	1	1	0	700	1	4	0	104	13	0	0	100
fixed	4	2	2	693116	1	2	2	1	0	885	1	4	0	112	14	0	0	100
fixed	4	2	3	694854	6	4	4	1	0	715	1	4	0	128	15	0	0	100
fixed	4	2	4	695887	2	1	1	1	0	1200	1	4	0	104	16	0	0	100
fixed	4	2	5	698040	5	3	3	1	0	885	1	4	0	120	17	0	0	100
fixed	4	2	6	699612	6	4	4	1	0	691	1	4	0	128	18	0	0	100
fixed	4	2	7	701218	3	1	1	1	0	1134	1	4	0	104	19	0	0	100
fixed	4	2	8	702641	2	3	3	1	0	890	1	4	0	120	20	0	0	100
fixed	4	2	9	704338	3	2	2	1	0	802	1	4	0	112	21	0	0	100
fixed	4	2	10	705862	1	4	4	1	0	801	1	4	0	128	22	0	0	100
fixed	4	2	11	707697	5	2	2	1	0	948	1	4	0	112	23	0	0	100
fixed	4	2	12	709533	4	3	3	1	0	838	1	4	0	120	24	0	0	100
fixed	4	3	1	711009	4	1	1	1	0	679	1	4	0	104	25	0	0	100
fixed	4	3	2	712313	1	2	2	1	0	864	1	4	0	112	26	0	0	100
fixed	4	3	3	713861	6	4	4	1	0	647	1	4	0	128	27	0	0	100
fixed	4	3	4	715384	2	1	1	1	0	750	1	4	0	104	28	0	0	100
fixed	4	3	5	716573	5	3	3	1	0	940	1	4	0	120	29	0	0	100
fixed	4	3	6	718449	6	4	4	1	0	1340	1	4	0	128	30	0	0	100
fixed	4	3	7	720740	3	1	1	1	0	771	1	4	0	104	31	0	0	100
fixed	4	3	8	722321	2	3	3	1	0	920	1	4	0	120	32	0	0	100
fixed	4	3	9	723909	3	2	2	1	0	725	1	4	0	112	33	0	0	100
fixed	4	3	10	725365	1	4	4	1	0	1063	1	4	0	128	34	0	0	100
fixed	4	3	11	727172	5	2	2	1	0	755	1	4	0	112	35	0	0	100
fixed	4	3	12	728928	4	3	3	1	0	961	1	4	0	120	36	0	0	100
fixed	4	4	1	731058	4	1	1	1	0	742	1	4	0	104	37	0	0	100
fixed	4	4	2	732551	1	2	2	1	0	1055	1	4	0	112	38	0	0	100
fixed	4	4	3	734088	6	4	4	1	0	654	1	4	0	128	39	0	0	100
fixed	4	4	4	735758	2	1	1	1	0	1015	1	4	0	104	40	0	0	100
fixed	4	4	5	737087	5	3	3	1	0	927	1	4	0	120	41	0	0	100
fixed	4	4	6	739027	6	4	4	1	0	1028	1	4	0	128	42	0	0	100
fixed	4	4	7	740369	3	1	1	1	0	900	1	4	0	104	43	0	0	100
fixed	4	4	8	741714	2	3	3	1	0	1035	1	4	0	120	44	0	0	100
fixed	4	4	9	743765	3	2	2	1	0	884	1	4	0	112	45	0	0	100
fixed	4	4	10	745673	1	4	4	1	0	1028	1	4	0	128	46	0	0	100
fixed	4	4	11	747324	5	2	2	1	0	789	1	4	0	112	47	0	0	100
fixed	4	4	12	749064	4	3	3	1	0	1052	1	4	0	120	48	0	0	100
fixed	4	5	1	750740	4	1	1	1	0	540	1	4	0	104	49	0	0	100
fixed	4	5	2	751591	1	2	2	1	0	888	1	4	0	112	50	0	0	100
fixed	4	5	3	753379	6	4	4	1	0	693	1	4	0	128	51	0	0	100
fixed	4	5	4	754998	2	1	1	1	0	825	1	4	0	104	52	0	0	100
fixed	4	5	5	756178	5	3	3	1	0	1070	1	4	0	120	53	0	0	100
fixed	4	5	6	757784	6	4	4	1	0	778	1	4	0	128	54	0	0	100
fixed	4	5	7	759272	3	1	1	1	0	795	1	4	0	104	55	0	0	100
fixed	4	5	8	760424	2	3	3	1	0	1315	1	4	0	120	56	0	0	100
fixed	4	5	9	762523	3	2	2	1	0	537	1	4	0	112	57	0	0	100
fixed	4	5	10	764024	1	4	4	1	0	762	1	4	0	128	58	0	0	100
fixed	4	5	11	765248	5	2	2	1	0	942	1	4	0	112	59	0	0	100
fixed	4	5	12	766928	4	3	3	1	0	1343	1	4	0	120	60	0	0	100
fixed	4	6	1	768935	4	1	1	1	0	714	1	4	0	104	61	0	0	100
fixed	4	6	2	770330	1	2	2	1	0	1231	1	4	0	112	62	0	0	100
fixed	4	6	3	772248	6	4	4	1	0	718	1	4	0	128	63	0	0	100
fixed	4	6	4	773709	2	1	1	1	0	1448	1	4	0	104	64	0	0	100
fixed	4	6	5	775790	5	3	3	1	0	920	1	4	0	120	65	0	0	100
fixed	4	6	6	777235	6	4	4	1	0	899	1	4	0	128	66	0	0	100
fixed	4	6	7	778958	3	1	1	1	0	985	1	4	0	104	67	0	0	100
fixed	4	6	8	780617	2	3	3	1	0	1363	1	4	0	120	68	0	0	100
fixed	4	6	9	782638	3	2	2	1	0	749	1	4	0	112	69	0	0	100
fixed	4	6	10	784107	1	4	4	1	0	775	1	4	0	128	70	0	0	100
fixed	4	6	11	785422	5	2	2	1	0	1048	1	4	0	112	71	0	0	100
fixed	4	6	12	787243	4	3	3	1	0	811	1	4	0	120	72	0	0	100
fixed	4	7	1	788784	4	1	1	1	0	745	1	4	0	104	73	0	0	100
fixed	4	7	2	790191	1	2	2	1	0	1038	1	4	0	112	74	0	0	100
fixed	4	7	3	791924	6	4	4	1	0	732	1	4	0	128	75	0	0	100
fixed	4	7	4	793268	2	1	1	1	0	835	1	4	0	104	76	0	0	100
fixed	4	7	5	794706	5	3	3	1	0	1119	1	4	0	120	77	0	0	100
fixed	4	7	6	796400	6	4	4	1	0	1198	1	4	0	128	78	0	0	100
fixed	4	7	7	798471	3	1	1	1	0	783	1	4	0	104	79	0	0	100
fixed	4	7	8	800041	2	3	3	1	0	1165	1	4	0	120	80	0	0	100
fixed	4	7	9	801672	3	2	2	1	0	639	1	4	0	112	81	0	0	100
fixed	4	7	10	803162	1	4	4	1	0	640	1	4	0	128	82	0	0	100
fixed	4	7	11	804713	5	2	2	1	0	767	1	4	0	112	83	0	0	100
fixed	4	7	12	806461	4	3	3	1	0	988	1	4	0	120	84	0	0	100
fixed	4	8	1	808098	4	1	1	1	0	727	1	4	0	104	85	0	0	100
fixed	4	8	2	809473	1	2	2	1	0	1013	1	4	0	112	86	0	0	100
fixed	4	8	3	811122	6	4	4	1	0	599	1	4	0	128	87	0	0	100
fixed	4	8	4	812240	2	1	1	1	0	855	1	4	0	104	88	0	0	100
fixed	4	8	5	813814	5	3	3	1	0	1205	1	4	0	120	89	0	0	100
fixed	4	8	6	815425	6	4	4	1	0	841	1	4	0	128	90	0	0	100
fixed	4	8	7	817206	3	1	1	1	0	1301	1	4	0	104	91	0	0	100
fixed	4	8	8	818850	2	3	3	1	0	880	1	4	0	120	92	0	0	100
fixed	4	8	9	820174	3	2	2	1	0	816	1	4	0	112	93	0	0	100
fixed	4	8	10	821935	1	4	4	1	0	709	1	4	0	128	94	0	0	100
fixed	4	8	11	823452	5	2	2	1	0	869	1	4	0	112	95	0	0	100
fixed	4	8	12	825225	4	3	3	1	0	922	1	4	0	120	96	0	0	100
fixed	4	9	1	827362	4	1	1	1	0	823	1	4	0	104	97	0	0	100
fixed	4	9	2	828664	1	2	2	1	0	992	1	4	0	112	98	0	0	100
fixed	4	9	3	830169	6	4	4	1	0	744	1	4	0	128	99	0	0	100
fixed	4	9	4	831218	2	1	1	1	0	964	1	4	0	104	100	0	0	100
fixed	4	9	5	833101	5	3	3	1	0	1060	1	4	0	120	101	0	0	100
fixed	4	9	6	834698	6	4	4	1	0	768	1	4	0	128	102	0	0	100
fixed	4	9	7	836180	3	1	1	1	0	1146	1	4	0	104	103	0	0	100
fixed	4	9	8	838320	2	3	3	1	0	1103	1	4	0	120	104	0	0	100
fixed	4	9	9	840335	3	2	2	1	0	674	1	4	0	112	105	0	0	100
fixed	4	9	10	841928	1	4	4	1	0	767	1	4	0	128	106	0	0	100
fixed	4	9	11	843648	5	2	2	1	0	790	1	4	0	112	107	0	0	100
fixed	4	9	12	845132	4	3	3	1	0	999	1	4	0	120	108	0	0	100
fixed	4	10	1	847361	4	1	1	1	0	784	1	4	0	104	109	0	0	100
fixed	4	10	2	849161	1	2	2	1	0	964	1	4	0	112	110	0	0	100
fixed	4	10	3	850759	6	4	4	1	0	704	1	4	0	128	111	0	0	100
fixed	4	10	4	852423	2	1	1	1	0	1106	1	4	0	104	112	0	0	100
fixed	4	10	5	854107	5	3	3	1	0	843	1	4	0	120	113	0	0	100
fixed	4	10	6	855571	6	4	4	1	0	741	1	4	0	128	114	0	0	100
fixed	4	10	7	857298	3	1	0	1	2	0	3	4	0	104	114	0	1	99
fixed	4	10	8	860152	2	3	3	1	0	955	1	4	0	120	115	0	1	99
fixed	4	10	9	861678	3	2	2	1	0	1010	1	4	0	112	116	0	1	99
fixed	4	10	10	863484	1	4	4	1	0	717	1	4	0	128	117	0	1	99
fixed	4	10	11	864659	5	2	2	1	0	1036	1	4	0	112	118	0	1	99
fixed	4	10	12	866023	4	3	3	1	0	1146	1	4	0	120	119	0	1	99
fixed	5	1	1	868627	4	1	1	1	0	1051	1	4	0	136	1	0	0	100
fixed	5	1	2	870380	1	2	2	1	0	1226	1	4	0	144	2	0	0	100
fixed	5	1	3	872526	6	4	4	1	0	782	1	4	0	160	3	0	0	100
fixed	5	1	4	873814	2	1	1	1	0	1368	1	4	0	136	4	0	0	100
fixed	5	1	5	875571	5	3	3	1	0	1333	1	4	0	152	5	0	0	100
fixed	5	1	6	877756	6	4	4	1	0	1129	1	4	0	160	6	0	0	100
fixed	5	1	7	879540	3	1	1	1	0	1221	1	4	0	136	7	0	0	100
fixed	5	1	8	881100	2	3	3	1	0	995	1	4	0	152	8	0	0	100
fixed	5	1	9	883115	3	2	2	1	0	662	1	4	0	144	9	0	0	100
fixed	5	1	10	884152	1	4	4	1	0	834	1	4	0	160	10	0	0	100
fixed	5	1	11	886011	5	2	2	1	0	779	1	4	0	144	11	0	0	100
fixed	5	1	12	887241	4	3	3	1	0	935	1	4	0	152	12	0	0	100
fixed	5	2	1	889397	4	1	1	1	0	700	1	4	0	136	13	0	0	100
fixed	5	2	2	890843	1	2	2	1	0	935	1	4	0	144	14	0	0	100
fixed	5	2	3	892236	6	4	4	1	0	731	1	4	0	160	15	0	0	100
fixed	5	2	4	893302	2	1	1	1	0	1351	1	4	0	136	16	0	0	100
fixed	5	2	5	894998	5	3	3	1	0	774	1	4	0	152	17	0	0	100
fixed	5	2	6	896578	6	4	4	1	0	684	1	4	0	160	18	0	0	100
fixed	5	2	7	898235	3	1	1	1	0	877	1	4	0	136	19	0	0	100
fixed	5	2	8	899583	2	3	3	1	0	949	1	4	0	152	20	0	0	100
fixed	5	2	9	901444	3	2	2	1	0	757	1	4	0	144	21	0	0	100
fixed	5	2	10	902652	1	4	4	1	0	866	1	4	0	160	22	0	0	100
fixed	5	2	11	904089	5	2	2	1	0	917	1	4	0	144	23	0	0	100
fixed	5	2	12	905868	4	3	3	1	0	1042	1	4	0	152	24	0	0	100
fixed	5	3	1	908160	4	1	1	1	0	841	1	4	0	136	25	0	0	100
fixed	5	3	2	909942	1	2	2	1	0	1062	1	4	0	144	26	0	0	100
fixed	5	3	3	911333	6	4	4	1	0	882	1	4	0	160	27	0	0	100
fixed	5	3	4	912671	2	1	1	1	0	890	1	4	0	136	28	0	0	100
fixed	5	3	5	914108	5	3	3	1	0	917	1	4	0	152	29	0	0	100
fixed	5	3	6	915412	6	4	4	1	0	806	1	4	0	160	30	0	0	100
fixed	5	3	7	916879	3	1	1	1	0	1071	1	4	0	136	31	0	0	100
fixed	5	3	8	918345	2	3	3	1	0	1498	1	4	0	152	32	0	0	100
fixed	5	3	9	920229	3	2	2	1	0	754	1	4	0	144	33	0	0	100
fixed	5	3	10	921502	1	4	4	1	0	972	1	4	0	160	34	0	0	100
fixed	5	3	11	923231	5	2	2	1	0	915	1	4	0	144	35	0	0	100
fixed	5	3	12	925069	4	3	3	1	0	925	1	4	0	152	36	0	0	100
fixed	5	4	1	927056	4	1	1	1	0	904	1	4	0	136	37	0	0	100
fixed	5	4	2	928385	1	2	2	1	0	1025	1	4	0	144	38	0	0	100
fixed	5	4	3	930177	6	4	4	1	0	965	1	4	0	160	39	0	0	100
fixed	5	4	4	931794	2	1	1	1	0	1104	1	4	0	136	40	0	0	100
fixed	5	4	5	933833	5	3	3	1	0	1258	1	4	0	152	41	0	0	100
fixed	5	4	6	935796	6	4	4	1	0	750	1	4	0	160	42	0	0	100
fixed	5	4	7	937201	3	1	1	1	0	875	1	4	0	136	43	0	0	100
fixed	5	4	8	939073	2	3	3	1	0	1476	1	4	0	152	44	0	0	100
fixed	5	4	9	940956	3	2	2	1	0	548	1	4	0	144	45	0	0	100
fixed	5	4	10	942140	1	4	4	1	0	682	1	4	0	160	46	0	0	100
fixed	5	4	11	943420	5	2	2	1	0	748	1	4	0	144	47	0	0	100
fixed	5	4	12	944541	4	3	3	1	0	1028	1	4	0	152	48	0	0	100
fixed	5	5	1	946470	4	1	1	1	0	698	1	4	0	136	49	0	0	100
fixed	5	5	2	948108	1	2	2	1	0	1149	1	4	0	144	50	0	0	100
fixed	5	5	3	949583	6	4	4	1	0	975	1	4	0	160	51	0	0	100
fixed	5	5	4	951013	2	1	1	1	0	850	1	4	0	136	52	0	0	100
fixed	5	5	5	952544	5	3	3	1	0	897	1	4	0	152	53	0	0	100
fixed	5	5	6	954377	6	4	4	1	0	819	1	4	0	160	54	0	0	100
fixed	5	5	7	955526	3	1	1	1	0	1043	1	4	0	136	55	0	0	100
fixed	5	5	8	957339	2	3	3	1	0	1126	1	4	0	152	56	0	0	100
fixed	5	5	9	958979	3	2	2	1	0	777	1	4	0	144	57	0	0	100
fixed	5	5	10	960279	1	4	4	1	0	962	1	4	0	160	58	0	0	100
fixed	5	5	11	961979	5	2	2	1	0	945	1	4	0	144	59	0	0	100
fixed	5	5	12	963776	4	3	3	1	0	966	1	4	0	152	60	0	0	100
fixed	5	6	1	965851	4	1	1	1	0	693	1	4	0	136	61	0	0	100
fixed	5	6	2	967197	1	2	2	1	0	941	1	4	0	144	62	0	0	100
fixed	5	6	3	968815	6	4	4	1	0	688	1	4	0	160	63	0	0	100
fixed	5	6	4	970470	2	1	1	1	0	1018	1	4	0	136	64	0	0	100
fixed	5	6	5	972222	5	3	3	1	0	944	1	4	0	152	65	0	0	100
fixed	5	6	6	973522	6	4	4	1	0	672	1	4	0	160	66	0	0	100
fixed	5	6	7	974597	3	1	1	1	0	1059	1	4	0	136	67	0	0	100
fixed	5	6	8	976464	2	3	3	1	0	892	1	4	0	152	68	0	0	100
fixed	5	6	9	978237	3	2	2	1	0	745	1	4	0	144	69	0	0	100
fixed	5	6	10	979488	1	4	4	1	0	756	1	4	0	160	70	0	0	100
fixed	5	6	11	980603	5	2	2	1	0	1020	1	4	0	144	71	0	0	100
fixed	5	6	12	981989	4	3	3	1	0	946	1	4	0	152	72	0	0	100
fixed	5	7	1	983812	4	1	1	1	0	701	1	4	0	136	73	0	0	100
fixed	5	7	2	985513	1	2	2	1	0	925	1	4	0	144	74	0	0	100
fixed	5	7	3	986841	6	4	4	1	0	804	1	4	0	160	75	0	0	100
fixed	5	7	4	988168	2	1	1	1	0	949	1	4	0	136	76	0	0	100
fixed	5	7	5	989601	5	3	3	1	0	1152	1	4	0	152	77	0	0	100
fixed	5	7	6	991358	6	4	4	1	0	677	1	4	0	160	78	0	0	100
fixed	5	7	7	992792	3	1	1	1	0	793	1	4	0	136	79	0	0	100
fixed	5	7	8	993889	2	3	3	1	0	1242	1	4	0	152	80	0	0	100
fixed	5	7	9	996047	3	2	2	1	0	935	1	4	0	144	81	0	0	100
fixed	5	7	10	997264	1	4	4	1	0	1075	1	4	0	160	82	0	0	100
fixed	5	7	11	998838	5	2	2	1	0	1104	1	4	0	144	83	0	0	100
fixed	5	7	12	1000514	4	3	3	1	0	930	1	4	0	152	84	0	0	100
fixed	5	8	1	1002424	4	1	1	1	0	896	1	4	0	136	85	0	0	100
fixed	5	8	2	1003829	1	2	2	1	0	1141	1	4	0	144	86	0	0	100
fixed	5	8	3	1005675	6	4	4	1	0	903	1	4	0	160	87	0	0	100
fixed	5	8	4	1007322	2	1	1	1	0	937	1	4	0	136	88	0	0	100
fixed	5	8	5	1008568	5	3	3	1	0	1076	1	4	0	152	89	0	0	100
fixed	5	8	6	1009999	6	4	4	1	0	960	1	4	0	160	90	0	0	100
fixed	5	8	7	1011341	3	1	1	1	0	1167	1	4	0	136	91	0	0	100
fixed	5	8	8	1013430	2	3	3	1	0	1255	1	4	0	152	92	0	0	100
fixed	5	8	9	1015210	3	2	2	1	0	715	1	4	0	144	93	0	0	100
fixed	5	8	10	1016683	1	4	4	1	0	677	1	4	0	160	94	0	0	100
fixed	5	8	11	1018062	5	2	2	1	0	1218	1	4	0	144	95	0	0	100
fixed	5	8	12	1019614	4	3	3	1	0	880	1	4	0	152	96	0	0	100
fixed	5	9	1	1021555	4	1	1	1	0	950	1	4	0	136	97	0	0	100
fixed	5	9	2	1023345	1	2	2	1	0	1042	1	4	0	144	98	0	0	100
fixed	5	9	3	1025162	6	4	4	1	0	845	1	4	0	160	99	0	0	100
fixed	5	9	4	1026428	2	1	1	1	0	1160	1	4	0	136	100	0	0	100
fixed	5	9	5	1028240	5	3	3	1	0	891	1	4	0	152	101	0	0	100
fixed	5	9	6	1029771	6	4	4	1	0	1362	1	4	0	160	102	0	0	100
fixed	5	9	7	1031875	3	1	1	1	0	1105	1	4	0	136	103	0	0	100
fixed	5	9	8	1033887	2	3	3	1	0	836	1	4	0	152	104	0	0	100
fixed	5	9	9	1035171	3	2	2	1	0	589	1	4	0	144	105	0	0	100
fixed	5	9	10	1036162	1	4	4	1	0	787	1	4	0	160	106	0	0	100
fixed	5	9	11	1037481	5	2	2	1	0	868	1	4	0	144	107	0	0	100
fixed	5	9	12	1038659	4	3	3	1	0	922	1	4	0	152	108	0	0	100
fixed	5	10	1	1040351	4	1	1	1	0	650	1	4	0	136	109	0	0	100
fixed	5	10	2	1041918	1	2	2	1	0	888	1	4	0	144	110	0	0	100
fixed	5	10	3	1043826	6	4	4	1	0	831	1	4	0	160	111	0	0	100
fixed	5	10	4	1045459	2	1	1	1	0	1098	1	4	0	136	112	0	0	100
fixed	5	10	5	1046944	5	3	3	1	0	939	1	4	0	152	113	0	0	100
fixed	5	10	6	1048265	6	4	4	1	0	723	1	4	0	160	114	0	0	100
fixed	5	10	7	1050020	3	1	1	1	0	1033	1	4	0	136	115	0	0	100
fixed	5	10	8	1051401	2	3	3	1	0	1174	1	4	0	152	116	0	0	100
fixed	5	10	9	1053039	3	2	2	1	0	1009	1	4	0	144	117	0	0	100
fixed	5	10	10	1054450	1	4	4	1	0	733	1	4	0	160	118	0	0	100
fixed	5	10	11	1055852	5	2	2	1	0	834	1	4	0	144	119	0	0	100
fixed	5	10	12	1057616	4	3	3	1	0	927	1	4	0	152	120	0	0	100
random	6	1	1	1153960	6	1	1	1	0	1310	1	4	0	168	1	0	0	100
random	6	1	2	1156151	4	4	4	1	0	833	1	4	0	192	2	0	0	100
random	6	1	3	1157525	2	2	2	1	0	855	1	4	0	176	3	0	0	100
random	6	1	4	1159047	3	3	3	1	0	535	1	4	0	184	4	0	0	100
random	6	1	5	1160155	5	2	2	1	0	992	1	4	0	176	5	0	0	100
random	6	1	6	1162051	1	4	4	1	0	767	1	4	0	192	6	0	0	100
random	6	1	7	1163820	6	1	1	1	0	852	1	4	0	168	7	0	0	100
random	6	1	8	1165444	2	3	3	1	0	984	1	4	0	184	8	0	0	100
random	6	1	9	1166742	4	2	2	1	0	736	1	4	0	176	9	0	0	100
random	6	1	10	1167974	1	1	1	1	0	829	1	4	0	168	10	0	0	100
random	6	1	11	1169510	5	4	4	1	0	692	1	4	0	192	11	0	0	100
random	6	1	12	1170996	3	3	3	1	0	1021	1	4	0	184	12	0	0	100
random	6	1	13	1172859	5	2	2	1	0	1021	1	4	0	176	13	0	0	100
random	6	1	14	1174440	1	4	4	1	0	835	1	4	0	192	14	0	0	100
random	6	1	15	1175682	3	1	1	1	0	710	1	4	0	168	15	0	0	100
random	6	1	16	1177289	4	3	3	1	0	1050	1	4	0	184	16	0	0	100
random	6	1	17	1178899	6	4	4	1	0	798	1	4	0	192	17	0	0	100
random	6	1	18	1180475	2	1	1	1	0	971	1	4	0	168	18	0	0	100
random	6	1	19	1181899	5	3	3	1	0	991	1	4	0	184	19	0	0	100
random	6	1	20	1183482	2	2	2	1	0	916	1	4	0	176	20	0	0	100
random	6	1	21	1185402	3	3	3	1	0	883	1	4	0	184	21	0	0	100
random	6	1	22	1186598	6	1	1	1	0	984	1	4	0	168	22	0	0	100
random	6	1	23	1188102	4	2	2	1	0	864	1	4	0	176	23	0	0	100
random	6	1	24	1189471	1	4	4	1	0	686	1	4	0	192	24	0	0	100
random	6	1	25	1191070	4	3	3	1	0	1186	1	4	0	184	25	0	0	100
random	6	1	26	1193128	2	1	1	1	0	1123	1	4	0	168	26	0	0	100
random	6	1	27	1195267	5	2	2	1	0	936	1	4	0	176	27	0	0	100
random	6	1	28	1197071	6	4	4	1	0	1276	1	4	0	192	28	0	0	100
random	6	1	29	1198864	1	3	3	1	0	1320	1	4	0	184	29	0	0	100
random	6	1	30	1200724	5	2	2	1	0	674	1	4	0	176	30	0	0	100
random	6	1	31	1201878	2	1	1	1	0	1088	1	4	0	168	31	0	0	100
random	6	1	32	1203540	3	3	3	1	0	1074	1	4	0	184	32	0	0	100
random	6	1	33	1205233	6	4	4	1	0	699	1	4	0	192	33	0	0	100
random	6	1	34	1206420	4	2	2	1	0	760	1	4	0	176	34	0	0	100
random	6	1	35	1207808	3	4	4	1	0	758	1	4	0	192	35	0	0	100
random	6	1	36	1208875	1	1	1	1	0	1144	1	4	0	168	36	0	0	100
random	6	1	37	1210585	3	4	4	1	0	848	1	4	0	192	37	0	0	100
random	6	1	38	1212223	5	3	3	1	0	1082	1	4	0	184	38	0	0	100
random	6	1	39	1213783	6	1	1	1	0	1232	1	4	0	168	39	0	0	100
random	6	1	40	1215538	1	2	2	1	0	1358	1	4	0	176	40	0	0	100
random	6	1	41	1217844	2	3	3	1	0	820	1	4	0	184	41	0	0	100
random	6	1	42	1218986	4	4	4	1	0	772	1	4	0	192	42	0	0	100
random	6	1	43	1220512	1	2	2	1	0	923	1	4	0	176	43	0	0	100
random	6	1	44	1222308	6	3	3	1	0	879	1	4	0	184	44	0	0	100
random	6	1	45	1224026	3	1	1	1	0	519	1	4	0	168	45	0	0	100
random	6	1	46	1225519	4	4	4	1	0	896	1	4	0	192	46	0	0	100
random	6	1	47	1227405	2	2	2	1	0	1048	1	4	0	176	47	0	0	100
random	6	1	48	1229054	5	1	1	1	0	1194	1	4	0	168	48	0	0	100
random	6	1	49	1230801	2	3	3	1	0	1263	1	4	0	184	49	0	0	100
random	6	1	50	1232587	3	1	1	1	0	1028	1	4	0	168	50	0	0	100
random	6	1	51	1234267	1	4	4	1	0	949	1	4	0	192	51	0	0	100
random	6	1	52	1235800	5	3	3	1	0	1420	1	4	0	184	52	0	0	100
random	6	1	53	1237667	3	2	2	1	0	732	1	4	0	176	53	0	0	100
random	6	1	54	1239372	6	4	4	1	0	756	1	4	0	192	54	0	0	100
random	6	1	55	1240873	4	2	2	1	0	805	1	4	0	176	55	0	0	100
random	6	1	56	1242540	1	1	1	1	0	887	1	4	0	168	56	0	0	100
random	6	1	57	1244078	5	4	4	1	0	829	1	4	0	192	57	0	0	100
random	6	1	58	1245224	2	1	1	1	0	1277	1	4	0	168	58	0	0	100
random	6	1	59	1246981	6	2	2	1	0	1098	1	4	0	176	59	0	0	100
random	6	1	60	1248800	4	3	3	1	0	861	1	4	0	184	60	0	0	100
random	6	1	61	1250566	1	2	2	1	0	1354	1	4	0	176	61	0	0	100
random	6	1	62	1252793	6	4	4	1	0	756	1	4	0	192	62	0	0	100
random	6	1	63	1253999	4	1	1	1	0	1137	1	4	0	168	63	0	0	100
random	6	1	64	1256145	2	2	2	1	0	1510	1	4	0	176	64	0	0	100
random	6	1	65	1258611	4	3	3	1	0	862	1	4	0	184	65	0	0	100
random	6	1	66	1260069	3	1	1	1	0	760	1	4	0	168	66	0	0	100
random	6	1	67	1261298	1	3	3	1	0	1412	1	4	0	184	67	0	0	100
random	6	1	68	1263522	5	4	4	1	0	710	1	4	0	192	68	0	0	100
random	6	1	69	1265170	2	2	2	1	0	768	1	4	0	176	69	0	0	100
random	6	1	70	1266952	3	1	1	1	0	837	1	4	0	168	70	0	0	100
random	6	1	71	1268475	5	4	4	1	0	788	1	4	0	192	71	0	0	100
random	6	1	72	1270096	6	3	3	1	0	1015	1	4	0	184	72	0	0	100
random	6	1	73	1272002	2	1	1	1	0	1302	1	4	0	168	73	0	0	100
random	6	1	74	1273887	5	3	3	1	0	1183	1	4	0	184	74	0	0	100
random	6	1	75	1275382	1	4	4	1	0	1239	1	4	0	192	75	0	0	100
random	6	1	76	1277328	6	2	2	1	0	1093	1	4	0	176	76	0	0	100
random	6	1	77	1278866	2	1	1	1	0	1212	1	4	0	168	77	0	0	100
random	6	1	78	1280453	4	4	4	1	0	745	1	4	0	192	78	0	0	100
random	6	1	79	1281954	3	2	2	1	0	929	1	4	0	176	79	0	0	100
random	6	1	80	1283393	4	3	3	1	0	940	1	4	0	184	80	0	0	100
random	6	1	81	1284996	1	4	4	1	0	904	1	4	0	192	81	0	0	100
random	6	1	82	1286416	5	1	1	1	0	1108	1	4	0	168	82	0	0	100
random	6	1	83	1288351	3	2	2	1	0	1098	1	4	0	176	83	0	0	100
random	6	1	84	1290390	6	3	3	1	0	900	1	4	0	184	84	0	0	100
random	6	1	85	1292202	3	2	2	1	0	1055	1	4	0	176	85	0	0	100
random	6	1	86	1293874	1	3	3	1	0	1104	1	4	0	184	86	0	0	100
random	6	1	87	1295940	4	4	4	1	0	785	1	4	0	192	87	0	0	100
random	6	1	88	1297287	2	1	1	1	0	1008	1	4	0	168	88	0	0	100
random	6	1	89	1299165	6	4	4	1	0	928	1	4	0	192	89	0	0	100
random	6	1	90	1300483	3	3	3	1	0	1272	1	4	0	184	90	0	0	100
random	6	1	91	1302479	5	4	4	1	0	859	1	4	0	192	91	0	0	100
random	6	1	92	1303751	1	2	2	1	0	918	1	4	0	176	92	0	0	100
random	6	1	93	1305185	5	1	1	1	0	745	1	4	0	168	93	0	0	100
random	6	1	94	1306763	4	3	3	2	0	1118	2	4	0	184	94	0	0	100
random	6	1	95	1308691	6	1	0	1	2	0	3	4	0	168	94	0	1	99
random	6	1	96	1311604	2	2	2	1	0	873	1	4	0	176	95	0	1	99
random	6	1	97	1313287	4	3	3	1	0	1002	1	4	0	184	96	0	1	99
random	6	1	98	1315028	3	2	2	1	0	1040	1	4	0	176	97	0	1	99
random	6	1	99	1316842	6	3	3	1	0	1020	1	4	0	184	98	0	1	99
random	6	1	100	1318670	1	4	4	1	0	782	1	4	0	192	99	0	1	99
random	6	1	101	1320194	4	1	1	1	0	717	1	4	0	168	100	0	1	99
random	6	1	102	1321410	5	2	2	1	0	1058	1	4	0	176	101	0	1	99
random	6	1	103	1323023	2	4	4	1	0	950	1	4	0	192	102	0	1	99
random	6	1	104	1324913	3	1	1	1	0	941	1	4	0	168	103	0	1	99
random	6	1	105	1326231	1	3	3	1	0	1318	1	4	0	184	104	0	1	99
random	6	1	106	1328365	2	2	2	1	0	931	1	4	0	176	105	0	1	99
random	6	1	107	1329625	5	4	4	1	0	846	1	4	0	192	106	0	1	99
random	6	1	108	1331154	6	1	1	1	0	981	1	4	0	168	107	0	1	99
random	6	1	109	1332935	5	4	4	1	0	945	1	4	0	192	108	0	1	99
random	6	1	110	1334520	6	3	3	1	0	1111	1	4	0	184	109	0	1	99
random	6	1	111	1335949	2	2	2	1	0	1066	1	4	0	176	110	0	1	99
random	6	1	112	1337772	3	1	1	1	0	1045	1	4	0	168	111	0	1	99
random	6	1	113	1339763	1	2	0	1	2	0	3	4	0	176	111	0	2	98
random	6	1	114	1342778	2	3	3	1	0	1169	1	4	0	184	112	0	2	98
random	6	1	115	1344245	3	1	1	1	0	1242	1	4	0	168	113	0	2	98
random	6	1	116	1346099	4	4	4	1	0	884	1	4	0	192	114	0	2	98
random	6	1	117	1347686	6	1	1	1	0	1017	1	4	0	168	115	0	2	98
random	6	1	118	1349090	5	3	3	1	0	1133	1	4	0	184	116	0	2	98
random	6	1	119	1351210	1	4	4	1	0	764	1	4	0	192	117	0	2	98
random	6	1	120	1352592	4	2	2	1	0	697	1	4	0	176	118	0	2	98
fixed	7	1	1	1354235	4	1	1	1	0	979	1	4	0	200	1	0	0	100
fixed	7	1	2	1355996	1	2	2	1	0	1081	1	4	0	208	2	0	0	100
fixed	7	1	3	1357927	6	4	4	1	0	1079	1	4	0	224	3	0	0	100
fixed	7	1	4	1359647	2	1	1	1	0	1127	1	4	0	200	4	0	0	100
fixed	7	1	5	1361312	5	3	3	1	0	1048	1	4	0	216	5	0	0	100
fixed	7	1	6	1363342	6	4	4	1	0	713	1	4	0	224	6	0	0	100
fixed	7	1	7	1364845	3	1	1	1	0	986	1	4	0	200	7	0	0	100
fixed	7	1	8	1366221	2	3	3	1	0	1168	1	4	0	216	8	0	0	100
fixed	7	1	9	1367709	3	2	2	1	0	833	1	4	0	208	9	0	0	100
fixed	7	1	10	1369335	1	4	4	1	0	940	1	4	0	224	10	0	0	100
fixed	7	1	11	1371056	5	2	2	1	0	843	1	4	0	208	11	0	0	100
fixed	7	1	12	1372690	4	3	3	1	0	950	1	4	0	216	12	0	0	100
fixed	7	2	1	1374337	4	1	1	1	0	648	1	4	0	200	1	0	0	8
fixed	7	2	2	1375572	1	2	2	1	0	875	1	4	0	208	2	0	0	14
fixed	7	2	3	1376842	6	4	4	1	0	910	1	4	0	224	3	0	0	20
fixed	7	2	4	1378616	2	1	1	1	0	1067	1	4	0	200	4	0	0	25
fixed	7	2	5	1380201	5	3	3	1	0	1031	1	4	0	216	5	0	0	29
fixed	7	2	6	1381796	6	4	4	1	0	1124	1	4	0	224	6	0	0	33
fixed	7	2	7	1383712	3	1	1	1	0	803	1	4	0	200	7	0	0	37
fixed	7	2	8	1385237	2	3	3	1	0	1114	1	4	0	216	8	0	0	40
fixed	7	2	9	1387180	3	2	2	1	0	856	1	4	0	208	9	0	0	43
fixed	7	2	10	1388719	1	4	4	1	0	847	1	4	0	224	10	0	0	45
fixed	7	2	11	1390225	5	2	2	1	0	951	1	4	0	208	11	0	0	48
fixed	7	2	12	1392072	4	3	3	1	0	889	1	4	0	216	12	0	0	50
fixed	7	3	1	1394202	4	1	1	1	0	518	1	4	0	200	1	0	0	4
fixed	7	3	2	1395653	1	2	2	1	0	986	1	4	0	208	2	0	0	8
fixed	7	3	3	1397449	6	4	4	1	0	821	1	4	0	224	3	0	0	11
fixed	7	3	4	1399154	2	1	1	1	0	1117	1	4	0	200	4	0	0	14
fixed	7	3	5	1400957	5	3	3	1	0	977	1	4	0	216	5	0	0	17
fixed	7	3	6	1402379	6	4	4	1	0	892	1	4	0	224	6	0	0	20
fixed	7	3	7	1404278	3	1	1	1	0	1004	1	4	0	200	7	0	0	23
fixed	7	3	8	1406202	2	3	3	1	0	1034	1	4	0	216	8	0	0	25
fixed	7	3	9	1408084	3	2	2	1	0	642	1	4	0	208	9	0	0	27
fixed	7	3	10	1409273	1	4	4	1	0	696	1	4	0	224	10	0	0	29
fixed	7	3	11	1410341	5	2	2	1	0	971	1	4	0	208	11	0	0	31
fixed	7	3	12	1411795	4	3	3	1	0	1045	1	4	0	216	12	0	0	33
fixed	7	4	1	1414034	4	1	1	1	0	854	1	4	0	200	1	0	0	3
fixed	7	4	2	1415357	1	2	2	1	0	967	1	4	0	208	2	0	0	5
fixed	7	4	3	1416894	6	4	4	1	0	693	1	4	0	224	3	0	0	8
fixed	7	4	4	1418606	2	1	1	1	0	1021	1	4	0	200	4	0	0	10
fixed	7	4	5	1420192	5	3	3	1	0	914	1	4	0	216	5	0	0	12
fixed	7	4	6	1421659	6	4	4	1	0	764	1	4	0	224	6	0	0	14
fixed	7	4	7	1422843	3	1	1	1	0	993	1	4	0	200	7	0	0	16
fixed	7	4	8	1424798	2	3	3	1	0	1367	1	4	0	216	8	0	0	18
fixed	7	4	9	1426547	3	2	2	1	0	708	1	4	0	208	9	0	0	20
fixed	7	4	10	1427757	1	4	4	1	0	777	1	4	0	224	10	0	0	22
fixed	7	4	11	1429166	5	2	2	1	0	1086	1	4	0	208	11	0	0	23
fixed	7	4	12	1431286	4	3	3	1	0	884	1	4	0	216	12	0	0	25
fixed	7	5	1	1433265	4	1	1	1	0	776	1	4	0	200	1	0	0	2
fixed	7	5	2	1435080	1	2	2	1	0	1483	1	4	0	208	2	0	0	4
fixed	7	5	3	1436962	6	4	4	1	0	636	1	4	0	224	3	0	0	6
fixed	7	5	4	1438605	2	1	1	1	0	790	1	4	0	200	4	0	0	8
fixed	7	5	5	1440048	5	3	3	1	0	457	1	4	0	216	5	0	0	9
fixed	7	5	6	1441026	6	4	4	1	0	776	1	4	0	224	6	0	0	11
fixed	7	5	7	1442347	3	1	1	1	0	1016	1	4	0	200	7	0	0	13
fixed	7	5	8	1443920	2	3	3	1	0	893	1	4	0	216	8	0	0	14
fixed	7	5	9	1445638	3	2	2	1	0	748	1	4	0	208	9	0	0	16
fixed	7	5	10	1446834	1	4	4	1	0	1169	1	4	0	224	10	0	0	17
fixed	7	5	11	1449021	5	2	2	1	0	1093	1	4	0	208	11	0	0	19
fixed	7	5	12	1450775	4	3	3	1	0	1202	1	4	0	216	12	0	0	20
fixed	7	6	1	1452763	4	1	1	1	0	622	1	4	0	200	1	0	0	2
fixed	7	6	2	1453691	1	2	2	1	0	1367	1	4	0	208	2	0	0	3
fixed	7	6	3	1456028	6	4	4	1	0	676	1	4	0	224	3	0	0	5
fixed	7	6	4	1457418	2	1	1	1	0	865	1	4	0	200	4	0	0	6
fixed	7	6	5	1458620	5	3	3	1	0	1054	1	4	0	216	5	0	0	8
fixed	7	6	6	1460259	6	4	4	1	0	857	1	4	0	224	6	0	0	9
fixed	7	6	7	1461597	3	1	1	1	0	952	1	4	0	200	7	0	0	10
fixed	7	6	8	1463199	2	3	0	1	2	0	3	4	0	216	7	0	1	10
fixed	7	6	9	1466673	3	2	2	1	0	721	1	4	0	208	8	0	1	12
fixed	7	6	10	1468189	1	4	4	1	0	729	1	4	0	224	9	0	1	13
fixed	7	6	11	1469435	5	2	2	1	0	892	1	4	0	208	10	0	1	14
fixed	7	6	12	1471134	4	3	3	1	0	852	1	4	0	216	11	0	1	15
fixed	7	7	1	1472895	4	1	1	1	0	689	1	4	0	200	1	0	0	1
fixed	7	7	2	1474181	1	2	2	1	0	939	1	4	0	208	2	0	0	3
fixed	7	7	3	1476126	6	4	4	1	0	969	1	4	0	224	3	0	0	4
fixed	7	7	4	1477525	2	1	1	1	0	1173	1	4	0	200	4	0	0	5
fixed	7	7	5	1479232	5	3	3	1	0	1125	1	4	0	216	5	0	0	6
fixed	7	7	6	1480689	6	4	4	1	0	808	1	4	0	224	6	0	0	8
fixed	7	7	7	1482071	3	1	1	1	0	997	1	4	0	200	7	0	0	9
fixed	7	7	8	1483543	2	3	3	1	0	887	1	4	0	216	8	0	0	10
fixed	7	7	9	1485049	3	2	2	1	0	727	1	4	0	208	9	0	0	11
fixed	7	7	10	1486589	1	4	4	1	0	1014	1	4	0	224	10	0	0	12
fixed	7	7	11	1488508	5	2	2	1	0	868	1	4	0	208	11	0	0	13
fixed	7	7	12	1490227	4	3	3	1	0	820	1	4	0	216	12	0	0	14
fixed	7	8	1	1492343	4	1	1	1	0	778	1	4	0	200	1	0	0	1
fixed	7	8	2	1494138	1	2	2	1	0	854	1	4	0	208	2	0	0	2
fixed	7	8	3	1495458	6	4	4	1	0	934	1	4	0	224	3	0	0	3
fixed	7	8	4	1497163	2	1	1	1	0	934	1	4	0	200	4	0	0	5
fixed	7	8	5	1498420	5	3	3	1	0	969	1	4	0	216	5	0	0	6
fixed	7	8	6	1500360	6	4	4	1	0	1183	1	4	0	224	6	0	0	7
fixed	7	8	7	1501996	3	1	1	1	0	1001	1	4	0	200	7	0	0	8
fixed	7	8	8	1503700	2	3	3	1	0	913	1	4	0	216	8	0	0	9
fixed	7	8	9	1504902	3	2	2	1	0	934	1	4	0	208	9	0	0	10
fixed	7	8	10	1506165	1	4	4	1	0	800	1	4	0	224	10	0	0	11
fixed	7	8	11	1507842	5	2	2	1	0	946	1	4	0	208	11	0	0	12
fixed	7	8	12	1509067	4	3	3	1	0	965	1	4	0	216	12	0	0	13
fixed	7	9	1	1510838	4	1	1	1	0	698	1	4	0	200	1	0	0	1
fixed	7	9	2	1512300	1	2	2	1	0	997	1	4	0	208	2	0	0	2
fixed	7	9	3	1513875	6	4	4	1	0	818	1	4	0	224	3	0	0	3
fixed	7	9	4	1515440	2	1	1	1	0	1208	1	4	0	200	4	0	0	4
fixed	7	9	5	1517232	5	3	3	1	0	988	1	4	0	216	5	0	0	5
fixed	7	9	6	1519113	6	4	4	1	0	1140	1	4	0	224	6	0	0	6
fixed	7	9	7	1520797	3	1	1	1	0	1004	1	4	0	200	7	0	0	7
fixed	7	9	8	1522500	2	3	3	1	0	900	1	4	0	216	8	0	0	8
fixed	7	9	9	1524004	3	2	2	1	0	669	1	4	0	208	9	0	0	9
fixed	7	9	10	1525717	1	4	4	1	0	1132	1	4	0	224	10	0	0	9
fixed	7	9	11	1527519	5	2	2	1	0	736	1	4	0	208	11	0	0	10
fixed	7	9	12	1528930	4	3	3	1	0	836	1	4	0	216	12	0	0	11
fixed	7	10	1	1530470	4	1	1	1	0	907	1	4	0	200	1	0	0	1
fixed	7	10	2	1531839	1	2	2	1	0	993	1	4	0	208	2	0	0	2
fixed	7	10	3	1533561	6	4	4	1	0	712	1	4	0	224	3	0	0	3
fixed	7	10	4	1534781	2	1	1	1	0	1252	1	4	0	200	4	0	0	4
fixed	7	10	5	1536934	5	3	3	1	0	1369	1	4	0	216	5	0	0	4
fixed	7	10	6	1538799	6	4	4	1	0	706	1	4	0	224	6	0	0	5
fixed	7	10	7	1540052	3	1	1	1	0	861	1	4	0	200	7	0	0	6
fixed	7	10	8	1541589	2	3	3	1	0	940	1	4	0	216	8	0	0	7
fixed	7	10	9	1543447	3	2	2	1	0	854	1	4	0	208	9	0	0	8
fixed	7	10	10	1544836	1	4	4	1	0	747	1	4	0	224	10	0	0	8
fixed	7	10	11	1546207	5	2	2	1	0	784	1	4	0	208	11	0	0	9
fixed	7	10	12	1547951	4	3	3	1	0	831	1	4	0	216	12	0	0	10
