type	block	sequ.	trial	time	Pos.	Color	Button	NumRsp	Resp_1	RT_1	R_Code	Resp_2	RT_2	Trigg.	n_hit	n_inc	n_miss	score_%

random	1	1	1	6255	6	1	1	1	0	903	1	4	0	8	1	0	0	100
random	1	1	2	7928	4	4	4	1	0	840	1	4	0	32	2	0	0	100
random	1	1	3	9409	2	2	2	1	0	994	1	4	0	16	3	0	0	100
random	1	1	4	11433	3	3	3	1	0	476	1	4	0	24	4	0	0	100
random	1	1	5	12621	5	2	2	1	0	1065	1	4	0	16	5	0	0	100
random	1	1	6	14313	1	4	4	1	0	866	1	4	0	32	6	0	0	100
random	1	1	7	15780	6	1	1	1	0	1003	1	4	0	8	7	0	0	100
random	1	1	8	17454	2	3	3	1	0	893	1	4	0	24	8	0	0	100
random	1	1	9	18719	4	2	2	1	0	943	1	4	0	16	9	0	0	100
random	1	1	10	20145	1	1	1	1	0	1075	1	4	0	8	10	0	0	100
random	1	1	11	22101	5	4	4	1	0	560	1	4	0	32	11	0	0	100
random	1	1	12	23222	3	3	3	1	0	1136	1	4	0	24	12	0	0	100
random	1	1	13	25521	5	2	2	1	0	615	1	4	0	16	13	0	0	100
random	1	1	14	27155	1	4	4	1	0	898	1	4	0	32	14	0	0	100
random	1	1	15	28691	3	1	1	1	0	849	1	4	0	8	15	0	0	100
random	1	1	16	30205	4	3	0	1	2	0	3	4	0	24	15	0	1	94
random	1	1	17	33739	6	4	4	1	0	827	1	4	0	32	16	0	1	94
random	1	1	18	35078	2	1	1	1	0	866	1	4	0	8	17	0	1	94
random	1	1	19	36837	5	3	3	1	0	912	1	4	0	24	18	0	1	95
random	1	1	20	38589	2	2	2	1	0	645	1	4	0	16	19	0	1	95
random	1	1	21	39873	3	3	3	1	0	1127	1	4	0	24	20	0	1	95
random	1	1	22	41831	6	1	1	1	0	884	1	4	0	8	21	0	1	95
random	1	1	23	43523	4	2	2	1	0	901	1	4	0	16	22	0	1	96
random	1	1	24	45102	1	4	4	1	0	737	1	4	0	32	23	0	1	96
random	1	1	25	47074	4	3	3	1	0	1094	1	4	0	24	24	0	1	96
random	1	1	26	48626	2	1	1	1	0	852	1	4	0	8	25	0	1	96
random	1	1	27	49998	5	2	2	1	0	882	1	4	0	16	26	0	1	96
random	1	1	28	51236	6	4	4	1	0	830	1	4	0	32	27	0	1	96
random	1	1	29	52429	1	3	3	1	0	1163	1	4	0	24	28	0	1	97
random	1	1	30	54412	5	2	2	1	0	935	1	4	0	16	29	0	1	97
random	1	1	31	55860	2	1	1	1	0	754	1	4	0	8	30	0	1	97
random	1	1	32	57311	3	3	3	1	0	997	1	4	0	24	31	0	1	97
random	1	1	33	58904	6	4	4	1	0	681	1	4	0	32	32	0	1	97
random	1	1	34	60575	4	2	2	1	0	786	1	4	0	16	33	0	1	97
random	1	1	35	61855	3	4	4	1	0	1028	1	4	0	32	34	0	1	97
random	1	1	36	63604	1	1	1	1	0	834	1	4	0	8	35	0	1	97
random	1	1	37	65704	3	4	4	1	0	1081	1	4	0	32	36	0	1	97
random	1	1	38	67413	5	3	3	1	0	1033	1	4	0	24	37	0	1	97
random	1	1	39	68867	6	1	1	1	0	867	1	4	0	8	38	0	1	97
random	1	1	40	70484	1	2	2	1	0	774	1	4	0	16	39	0	1	98
random	1	1	41	71697	2	3	3	1	0	1140	1	4	0	24	40	0	1	98
random	1	1	42	73270	4	4	4	1	0	816	1	4	0	32	41	0	1	98
random	1	1	43	74836	1	2	2	1	0	1110	1	4	0	16	42	0	1	98
random	1	1	44	76502	6	3	3	1	0	816	1	4	0	24	43	0	1	98
random	1	1	45	78253	3	1	1	1	0	605	1	4	0	8	44	0	1	98
random	1	1	46	79335	4	4	4	1	0	831	1	4	0	32	45	0	1	98
random	1	1	47	81162	2	2	2	1	0	786	1	4	0	16	46	0	1	98
random	1	1	48	82275	5	1	1	1	0	963	1	4	0	8	47	0	1	98
random	1	1	49	84400	2	3	3	1	0	969	1	4	0	24	48	0	1	98
random	1	1	50	86108	3	1	1	1	0	849	1	4	0	8	49	0	1	98
random	1	1	51	87250	1	4	4	1	0	873	1	4	0	32	50	0	1	98
random	1	1	52	88778	5	3	3	1	0	936	1	4	0	24	51	0	1	98
random	1	1	53	90147	3	2	2	1	0	854	1	4	0	16	52	0	1	98
random	1	1	54	91489	6	4	4	1	0	789	1	4	0	32	53	0	1	98
random	1	1	55	92803	4	2	0	1	2	0	3	4	0	16	53	0	2	96
random	1	1	56	96182	1	1	1	1	0	1030	1	4	0	8	54	0	2	96
random	1	1	57	97862	5	4	4	1	0	839	1	4	0	32	55	0	2	96
random	1	1	58	99040	2	1	1	1	0	1253	1	4	0	8	56	0	2	97
random	1	1	59	101129	6	2	2	1	0	877	1	4	0	16	57	0	2	97
random	1	1	60	102473	4	3	3	1	0	788	1	4	0	24	58	0	2	97
random	1	1	61	104499	1	2	2	1	0	902	1	4	0	16	59	0	2	97
random	1	1	62	106429	6	4	4	1	0	844	1	4	0	32	60	0	2	97
random	1	1	63	107778	4	1	1	1	0	755	1	4	0	8	61	0	2	97
random	1	1	64	109357	2	2	2	1	0	1000	1	4	0	16	62	0	2	97
random	1	1	65	110632	4	3	3	1	0	834	1	4	0	24	63	0	2	97
random	1	1	66	112088	3	1	1	1	0	724	1	4	0	8	64	0	2	97
random	1	1	67	113111	1	3	3	1	0	977	1	4	0	24	65	0	2	97
random	1	1	68	114868	5	4	4	1	0	767	1	4	0	32	66	0	2	97
random	1	1	69	116208	2	2	2	1	0	870	1	4	0	16	67	0	2	97
random	1	1	70	118000	3	1	1	1	0	882	1	4	0	8	68	0	2	97
random	1	1	71	119435	5	4	4	1	0	773	1	4	0	32	69	0	2	97
random	1	1	72	120904	6	3	3	1	0	1303	1	4	0	24	70	0	2	97
random	1	1	73	123462	2	1	1	1	0	1394	1	4	0	8	71	0	2	97
random	1	1	74	125319	5	3	3	1	0	908	1	4	0	24	72	0	2	97
random	1	1	75	126934	1	4	4	1	0	840	1	4	0	32	73	0	2	97
random	1	1	76	128610	6	2	2	1	0	769	1	4	0	16	74	0	2	97
random	1	1	77	130320	2	1	1	1	0	1368	1	4	0	8	75	0	2	97
random	1	1	78	132259	4	4	4	1	0	790	1	4	0	32	76	0	2	97
random	1	1	79	133929	3	2	2	1	0	767	1	4	0	16	77	0	2	97
random	1	1	80	135686	4	3	3	1	0	509	1	4	0	24	78	0	2	98
random	1	1	81	137156	1	4	4	1	0	975	1	4	0	32	79	0	2	98
random	1	1	82	138779	5	1	1	1	0	834	1	4	0	8	80	0	2	98
random	1	1	83	139922	3	2	2	1	0	897	1	4	0	16	81	0	2	98
random	1	1	84	141270	6	3	3	1	0	896	1	4	0	24	82	0	2	98
random	1	1	85	143210	3	2	2	1	0	942	1	4	0	16	83	0	2	98
random	1	1	86	144832	1	3	3	1	0	913	1	4	0	24	84	0	2	98
random	1	1	87	146153	4	4	4	1	0	1033	1	4	0	32	85	0	2	98
random	1	1	88	147613	2	1	1	1	0	756	1	4	0	8	86	0	2	98
random	1	1	89	148882	6	4	4	1	0	854	1	4	0	32	87	0	2	98
random	1	1	90	150451	3	3	3	1	0	1036	1	4	0	24	88	0	2	98
random	1	1	91	152228	5	4	4	1	0	833	1	4	0	32	89	0	2	98
random	1	1	92	153550	1	2	2	1	0	784	1	4	0	16	90	0	2	98
random	1	1	93	155127	5	1	1	1	0	581	1	4	0	8	91	0	2	98
random	1	1	94	156348	4	3	3	1	0	1234	1	4	0	24	92	0	2	98
random	1	1	95	158171	6	1	1	1	0	965	1	4	0	8	93	0	2	98
random	1	1	96	159669	2	2	2	1	0	821	1	4	0	16	94	0	2	98
random	1	1	97	161472	4	3	3	1	0	1121	1	4	0	24	95	0	2	98
random	1	1	98	163241	3	2	2	1	0	774	1	4	0	16	96	0	2	98
random	1	1	99	164717	6	3	3	1	0	959	1	4	0	24	97	0	2	98
random	1	1	100	166293	1	4	4	1	0	1013	1	4	0	32	98	0	2	98
random	1	1	101	167729	4	1	1	1	0	888	1	4	0	8	99	0	2	98
random	1	1	102	169575	5	2	2	1	0	977	1	4	0	16	100	0	2	98
random	1	1	103	171555	2	4	4	1	0	822	1	4	0	32	101	0	2	98
random	1	1	104	172901	3	1	1	1	0	1172	1	4	0	8	102	0	2	98
random	1	1	105	174748	1	3	3	1	0	887	1	4	0	24	103	0	2	98
random	1	1	106	175975	2	2	2	1	0	826	1	4	0	16	104	0	2	98
random	1	1	107	177800	5	4	4	1	0	693	1	4	0	32	105	0	2	98
random	1	1	108	179064	6	1	1	1	0	1007	1	4	0	8	106	0	2	98
random	1	1	109	180836	5	4	4	1	0	940	1	4	0	32	107	0	2	98
random	1	1	110	182421	6	3	3	1	0	1001	1	4	0	24	108	0	2	98
random	1	1	111	184190	2	2	2	1	0	679	1	4	0	16	109	0	2	98
random	1	1	112	185193	3	1	1	1	0	916	1	4	0	8	110	0	2	98
random	1	1	113	186837	1	2	2	1	0	1174	1	4	0	16	111	0	2	98
random	1	1	114	188664	2	3	3	1	0	1001	1	4	0	24	112	0	2	98
random	1	1	115	190184	3	1	1	1	0	817	1	4	0	8	113	0	2	98
random	1	1	116	191848	4	4	4	1	0	778	1	4	0	32	114	0	2	98
random	1	1	117	193513	6	1	1	1	0	996	1	4	0	8	115	0	2	98
random	1	1	118	195109	5	3	3	1	0	832	1	4	0	24	116	0	2	98
random	1	1	119	196872	1	4	4	1	0	926	1	4	0	32	117	0	2	98
random	1	1	120	198169	4	2	2	1	0	775	1	4	0	16	118	0	2	98
fixed	2	1	1	199881	4	1	1	1	0	838	1	4	0	40	1	0	0	100
fixed	2	1	2	201768	1	2	2	1	0	878	1	4	0	48	2	0	0	100
fixed	2	1	3	203558	6	4	4	1	0	698	1	4	0	64	3	0	0	100
fixed	2	1	4	204902	2	1	1	1	0	897	1	4	0	40	4	0	0	100
fixed	2	1	5	206650	5	3	3	1	0	1191	1	4	0	56	5	0	0	100
fixed	2	1	6	208862	6	4	4	1	0	642	1	4	0	64	6	0	0	100
fixed	2	1	7	210348	3	1	1	1	0	915	1	4	0	40	7	0	0	100
fixed	2	1	8	211547	2	3	3	1	0	936	1	4	0	56	8	0	0	100
fixed	2	1	9	213045	3	2	2	1	0	697	1	4	0	48	9	0	0	100
fixed	2	1	10	214750	1	4	4	1	0	961	1	4	0	64	10	0	0	100
fixed	2	1	11	216436	5	2	2	1	0	897	1	4	0	48	11	0	0	100
fixed	2	1	12	218350	4	3	3	1	0	936	1	4	0	56	12	0	0	100
fixed	2	2	1	220333	4	1	1	1	0	811	1	4	0	40	13	0	0	100
fixed	2	2	2	222024	1	2	2	1	0	948	1	4	0	48	14	0	0	100
fixed	2	2	3	223607	6	4	4	1	0	673	1	4	0	64	15	0	0	100
fixed	2	2	4	224667	2	1	1	1	0	1100	1	4	0	40	16	0	0	100
fixed	2	2	5	226456	5	3	3	1	0	960	1	4	0	56	17	0	0	100
fixed	2	2	6	228185	6	4	4	1	0	791	1	4	0	64	18	0	0	100
fixed	2	2	7	229460	3	1	1	1	0	1105	1	4	0	40	19	0	0	100
fixed	2	2	8	231434	2	3	3	1	0	870	1	4	0	56	20	0	0	100
fixed	2	2	9	232817	3	2	2	1	0	715	1	4	0	48	21	0	0	100
fixed	2	2	10	234043	1	4	4	1	0	799	1	4	0	64	22	0	0	100
fixed	2	2	11	235495	5	2	2	1	0	874	1	4	0	48	23	0	0	100
fixed	2	2	12	237360	4	3	3	1	0	930	1	4	0	56	24	0	0	100
fixed	2	3	1	239330	4	1	1	1	0	727	1	4	0	40	25	0	0	100
fixed	2	3	2	240460	1	2	2	1	0	959	1	4	0	48	26	0	0	100
fixed	2	3	3	242433	6	4	4	1	0	828	1	4	0	64	27	0	0	100
fixed	2	3	4	243891	2	1	1	1	0	1006	1	4	0	40	28	0	0	100
fixed	2	3	5	245465	5	3	3	1	0	875	1	4	0	56	29	0	0	100
fixed	2	3	6	247156	6	4	4	1	0	852	1	4	0	64	30	0	0	100
fixed	2	3	7	248320	3	1	1	1	0	722	1	4	0	40	31	0	0	100
fixed	2	3	8	249571	2	3	3	1	0	1149	1	4	0	56	32	0	0	100
fixed	2	3	9	251573	3	2	2	1	0	497	1	4	0	48	33	0	0	100
fixed	2	3	10	252559	1	4	4	1	0	943	1	4	0	64	34	0	0	100
fixed	2	3	11	254292	5	2	2	1	0	1021	1	4	0	48	35	0	0	100
fixed	2	3	12	256049	4	3	3	1	0	843	1	4	0	56	36	0	0	100
fixed	2	4	1	257892	4	1	1	1	0	605	1	4	0	40	37	0	0	100
fixed	2	4	2	258834	1	2	2	1	0	1261	1	4	0	48	38	0	0	100
fixed	2	4	3	260396	6	4	4	1	0	762	1	4	0	64	39	0	0	100
fixed	2	4	4	261805	2	1	1	1	0	927	1	4	0	40	40	0	0	100
fixed	2	4	5	263149	5	3	3	1	0	870	1	4	0	56	41	0	0	100
fixed	2	4	6	264675	6	4	4	1	0	757	1	4	0	64	42	0	0	100
fixed	2	4	7	266407	3	1	1	1	0	900	1	4	0	40	43	0	0	100
fixed	2	4	8	267905	2	3	3	1	0	1213	1	4	0	56	44	0	0	100
fixed	2	4	9	269568	3	2	2	1	0	734	1	4	0	48	45	0	0	100
fixed	2	4	10	270794	1	4	4	1	0	770	1	4	0	64	46	0	0	100
fixed	2	4	11	272400	5	2	2	1	0	814	1	4	0	48	47	0	0	100
fixed	2	4	12	273638	4	3	3	1	0	1106	1	4	0	56	48	0	0	100
fixed	2	5	1	275752	4	1	1	1	0	936	1	4	0	40	49	0	0	100
fixed	2	5	2	277459	1	2	2	1	0	1136	1	4	0	48	50	0	0	100
fixed	2	5	3	279014	6	4	4	1	0	694	1	4	0	64	51	0	0	100
fixed	2	5	4	280559	2	1	1	1	0	997	1	4	0	40	52	0	0	100
fixed	2	5	5	282140	5	3	3	1	0	970	1	4	0	56	53	0	0	100
fixed	2	5	6	283542	6	4	4	1	0	894	1	4	0	64	54	0	0	100
fixed	2	5	7	284803	3	1	1	1	0	1033	1	4	0	40	55	0	0	100
fixed	2	5	8	286657	2	3	3	1	0	1099	1	4	0	56	56	0	0	100
fixed	2	5	9	288171	3	2	2	1	0	858	1	4	0	48	57	0	0	100
fixed	2	5	10	289521	1	4	4	1	0	849	1	4	0	64	58	0	0	100
fixed	2	5	11	291224	5	2	2	1	0	913	1	4	0	48	59	0	0	100
fixed	2	5	12	292729	4	3	3	1	0	833	1	4	0	56	60	0	0	100
fixed	2	6	1	294214	4	1	1	1	0	690	1	4	0	40	61	0	0	100
fixed	2	6	2	295438	1	2	2	1	0	879	1	4	0	48	62	0	0	100
fixed	2	6	3	296747	6	4	4	1	0	783	1	4	0	64	63	0	0	100
fixed	2	6	4	298287	2	1	1	1	0	782	1	4	0	40	64	0	0	100
fixed	2	6	5	299632	5	3	3	1	0	909	1	4	0	56	65	0	0	100
fixed	2	6	6	301133	6	4	4	1	0	773	1	4	0	64	66	0	0	100
fixed	2	6	7	302616	3	1	1	1	0	798	1	4	0	40	67	0	0	100
fixed	2	6	8	304423	2	3	3	1	0	1002	1	4	0	56	68	0	0	100
fixed	2	6	9	306322	3	2	2	1	0	762	1	4	0	48	69	0	0	100
fixed	2	6	10	307919	1	4	4	1	0	846	1	4	0	64	70	0	0	100
fixed	2	6	11	309153	5	2	2	1	0	1010	1	4	0	48	71	0	0	100
fixed	2	6	12	311071	4	3	3	1	0	912	1	4	0	56	72	0	0	100
fixed	2	7	1	312576	4	1	1	1	0	792	1	4	0	40	73	0	0	100
fixed	2	7	2	314055	1	2	2	1	0	914	1	4	0	48	74	0	0	100
fixed	2	7	3	315699	6	4	4	1	0	700	1	4	0	64	75	0	0	100
fixed	2	7	4	317313	2	1	1	1	0	920	1	4	0	40	76	0	0	100
fixed	2	7	5	319107	5	3	3	1	0	820	1	4	0	56	77	0	0	100
fixed	2	7	6	320715	6	4	4	1	0	704	1	4	0	64	78	0	0	100
fixed	2	7	7	321915	3	1	1	1	0	965	1	4	0	40	79	0	0	100
fixed	2	7	8	323615	2	3	3	1	0	1157	1	4	0	56	80	0	0	100
fixed	2	7	9	325398	3	2	2	1	0	706	1	4	0	48	81	0	0	100
fixed	2	7	10	326819	1	4	4	1	0	798	1	4	0	64	82	0	0	100
fixed	2	7	11	328348	5	2	2	1	0	972	1	4	0	48	83	0	0	100
fixed	2	7	12	329825	4	3	3	1	0	982	1	4	0	56	84	0	0	100
fixed	2	8	1	331389	4	1	1	1	0	644	1	4	0	40	85	0	0	100
fixed	2	8	2	332695	1	2	2	1	0	860	1	4	0	48	86	0	0	100
fixed	2	8	3	334354	6	4	4	1	0	822	1	4	0	64	87	0	0	100
fixed	2	8	4	336152	2	1	1	1	0	1010	1	4	0	40	88	0	0	100
fixed	2	8	5	337891	5	3	3	1	0	880	1	4	0	56	89	0	0	100
fixed	2	8	6	339588	6	4	4	1	0	697	1	4	0	64	90	0	0	100
fixed	2	8	7	341281	3	1	1	1	0	681	1	4	0	40	91	0	0	100
fixed	2	8	8	342561	2	3	3	1	0	931	1	4	0	56	92	0	0	100
fixed	2	8	9	344212	3	2	2	1	0	477	1	4	0	48	93	0	0	100
fixed	2	8	10	345320	1	4	4	1	0	797	1	4	0	64	94	0	0	100
fixed	2	8	11	346886	5	2	2	1	0	948	1	4	0	48	95	0	0	100
fixed	2	8	12	348151	4	3	3	1	0	926	1	4	0	56	96	0	0	100
fixed	2	9	1	350085	4	1	1	1	0	692	1	4	0	40	97	0	0	100
fixed	2	9	2	351168	1	2	2	1	0	958	1	4	0	48	98	0	0	100
fixed	2	9	3	352751	6	4	4	1	0	739	1	4	0	64	99	0	0	100
fixed	2	9	4	354124	2	1	1	1	0	849	1	4	0	40	100	0	0	100
fixed	2	9	5	355327	5	3	3	1	0	902	1	4	0	56	101	0	0	100
fixed	2	9	6	356791	6	4	4	1	0	736	1	4	0	64	102	0	0	100
fixed	2	9	7	358379	3	1	1	1	0	813	1	4	0	40	103	0	0	100
fixed	2	9	8	360001	2	3	3	1	0	920	1	4	0	56	104	0	0	100
fixed	2	9	9	361312	3	2	2	1	0	752	1	4	0	48	105	0	0	100
fixed	2	9	10	362544	1	4	4	1	0	789	1	4	0	64	106	0	0	100
fixed	2	9	11	364308	5	2	2	1	0	858	1	4	0	48	107	0	0	100
fixed	2	9	12	365680	4	3	3	1	0	1024	1	4	0	56	108	0	0	100
fixed	2	10	1	367979	4	1	1	1	0	830	1	4	0	40	109	0	0	100
fixed	2	10	2	369330	1	2	2	1	0	957	1	4	0	48	110	0	0	100
fixed	2	10	3	370647	6	4	4	1	0	997	1	4	0	64	111	0	0	100
fixed	2	10	4	372060	2	1	1	1	0	985	1	4	0	40	112	0	0	100
fixed	2	10	5	373552	5	3	3	1	0	1098	1	4	0	56	113	0	0	100
fixed	2	10	6	375671	6	4	4	1	0	808	1	4	0	64	114	0	0	100
fixed	2	10	7	377352	3	1	1	1	0	737	1	4	0	40	115	0	0	100
fixed	2	10	8	378870	2	3	3	1	0	1008	1	4	0	56	116	0	0	100
fixed	2	10	9	380868	3	2	2	1	0	716	1	4	0	48	117	0	0	100
fixed	2	10	10	382547	1	4	4	1	0	893	1	4	0	64	118	0	0	100
fixed	2	10	11	384258	5	2	2	1	0	893	1	4	0	48	119	0	0	100
fixed	2	10	12	385702	4	3	3	1	0	816	1	4	0	56	120	0	0	100
fixed	3	1	1	387424	4	1	1	1	0	759	1	4	0	72	1	0	0	100
fixed	3	1	2	389002	1	2	2	1	0	836	1	4	0	80	2	0	0	100
fixed	3	1	3	390430	6	4	4	1	0	1095	1	4	0	96	3	0	0	100
fixed	3	1	4	391895	2	1	1	1	0	1001	1	4	0	72	4	0	0	100
fixed	3	1	5	393369	5	3	3	1	0	819	1	4	0	88	5	0	0	100
fixed	3	1	6	394561	6	4	4	1	0	784	1	4	0	96	6	0	0	100
fixed	3	1	7	395984	3	1	1	1	0	948	1	4	0	72	7	0	0	100
fixed	3	1	8	397311	2	3	3	1	0	900	1	4	0	88	8	0	0	100
fixed	3	1	9	399001	3	2	2	1	0	732	1	4	0	80	9	0	0	100
fixed	3	1	10	400689	1	4	4	1	0	804	1	4	0	96	10	0	0	100
fixed	3	1	11	402404	5	2	2	1	0	780	1	4	0	80	11	0	0	100
fixed	3	1	12	404037	4	3	3	1	0	1279	1	4	0	88	12	0	0	100
fixed	3	2	1	406473	4	1	1	1	0	768	1	4	0	72	13	0	0	100
fixed	3	2	2	408035	1	2	2	1	0	918	1	4	0	80	14	0	0	100
fixed	3	2	3	409530	6	4	4	1	0	662	1	4	0	96	15	0	0	100
fixed	3	2	4	411168	2	1	1	1	0	833	1	4	0	72	16	0	0	100
fixed	3	2	5	412926	5	3	3	1	0	870	1	4	0	88	17	0	0	100
fixed	3	2	6	414582	6	4	4	1	0	720	1	4	0	96	18	0	0	100
fixed	3	2	7	416320	3	1	1	1	0	839	1	4	0	72	19	0	0	100
fixed	3	2	8	418012	2	3	3	1	0	1095	1	4	0	88	20	0	0	100
fixed	3	2	9	419689	3	2	2	1	0	600	1	4	0	80	21	0	0	100
fixed	3	2	10	420662	1	4	4	1	0	743	1	4	0	96	22	0	0	100
fixed	3	2	11	421868	5	2	2	1	0	804	1	4	0	80	23	0	0	100
fixed	3	2	12	423368	4	3	3	1	0	908	1	4	0	88	24	0	0	100
fixed	3	3	1	424952	4	1	1	1	0	665	1	4	0	72	25	0	0	100
fixed	3	3	2	426334	1	2	2	1	0	1039	1	4	0	80	26	0	0	100
fixed	3	3	3	428023	6	4	4	1	0	711	1	4	0	96	27	0	0	100
fixed	3	3	4	429219	2	1	1	1	0	940	1	4	0	72	28	0	0	100
fixed	3	3	5	430638	5	3	3	1	0	824	1	4	0	88	29	0	0	100
fixed	3	3	6	432108	6	4	4	1	0	674	1	4	0	96	30	0	0	100
fixed	3	3	7	433142	3	1	1	1	0	998	1	4	0	72	31	0	0	100
fixed	3	3	8	435035	2	3	3	1	0	822	1	4	0	88	32	0	0	100
fixed	3	3	9	436808	3	2	2	1	0	747	1	4	0	80	33	0	0	100
fixed	3	3	10	438011	1	4	4	1	0	808	1	4	0	96	34	0	0	100
fixed	3	3	11	439681	5	2	2	1	0	753	1	4	0	80	35	0	0	100
fixed	3	3	12	440726	4	3	3	1	0	949	1	4	0	88	36	0	0	100
fixed	3	4	1	442812	4	1	1	1	0	716	1	4	0	72	37	0	0	100
fixed	3	4	2	444132	1	2	2	1	0	1012	1	4	0	80	38	0	0	100
fixed	3	4	3	445622	6	4	4	1	0	773	1	4	0	96	39	0	0	100
fixed	3	4	4	447309	2	1	1	1	0	870	1	4	0	72	40	0	0	100
fixed	3	4	5	449014	5	3	3	1	0	1062	1	4	0	88	41	0	0	100
fixed	3	4	6	450524	6	4	4	1	0	766	1	4	0	96	42	0	0	100
fixed	3	4	7	452281	3	1	1	1	0	804	1	4	0	72	43	0	0	100
fixed	3	4	8	453957	2	3	3	1	0	852	1	4	0	88	44	0	0	100
fixed	3	4	9	455475	3	2	2	1	0	724	1	4	0	80	45	0	0	100
fixed	3	4	10	456830	1	4	4	1	0	683	1	4	0	96	46	0	0	100
fixed	3	4	11	458493	5	2	2	1	0	988	1	4	0	80	47	0	0	100
fixed	3	4	12	459983	4	3	3	1	0	870	1	4	0	88	48	0	0	100
fixed	3	5	1	461842	4	1	1	1	0	654	1	4	0	72	49	0	0	100
fixed	3	5	2	463031	1	2	2	1	0	988	1	4	0	80	50	0	0	100
fixed	3	5	3	464318	6	4	4	1	0	829	1	4	0	96	51	0	0	100
fixed	3	5	4	465738	2	1	1	1	0	825	1	4	0	72	52	0	0	100
fixed	3	5	5	467020	5	3	3	1	0	1451	1	4	0	88	53	0	0	100
fixed	3	5	6	469340	6	4	4	1	0	713	1	4	0	96	54	0	0	100
fixed	3	5	7	470914	3	1	1	1	0	1014	1	4	0	72	55	0	0	100
fixed	3	5	8	472785	2	3	3	1	0	879	1	4	0	88	56	0	0	100
fixed	3	5	9	474055	3	2	2	1	0	641	1	4	0	80	57	0	0	100
fixed	3	5	10	475093	1	4	4	1	0	725	1	4	0	96	58	0	0	100
fixed	3	5	11	476187	5	2	2	1	0	703	1	4	0	80	59	0	0	100
fixed	3	5	12	477364	4	3	3	1	0	1189	1	4	0	88	60	0	0	100
fixed	3	6	1	479235	4	1	1	1	0	558	1	4	0	72	61	0	0	100
fixed	3	6	2	480650	1	2	2	1	0	1250	1	4	0	80	62	0	0	100
fixed	3	6	3	482755	6	4	4	1	0	729	1	4	0	96	63	0	0	100
fixed	3	6	4	484196	2	1	1	1	0	875	1	4	0	72	64	0	0	100
fixed	3	6	5	485637	5	3	3	1	0	823	1	4	0	88	65	0	0	100
fixed	3	6	6	487380	6	4	4	1	0	757	1	4	0	96	66	0	0	100
fixed	3	6	7	488918	3	1	1	1	0	860	1	4	0	72	67	0	0	100
fixed	3	6	8	490622	2	3	3	1	0	1020	1	4	0	88	68	0	0	100
fixed	3	6	9	492365	3	2	2	1	0	641	1	4	0	80	69	0	0	100
fixed	3	6	10	493534	1	4	4	1	0	728	1	4	0	96	70	0	0	100
fixed	3	6	11	495196	5	2	2	1	0	1074	1	4	0	80	71	0	0	100
fixed	3	6	12	496632	4	3	3	1	0	853	1	4	0	88	72	0	0	100
fixed	3	7	1	498733	4	1	1	1	0	828	1	4	0	72	73	0	0	100
fixed	3	7	2	500320	1	2	2	1	0	1056	1	4	0	80	74	0	0	100
fixed	3	7	3	501885	6	4	4	1	0	727	1	4	0	96	75	0	0	100
fixed	3	7	4	503060	2	1	1	1	0	900	1	4	0	72	76	0	0	100
fixed	3	7	5	504248	5	3	3	1	0	954	1	4	0	88	77	0	0	100
fixed	3	7	6	505582	6	4	4	1	0	1234	1	4	0	96	78	0	0	100
fixed	3	7	7	507550	3	1	1	1	0	735	1	4	0	72	79	0	0	100
fixed	3	7	8	509098	2	3	3	1	0	1669	1	4	0	88	80	0	0	100
fixed	3	7	9	511324	3	2	2	1	0	679	1	4	0	80	81	0	0	100
fixed	3	7	10	512383	1	4	4	1	0	842	1	4	0	96	82	0	0	100
fixed	3	7	11	514238	5	2	2	1	0	851	1	4	0	80	83	0	0	100
fixed	3	7	12	515416	4	3	3	1	0	1049	1	4	0	88	84	0	0	100
fixed	3	8	1	517078	4	1	1	1	0	643	1	4	0	72	85	0	0	100
fixed	3	8	2	518016	1	2	2	1	0	971	1	4	0	80	86	0	0	100
fixed	3	8	3	519583	6	4	4	1	0	777	1	4	0	96	87	0	0	100
fixed	3	8	4	521125	2	1	1	1	0	863	1	4	0	72	88	0	0	100
fixed	3	8	5	522457	5	3	3	1	0	791	1	4	0	88	89	0	0	100
fixed	3	8	6	524065	6	4	4	1	0	835	1	4	0	96	90	0	0	100
fixed	3	8	7	525832	3	1	1	1	0	984	1	4	0	72	91	0	0	100
fixed	3	8	8	527689	2	3	3	1	0	881	1	4	0	88	92	0	0	100
fixed	3	8	9	528943	3	2	2	1	0	636	1	4	0	80	93	0	0	100
fixed	3	8	10	530402	1	4	4	1	0	711	1	4	0	96	94	0	0	100
fixed	3	8	11	531774	5	2	2	1	0	853	1	4	0	80	95	0	0	100
fixed	3	8	12	533385	4	3	3	1	0	776	1	4	0	88	96	0	0	100
fixed	3	9	1	534838	4	1	1	1	0	642	1	4	0	72	97	0	0	100
fixed	3	9	2	536430	1	2	2	1	0	871	1	4	0	80	98	0	0	100
fixed	3	9	3	538294	6	4	4	1	0	776	1	4	0	96	99	0	0	100
fixed	3	9	4	539887	2	1	1	1	0	813	1	4	0	72	100	0	0	100
fixed	3	9	5	541095	5	3	3	1	0	1026	1	4	0	88	101	0	0	100
fixed	3	9	6	542652	6	4	4	1	0	776	1	4	0	96	102	0	0	100
fixed	3	9	7	544012	3	1	1	1	0	902	1	4	0	72	103	0	0	100
fixed	3	9	8	545532	2	3	3	1	0	1038	1	4	0	88	104	0	0	100
fixed	3	9	9	547615	3	2	2	1	0	750	1	4	0	80	105	0	0	100
fixed	3	9	10	549014	1	4	4	1	0	754	1	4	0	96	106	0	0	100
fixed	3	9	11	550769	5	2	2	1	0	880	1	4	0	80	107	0	0	100
fixed	3	9	12	552007	4	3	3	1	0	940	1	4	0	88	108	0	0	100
fixed	3	10	1	553768	4	1	1	1	0	673	1	4	0	72	109	0	0	100
fixed	3	10	2	555195	1	2	2	1	0	997	1	4	0	80	110	0	0	100
fixed	3	10	3	557104	6	4	4	1	0	772	1	4	0	96	111	0	0	100
fixed	3	10	4	558356	2	1	1	1	0	1015	1	4	0	72	112	0	0	100
fixed	3	10	5	559907	5	3	3	1	0	917	1	4	0	88	113	0	0	100
fixed	3	10	6	561260	6	4	4	1	0	932	1	4	0	96	114	0	0	100
fixed	3	10	7	562829	3	1	1	1	0	865	1	4	0	72	115	0	0	100
fixed	3	10	8	564087	2	3	3	1	0	1276	1	4	0	88	116	0	0	100
fixed	3	10	9	565883	3	2	2	1	0	704	1	4	0	80	117	0	0	100
fixed	3	10	10	567463	1	4	4	1	0	909	1	4	0	96	118	0	0	100
fixed	3	10	11	569295	5	2	2	1	0	831	1	4	0	80	119	0	0	100
fixed	3	10	12	570960	4	3	3	1	0	816	1	4	0	88	120	0	0	100
fixed	4	1	1	709163	4	1	1	1	0	731	1	4	0	104	1	0	0	100
fixed	4	1	2	710346	1	2	2	1	0	985	1	4	0	112	2	0	0	100
fixed	4	1	3	712197	6	4	4	1	0	771	1	4	0	128	3	0	0	100
fixed	4	1	4	713714	2	1	1	1	0	994	1	4	0	104	4	0	0	100
fixed	4	1	5	715127	5	3	3	1	0	903	1	4	0	120	5	0	0	100
fixed	4	1	6	716416	6	4	4	1	0	736	1	4	0	128	6	0	0	100
fixed	4	1	7	717669	3	1	1	1	0	739	1	4	0	104	7	0	0	100
fixed	4	1	8	719331	2	3	3	1	0	885	1	4	0	120	8	0	0	100
fixed	4	1	9	721132	3	2	2	1	0	496	1	4	0	112	9	0	0	100
fixed	4	1	10	722255	1	4	4	1	0	745	1	4	0	128	10	0	0	100
fixed	4	1	11	723873	5	2	2	1	0	932	1	4	0	112	11	0	0	100
fixed	4	1	12	725434	4	3	3	1	0	1018	1	4	0	120	12	0	0	100
fixed	4	2	1	727628	4	1	1	1	0	781	1	4	0	104	13	0	0	100
fixed	4	2	2	729392	1	2	2	1	0	1002	1	4	0	112	14	0	0	100
fixed	4	2	3	731338	6	4	4	1	0	904	1	4	0	128	15	0	0	100
fixed	4	2	4	732587	2	1	1	1	0	1339	1	4	0	104	16	0	0	100
fixed	4	2	5	734778	5	3	3	1	0	886	1	4	0	120	17	0	0	100
fixed	4	2	6	736339	6	4	4	1	0	884	1	4	0	128	18	0	0	100
fixed	4	2	7	737719	3	1	1	1	0	1001	1	4	0	104	19	0	0	100
fixed	4	2	8	739524	2	3	3	1	0	1077	1	4	0	120	20	0	0	100
fixed	4	2	9	741208	3	2	2	1	0	582	1	4	0	112	21	0	0	100
fixed	4	2	10	742305	1	4	4	1	0	664	1	4	0	128	22	0	0	100
fixed	4	2	11	743376	5	2	2	1	0	1058	1	4	0	112	23	0	0	100
fixed	4	2	12	745225	4	3	3	1	0	868	1	4	0	120	24	0	0	100
fixed	4	3	1	747042	4	1	1	1	0	518	1	4	0	104	25	0	0	100
fixed	4	3	2	748238	1	2	2	1	0	1052	1	4	0	112	26	0	0	100
fixed	4	3	3	749628	6	4	4	1	0	738	1	4	0	128	27	0	0	100
fixed	4	3	4	751154	2	1	1	1	0	952	1	4	0	104	28	0	0	100
fixed	4	3	5	752985	5	3	3	1	0	899	1	4	0	120	29	0	0	100
fixed	4	3	6	754488	6	4	4	1	0	820	1	4	0	128	30	0	0	100
fixed	4	3	7	755618	3	1	1	1	0	971	1	4	0	104	31	0	0	100
fixed	4	3	8	757177	2	3	3	1	0	978	1	4	0	120	32	0	0	100
fixed	4	3	9	758472	3	2	2	1	0	1011	1	4	0	112	33	0	0	100
fixed	4	3	10	759887	1	4	4	1	0	654	1	4	0	128	34	0	0	100
fixed	4	3	11	761346	5	2	2	1	0	921	1	4	0	112	35	0	0	100
fixed	4	3	12	762706	4	3	3	1	0	887	1	4	0	120	36	0	0	100
fixed	4	4	1	764836	4	1	1	1	0	821	1	4	0	104	37	0	0	100
fixed	4	4	2	766052	1	2	2	1	0	1178	1	4	0	112	38	0	0	100
fixed	4	4	3	767866	6	4	4	1	0	733	1	4	0	128	39	0	0	100
fixed	4	4	4	769582	2	1	1	1	0	828	1	4	0	104	40	0	0	100
fixed	4	4	5	771262	5	3	3	1	0	829	1	4	0	120	41	0	0	100
fixed	4	4	6	773065	6	4	4	1	0	729	1	4	0	128	42	0	0	100
fixed	4	4	7	774635	3	1	1	1	0	990	1	4	0	104	43	0	0	100
fixed	4	4	8	775916	2	3	3	1	0	1064	1	4	0	120	44	0	0	100
fixed	4	4	9	777804	3	2	2	1	0	800	1	4	0	112	45	0	0	100
fixed	4	4	10	778995	1	4	4	1	0	821	1	4	0	128	46	0	0	100
fixed	4	4	11	780774	5	2	2	1	0	954	1	4	0	112	47	0	0	100
fixed	4	4	12	782437	4	3	3	1	0	820	1	4	0	120	48	0	0	100
fixed	4	5	1	783999	4	1	1	1	0	681	1	4	0	104	49	0	0	100
fixed	4	5	2	785602	1	2	2	1	0	917	1	4	0	112	50	0	0	100
fixed	4	5	3	787485	6	4	4	1	0	814	1	4	0	128	51	0	0	100
fixed	4	5	4	788603	2	1	1	1	0	1015	1	4	0	104	52	0	0	100
fixed	4	5	5	790436	5	3	3	1	0	881	1	4	0	120	53	0	0	100
fixed	4	5	6	792092	6	4	4	1	0	851	1	4	0	128	54	0	0	100
fixed	4	5	7	793494	3	1	1	1	0	959	1	4	0	104	55	0	0	100
fixed	4	5	8	794912	2	3	3	1	0	1107	1	4	0	120	56	0	0	100
fixed	4	5	9	796521	3	2	2	1	0	703	1	4	0	112	57	0	0	100
fixed	4	5	10	798023	1	4	4	1	0	967	1	4	0	128	58	0	0	100
fixed	4	5	11	799791	5	2	2	1	0	820	1	4	0	112	59	0	0	100
fixed	4	5	12	801078	4	3	3	1	0	854	1	4	0	120	60	0	0	100
fixed	4	6	1	802729	4	1	1	1	0	680	1	4	0	104	61	0	0	100
fixed	4	6	2	804294	1	2	2	1	0	942	1	4	0	112	62	0	0	100
fixed	4	6	3	805585	6	4	4	1	0	799	1	4	0	128	63	0	0	100
fixed	4	6	4	806970	2	1	1	1	0	1092	1	4	0	104	64	0	0	100
fixed	4	6	5	809098	5	3	3	1	0	874	1	4	0	120	65	0	0	100
fixed	4	6	6	810882	6	4	4	1	0	735	1	4	0	128	66	0	0	100
fixed	4	6	7	812315	3	1	1	1	0	882	1	4	0	104	67	0	0	100
fixed	4	6	8	813786	2	3	3	1	0	1444	1	4	0	120	68	0	0	100
fixed	4	6	9	816031	3	2	2	1	0	589	1	4	0	112	69	0	0	100
fixed	4	6	10	817557	1	4	4	1	0	700	1	4	0	128	70	0	0	100
fixed	4	6	11	819001	5	2	2	1	0	935	1	4	0	112	71	0	0	100
fixed	4	6	12	820661	4	3	3	1	0	793	1	4	0	120	72	0	0	100
fixed	4	7	1	822310	4	1	1	1	0	715	1	4	0	104	73	0	0	100
fixed	4	7	2	823505	1	2	2	1	0	1072	1	4	0	112	74	0	0	100
fixed	4	7	3	825097	6	4	4	1	0	732	1	4	0	128	75	0	0	100
fixed	4	7	4	826801	2	1	1	1	0	1028	1	4	0	104	76	0	0	100
fixed	4	7	5	828581	5	3	3	1	0	945	1	4	0	120	77	0	0	100
fixed	4	7	6	830251	6	4	4	1	0	730	1	4	0	128	78	0	0	100
fixed	4	7	7	831722	3	1	1	1	0	1012	1	4	0	104	79	0	0	100
fixed	4	7	8	833465	2	3	3	1	0	954	1	4	0	120	80	0	0	100
fixed	4	7	9	835364	3	2	2	1	0	690	1	4	0	112	81	0	0	100
fixed	4	7	10	836789	1	4	4	1	0	830	1	4	0	128	82	0	0	100
fixed	4	7	11	838001	5	2	2	1	0	1026	1	4	0	112	83	0	0	100
fixed	4	7	12	839484	4	3	3	1	0	1107	1	4	0	120	84	0	0	100
fixed	4	8	1	841607	4	1	1	1	0	633	1	4	0	104	85	0	0	100
fixed	4	8	2	843121	1	2	2	1	0	865	1	4	0	112	86	0	0	100
fixed	4	8	3	844654	6	4	4	1	0	752	1	4	0	128	87	0	0	100
fixed	4	8	4	846407	2	1	1	1	0	854	1	4	0	104	88	0	0	100
fixed	4	8	5	847906	5	3	3	1	0	886	1	4	0	120	89	0	0	100
fixed	4	8	6	849345	6	4	4	1	0	834	1	4	0	128	90	0	0	100
fixed	4	8	7	850857	3	1	1	1	0	954	1	4	0	104	91	0	0	100
fixed	4	8	8	852771	2	3	3	1	0	976	1	4	0	120	92	0	0	100
fixed	4	8	9	854457	3	2	2	1	0	769	1	4	0	112	93	0	0	100
fixed	4	8	10	855700	1	4	4	1	0	1109	1	4	0	128	94	0	0	100
fixed	4	8	11	857787	5	2	2	1	0	836	1	4	0	112	95	0	0	100
fixed	4	8	12	859326	4	3	3	1	0	987	1	4	0	120	96	0	0	100
fixed	4	9	1	861423	4	1	1	1	0	618	1	4	0	104	97	0	0	100
fixed	4	9	2	862951	1	2	2	1	0	1241	1	4	0	112	98	0	0	100
fixed	4	9	3	864852	6	4	4	1	0	649	1	4	0	128	99	0	0	100
fixed	4	9	4	866020	2	1	1	1	0	807	1	4	0	104	100	0	0	100
fixed	4	9	5	867674	5	3	3	1	0	921	1	4	0	120	101	0	0	100
fixed	4	9	6	869583	6	4	4	1	0	777	1	4	0	128	102	0	0	100
fixed	4	9	7	870762	3	1	1	1	0	950	1	4	0	104	103	0	0	100
fixed	4	9	8	872051	2	3	3	1	0	1400	1	4	0	120	104	0	0	100
fixed	4	9	9	874343	3	2	2	1	0	679	1	4	0	112	105	0	0	100
fixed	4	9	10	875887	1	4	4	1	0	702	1	4	0	128	106	0	0	100
fixed	4	9	11	877389	5	2	2	1	0	958	1	4	0	112	107	0	0	100
fixed	4	9	12	878877	4	3	3	1	0	967	1	4	0	120	108	0	0	100
fixed	4	10	1	881071	4	1	1	1	0	730	1	4	0	104	109	0	0	100
fixed	4	10	2	882138	1	2	2	1	0	1148	1	4	0	112	110	0	0	100
fixed	4	10	3	884210	6	4	4	1	0	701	1	4	0	128	111	0	0	100
fixed	4	10	4	885726	2	1	1	1	0	845	1	4	0	104	112	0	0	100
fixed	4	10	5	886888	5	3	3	1	0	939	1	4	0	120	113	0	0	100
fixed	4	10	6	888805	6	4	4	1	0	850	1	4	0	128	114	0	0	100
fixed	4	10	7	890556	3	1	1	1	0	1080	1	4	0	104	115	0	0	100
fixed	4	10	8	892414	2	3	3	2	0	1081	2	4	0	120	116	0	0	100
fixed	4	10	9	894172	3	2	2	1	0	871	1	4	0	112	117	0	0	100
fixed	4	10	10	896010	1	4	4	1	0	865	1	4	0	128	118	0	0	100
fixed	4	10	11	897747	5	2	2	1	0	951	1	4	0	112	119	0	0	100
fixed	4	10	12	899186	4	3	3	1	0	931	1	4	0	120	120	0	0	100
fixed	5	1	1	901485	4	1	1	1	0	833	1	4	0	136	1	0	0	100
fixed	5	1	2	902959	1	2	2	1	0	1155	1	4	0	144	2	0	0	100
fixed	5	1	3	904452	6	4	4	1	0	716	1	4	0	160	3	0	0	100
fixed	5	1	4	905739	2	1	1	1	0	1301	1	4	0	136	4	0	0	100
fixed	5	1	5	907662	5	3	3	1	0	932	1	4	0	152	5	0	0	100
fixed	5	1	6	909521	6	4	4	1	0	901	1	4	0	160	6	0	0	100
fixed	5	1	7	910872	3	1	1	1	0	980	1	4	0	136	7	0	0	100
fixed	5	1	8	912348	2	3	3	1	0	1037	1	4	0	152	8	0	0	100
fixed	5	1	9	913916	3	2	2	1	0	770	1	4	0	144	9	0	0	100
fixed	5	1	10	915410	1	4	4	1	0	683	1	4	0	160	10	0	0	100
fixed	5	1	11	917109	5	2	2	1	0	899	1	4	0	144	11	0	0	100
fixed	5	1	12	918346	4	3	3	1	0	735	1	4	0	152	12	0	0	100
fixed	5	2	1	920100	4	1	1	1	0	749	1	4	0	136	13	0	0	100
fixed	5	2	2	921726	1	2	2	1	0	920	1	4	0	144	14	0	0	100
fixed	5	2	3	923287	6	4	4	1	0	734	1	4	0	160	15	0	0	100
fixed	5	2	4	924810	2	1	1	1	0	853	1	4	0	136	16	0	0	100
fixed	5	2	5	926537	5	3	3	1	0	1300	1	4	0	152	17	0	0	100
fixed	5	2	6	928158	6	4	4	1	0	719	1	4	0	160	18	0	0	100
fixed	5	2	7	929628	3	1	1	1	0	865	1	4	0	136	19	0	0	100
fixed	5	2	8	930985	2	3	3	1	0	944	1	4	0	152	20	0	0	100
fixed	5	2	9	932704	3	2	2	1	0	583	1	4	0	144	21	0	0	100
fixed	5	2	10	934219	1	4	4	1	0	759	1	4	0	160	22	0	0	100
fixed	5	2	11	935313	5	2	2	1	0	825	1	4	0	144	23	0	0	100
fixed	5	2	12	936844	4	3	3	1	0	872	1	4	0	152	24	0	0	100
fixed	5	3	1	938712	4	1	1	1	0	640	1	4	0	136	25	0	0	100
fixed	5	3	2	940345	1	2	2	1	0	1084	1	4	0	144	26	0	0	100
fixed	5	3	3	942280	6	4	4	1	0	802	1	4	0	160	27	0	0	100
fixed	5	3	4	943642	2	1	1	1	0	959	1	4	0	136	28	0	0	100
fixed	5	3	5	945551	5	3	3	1	0	1007	1	4	0	152	29	0	0	100
fixed	5	3	6	947259	6	4	4	1	0	839	1	4	0	160	30	0	0	100
fixed	5	3	7	948437	3	1	1	1	0	908	1	4	0	136	31	0	0	100
fixed	5	3	8	950009	2	3	3	1	0	970	1	4	0	152	32	0	0	100
fixed	5	3	9	951915	3	2	2	1	0	953	1	4	0	144	33	0	0	100
fixed	5	3	10	953292	1	4	4	1	0	855	1	4	0	160	34	0	0	100
fixed	5	3	11	954594	5	2	2	1	0	1080	1	4	0	144	35	0	0	100
fixed	5	3	12	956331	4	3	3	1	0	694	1	4	0	152	36	0	0	100
fixed	5	4	1	957809	4	1	1	1	0	1087	1	4	0	136	37	0	0	100
fixed	5	4	2	959656	1	2	2	1	0	1002	1	4	0	144	38	0	0	100
fixed	5	4	3	961159	6	4	4	1	0	842	1	4	0	160	39	0	0	100
fixed	5	4	4	963034	2	1	1	1	0	1027	1	4	0	136	40	0	0	100
fixed	5	4	5	964641	5	3	3	1	0	926	1	4	0	152	41	0	0	100
fixed	5	4	6	966208	6	4	4	1	0	684	1	4	0	160	42	0	0	100
fixed	5	4	7	967208	3	1	1	1	0	834	1	4	0	136	43	0	0	100
fixed	5	4	8	968449	2	3	3	1	0	1069	1	4	0	152	44	0	0	100
fixed	5	4	9	970294	3	2	2	1	0	615	1	4	0	144	45	0	0	100
fixed	5	4	10	971561	1	4	4	1	0	601	1	4	0	160	46	0	0	100
fixed	5	4	11	972705	5	2	2	1	0	801	1	4	0	144	47	0	0	100
fixed	5	4	12	974235	4	3	3	1	0	1304	1	4	0	152	48	0	0	100
fixed	5	5	1	976372	4	1	1	1	0	637	1	4	0	136	49	0	0	100
fixed	5	5	2	977508	1	2	2	1	0	1029	1	4	0	144	50	0	0	100
fixed	5	5	3	978922	6	4	4	1	0	714	1	4	0	160	51	0	0	100
fixed	5	5	4	980466	2	1	1	1	0	1008	1	4	0	136	52	0	0	100
fixed	5	5	5	981913	5	3	3	1	0	1027	1	4	0	152	53	0	0	100
fixed	5	5	6	983952	6	4	4	1	0	893	1	4	0	160	54	0	0	100
fixed	5	5	7	985790	3	1	1	1	0	975	1	4	0	136	55	0	0	100
fixed	5	5	8	987298	2	3	3	1	0	1030	1	4	0	152	56	0	0	100
fixed	5	5	9	989089	3	2	2	1	0	635	1	4	0	144	57	0	0	100
fixed	5	5	10	990127	1	4	4	1	0	735	1	4	0	160	58	0	0	100
fixed	5	5	11	991564	5	2	2	1	0	714	1	4	0	144	59	0	0	100
fixed	5	5	12	992921	4	3	3	1	0	1041	1	4	0	152	60	0	0	100
fixed	5	6	1	995084	4	1	1	1	0	693	1	4	0	136	61	0	0	100
fixed	5	6	2	996356	1	2	2	1	0	1007	1	4	0	144	62	0	0	100
fixed	5	6	3	997772	6	4	4	1	0	811	1	4	0	160	63	0	0	100
fixed	5	6	4	999565	2	1	1	1	0	863	1	4	0	136	64	0	0	100
fixed	5	6	5	1001114	5	3	3	1	0	997	1	4	0	152	65	0	0	100
fixed	5	6	6	1002718	6	4	4	1	0	809	1	4	0	160	66	0	0	100
fixed	5	6	7	1004208	3	1	1	1	0	762	1	4	0	136	67	0	0	100
fixed	5	6	8	1005815	2	3	3	1	0	966	1	4	0	152	68	0	0	100
fixed	5	6	9	1007381	3	2	2	1	0	748	1	4	0	144	69	0	0	100
fixed	5	6	10	1008528	1	4	4	1	0	724	1	4	0	160	70	0	0	100
fixed	5	6	11	1010058	5	2	2	1	0	1235	1	4	0	144	71	0	0	100
fixed	5	6	12	1011828	4	3	3	1	0	952	1	4	0	152	72	0	0	100
fixed	5	7	1	1013914	4	1	1	1	0	671	1	4	0	136	73	0	0	100
fixed	5	7	2	1014996	1	2	2	1	0	1146	1	4	0	144	74	0	0	100
fixed	5	7	3	1016861	6	4	4	1	0	1067	1	4	0	160	75	0	0	100
fixed	5	7	4	1018239	2	1	1	1	0	936	1	4	0	136	76	0	0	100
fixed	5	7	5	1019929	5	3	3	1	0	1304	1	4	0	152	77	0	0	100
fixed	5	7	6	1022275	6	4	4	1	0	717	1	4	0	160	78	0	0	100
fixed	5	7	7	1023321	3	1	1	1	0	905	1	4	0	136	79	0	0	100
fixed	5	7	8	1024797	2	3	3	1	0	954	1	4	0	152	80	0	0	100
fixed	5	7	9	1026137	3	2	2	1	0	1026	1	4	0	144	81	0	0	100
fixed	5	7	10	1027633	1	4	4	1	0	714	1	4	0	160	82	0	0	100
fixed	5	7	11	1029003	5	2	2	1	0	1152	1	4	0	144	83	0	0	100
fixed	5	7	12	1030871	4	3	3	1	0	857	1	4	0	152	84	0	0	100
fixed	5	8	1	1032559	4	1	1	1	0	793	1	4	0	136	85	0	0	100
fixed	5	8	2	1033973	1	2	2	1	0	982	1	4	0	144	86	0	0	100
fixed	5	8	3	1035256	6	4	4	1	0	703	1	4	0	160	87	0	0	100
fixed	5	8	4	1036570	2	1	1	1	0	1215	1	4	0	136	88	0	0	100
fixed	5	8	5	1038525	5	3	3	1	0	941	1	4	0	152	89	0	0	100
fixed	5	8	6	1040374	6	4	4	1	0	815	1	4	0	160	90	0	0	100
fixed	5	8	7	1041685	3	1	1	1	0	951	1	4	0	136	91	0	0	100
fixed	5	8	8	1043630	2	3	3	1	0	1085	1	4	0	152	92	0	0	100
fixed	5	8	9	1045457	3	2	2	1	0	599	1	4	0	144	93	0	0	100
fixed	5	8	10	1046517	1	4	4	1	0	906	1	4	0	160	94	0	0	100
fixed	5	8	11	1047951	5	2	2	1	0	814	1	4	0	144	95	0	0	100
fixed	5	8	12	1049291	4	3	3	1	0	981	1	4	0	152	96	0	0	100
fixed	5	9	1	1051088	4	1	1	1	0	753	1	4	0	136	97	0	0	100
fixed	5	9	2	1052677	1	2	2	1	0	1085	1	4	0	144	98	0	0	100
fixed	5	9	3	1054676	6	4	4	1	0	705	1	4	0	160	99	0	0	100
fixed	5	9	4	1056090	2	1	1	1	0	877	1	4	0	136	100	0	0	100
fixed	5	9	5	1057289	5	3	3	1	0	954	1	4	0	152	101	0	0	100
fixed	5	9	6	1059176	6	4	4	1	0	914	1	4	0	160	102	0	0	100
fixed	5	9	7	1060809	3	1	1	1	0	829	1	4	0	136	103	0	0	100
fixed	5	9	8	1062291	2	3	3	1	0	1110	1	4	0	152	104	0	0	100
fixed	5	9	9	1064399	3	2	2	1	0	781	1	4	0	144	105	0	0	100
fixed	5	9	10	1065643	1	4	4	1	0	1088	1	4	0	160	106	0	0	100
fixed	5	9	11	1067035	5	2	2	1	0	957	1	4	0	144	107	0	0	100
fixed	5	9	12	1068391	4	3	3	1	0	836	1	4	0	152	108	0	0	100
fixed	5	10	1	1070101	4	1	1	1	0	1083	1	4	0	136	109	0	0	100
fixed	5	10	2	1072074	1	2	2	1	0	1024	1	4	0	144	110	0	0	100
fixed	5	10	3	1073420	6	4	4	1	0	839	1	4	0	160	111	0	0	100
fixed	5	10	4	1075165	2	1	0	1	2	0	3	4	0	136	111	0	1	99
fixed	5	10	5	1078231	5	3	3	1	0	1267	1	4	0	152	112	0	1	99
fixed	5	10	6	1080060	6	4	4	1	0	1061	1	4	0	160	113	0	1	99
fixed	5	10	7	1081748	3	1	1	1	0	830	1	4	0	136	114	0	1	99
fixed	5	10	8	1083306	2	3	3	1	0	948	1	4	0	152	115	0	1	99
fixed	5	10	9	1085079	3	2	2	1	0	745	1	4	0	144	116	0	1	99
fixed	5	10	10	1086422	1	4	4	1	0	1088	1	4	0	160	117	0	1	99
fixed	5	10	11	1088342	5	2	2	1	0	927	1	4	0	144	118	0	1	99
fixed	5	10	12	1089921	4	3	3	1	0	884	1	4	0	152	119	0	1	99
random	6	1	1	1185198	6	1	1	1	0	1160	1	4	0	168	1	0	0	100
random	6	1	2	1187274	4	4	4	1	0	896	1	4	0	192	2	0	0	100
random	6	1	3	1188725	2	2	2	1	0	859	1	4	0	176	3	0	0	100
random	6	1	4	1190108	3	3	3	1	0	433	1	4	0	184	4	0	0	100
random	6	1	5	1190904	5	2	2	1	0	999	1	4	0	176	5	0	0	100
random	6	1	6	1192282	1	4	4	1	0	700	1	4	0	192	6	0	0	100
random	6	1	7	1193638	6	1	1	1	0	811	1	4	0	168	7	0	0	100
random	6	1	8	1195209	2	3	3	1	0	1072	1	4	0	184	8	0	0	100
random	6	1	9	1197076	4	2	2	1	0	722	1	4	0	176	9	0	0	100
random	6	1	10	1198380	1	1	1	1	0	986	1	4	0	168	10	0	0	100
random	6	1	11	1200267	5	4	4	1	0	635	1	4	0	192	11	0	0	100
random	6	1	12	1201352	3	3	3	1	0	893	1	4	0	184	12	0	0	100
random	6	1	13	1202877	5	2	2	1	0	579	1	4	0	176	13	0	0	100
random	6	1	14	1204494	1	4	4	1	0	759	1	4	0	192	14	0	0	100
random	6	1	15	1206170	3	1	1	1	0	768	1	4	0	168	15	0	0	100
random	6	1	16	1207398	4	3	3	1	0	892	1	4	0	184	16	0	0	100
random	6	1	17	1208875	6	4	4	1	0	725	1	4	0	192	17	0	0	100
random	6	1	18	1209917	2	1	1	1	0	1065	1	4	0	168	18	0	0	100
random	6	1	19	1211934	5	3	3	1	0	908	1	4	0	184	19	0	0	100
random	6	1	20	1213319	2	2	2	1	0	921	1	4	0	176	20	0	0	100
random	6	1	21	1214604	3	3	3	1	0	939	1	4	0	184	21	0	0	100
random	6	1	22	1216550	6	1	1	1	0	849	1	4	0	168	22	0	0	100
random	6	1	23	1217937	4	2	2	1	0	982	1	4	0	176	23	0	0	100
random	6	1	24	1219562	1	4	4	1	0	729	1	4	0	192	24	0	0	100
random	6	1	25	1220955	4	3	3	1	0	1398	1	4	0	184	25	0	0	100
random	6	1	26	1223357	2	1	1	1	0	1049	1	4	0	168	26	0	0	100
random	6	1	27	1224739	5	2	2	1	0	942	1	4	0	176	27	0	0	100
random	6	1	28	1226410	6	4	4	1	0	639	1	4	0	192	28	0	0	100
random	6	1	29	1227493	1	3	3	1	0	833	1	4	0	184	29	0	0	100
random	6	1	30	1229254	5	2	2	1	0	791	1	4	0	176	30	0	0	100
random	6	1	31	1231037	2	1	1	1	0	859	1	4	0	168	31	0	0	100
random	6	1	32	1232670	3	3	3	1	0	934	1	4	0	184	32	0	0	100
random	6	1	33	1234456	6	4	4	1	0	722	1	4	0	192	33	0	0	100
random	6	1	34	1235853	4	2	2	1	0	759	1	4	0	176	34	0	0	100
random	6	1	35	1236945	3	4	4	1	0	856	1	4	0	192	35	0	0	100
random	6	1	36	1238103	1	1	1	1	0	824	1	4	0	168	36	0	0	100
random	6	1	37	1239835	3	4	4	1	0	1398	1	4	0	192	37	0	0	100
random	6	1	38	1242211	5	3	3	1	0	1178	1	4	0	184	38	0	0	100
random	6	1	39	1243859	6	1	1	1	0	988	1	4	0	168	39	0	0	100
random	6	1	40	1245782	1	2	2	1	0	866	1	4	0	176	40	0	0	100
random	6	1	41	1247302	2	3	3	1	0	1082	1	4	0	184	41	0	0	100
random	6	1	42	1248724	4	4	4	1	0	718	1	4	0	192	42	0	0	100
random	6	1	43	1250164	1	2	0	0	2	0	3	4	0	176	42	0	1	98
random	6	1	44	1253395	6	3	3	1	0	1032	1	4	0	184	43	0	1	98
random	6	1	45	1254947	3	1	1	1	0	806	1	4	0	168	44	0	1	98
random	6	1	46	1256215	4	4	4	1	0	825	1	4	0	192	45	0	1	98
random	6	1	47	1257923	2	2	2	1	0	816	1	4	0	176	46	0	1	98
random	6	1	48	1259607	5	1	1	1	0	1041	1	4	0	168	47	0	1	98
random	6	1	49	1261287	2	3	0	1	2	0	3	4	0	184	47	0	2	96
random	6	1	50	1264765	3	1	1	1	0	878	1	4	0	168	48	0	2	96
random	6	1	51	1266350	1	4	4	1	0	859	1	4	0	192	49	0	2	96
random	6	1	52	1267969	5	3	3	1	0	886	1	4	0	184	50	0	2	96
random	6	1	53	1269898	3	2	2	1	0	709	1	4	0	176	51	0	2	96
random	6	1	54	1271435	6	4	4	1	0	964	1	4	0	192	52	0	2	96
random	6	1	55	1273160	4	2	2	1	0	1051	1	4	0	176	53	0	2	96
random	6	1	56	1275149	1	1	1	1	0	879	1	4	0	168	54	0	2	96
random	6	1	57	1276915	5	4	4	1	0	924	1	4	0	192	55	0	2	96
random	6	1	58	1278452	2	1	1	1	0	1115	1	4	0	168	56	0	2	97
random	6	1	59	1280588	6	2	2	1	0	1056	1	4	0	176	57	0	2	97
random	6	1	60	1282154	4	3	3	1	0	718	1	4	0	184	58	0	2	97
random	6	1	61	1283859	1	2	2	1	0	965	1	4	0	176	59	0	2	97
random	6	1	62	1285301	6	4	4	1	0	833	1	4	0	192	60	0	2	97
random	6	1	63	1287114	4	1	1	1	0	844	1	4	0	168	61	0	2	97
random	6	1	64	1288916	2	2	2	1	0	872	1	4	0	176	62	0	2	97
random	6	1	65	1290617	4	3	3	1	0	751	1	4	0	184	63	0	2	97
random	6	1	66	1292369	3	1	1	1	0	869	1	4	0	168	64	0	2	97
random	6	1	67	1293977	1	3	3	1	0	1017	1	4	0	184	65	0	2	97
random	6	1	68	1295386	5	4	4	1	0	709	1	4	0	192	66	0	2	97
random	6	1	69	1296591	2	2	2	1	0	794	1	4	0	176	67	0	2	97
random	6	1	70	1298222	3	1	1	1	0	877	1	4	0	168	68	0	2	97
random	6	1	71	1299831	5	4	4	1	0	1257	1	4	0	192	69	0	2	97
random	6	1	72	1301601	6	3	3	2	0	1262	2	4	0	184	70	0	2	97
random	6	1	73	1303975	2	1	1	1	0	1225	1	4	0	168	71	0	2	97
random	6	1	74	1306208	5	3	3	1	0	1203	1	4	0	184	72	0	2	97
random	6	1	75	1307964	1	4	4	1	0	1097	1	4	0	192	73	0	2	97
random	6	1	76	1309347	6	2	2	1	0	926	1	4	0	176	74	0	2	97
random	6	1	77	1311063	2	1	1	1	0	821	1	4	0	168	75	0	2	97
random	6	1	78	1312805	4	4	4	1	0	884	1	4	0	192	76	0	2	97
random	6	1	79	1314373	3	2	2	1	0	873	1	4	0	176	77	0	2	97
random	6	1	80	1316169	4	3	3	1	0	797	1	4	0	184	78	0	2	98
random	6	1	81	1317938	1	4	4	1	0	1042	1	4	0	192	79	0	2	98
random	6	1	82	1319295	5	1	1	1	0	969	1	4	0	168	80	0	2	98
random	6	1	83	1320806	3	2	2	1	0	777	1	4	0	176	81	0	2	98
random	6	1	84	1321942	6	3	3	1	0	945	1	4	0	184	82	0	2	98
random	6	1	85	1323874	3	2	2	1	0	1031	1	4	0	176	83	0	2	98
random	6	1	86	1325590	1	3	3	1	0	1014	1	4	0	184	84	0	2	98
random	6	1	87	1327203	4	4	4	1	0	906	1	4	0	192	85	0	2	98
random	6	1	88	1328655	2	1	1	1	0	932	1	4	0	168	86	0	2	98
random	6	1	89	1330288	6	4	4	1	0	1143	1	4	0	192	87	0	2	98
random	6	1	90	1332413	3	3	3	1	0	1053	1	4	0	184	88	0	2	98
random	6	1	91	1333811	5	4	4	1	0	1554	1	4	0	192	89	0	2	98
random	6	1	92	1335674	1	2	2	1	0	731	1	4	0	176	90	0	2	98
random	6	1	93	1337245	5	1	1	1	0	1072	1	4	0	168	91	0	2	98
random	6	1	94	1339164	4	3	3	1	0	911	1	4	0	184	92	0	2	98
random	6	1	95	1340621	6	1	1	1	0	1233	1	4	0	168	93	0	2	98
random	6	1	96	1342633	2	2	2	1	0	965	1	4	0	176	94	0	2	98
random	6	1	97	1344658	4	3	3	1	0	966	1	4	0	184	95	0	2	98
random	6	1	98	1345962	3	2	2	1	0	839	1	4	0	176	96	0	2	98
random	6	1	99	1347493	6	3	3	1	0	1119	1	4	0	184	97	0	2	98
random	6	1	100	1349158	1	4	4	1	0	808	1	4	0	192	98	0	2	98
random	6	1	101	1350514	4	1	1	1	0	927	1	4	0	168	99	0	2	98
random	6	1	102	1351824	5	2	2	1	0	1143	1	4	0	176	100	0	2	98
random	6	1	103	1353600	2	4	4	1	0	1212	1	4	0	192	101	0	2	98
random	6	1	104	1355506	3	1	1	1	0	1203	1	4	0	168	102	0	2	98
random	6	1	105	1357331	1	3	3	1	0	790	1	4	0	184	103	0	2	98
random	6	1	106	1358660	2	2	2	1	0	685	1	4	0	176	104	0	2	98
random	6	1	107	1359685	5	4	4	1	0	1202	1	4	0	192	105	0	2	98
random	6	1	108	1361402	6	1	1	1	0	1057	1	4	0	168	106	0	2	98
random	6	1	109	1363388	5	4	4	1	0	1117	1	4	0	192	107	0	2	98
random	6	1	110	1365417	6	3	3	1	0	1279	1	4	0	184	108	0	2	98
random	6	1	111	1367010	2	2	2	1	0	844	1	4	0	176	109	0	2	98
random	6	1	112	1368228	3	1	1	1	0	1392	1	4	0	168	110	0	2	98
random	6	1	113	1370048	1	2	2	1	0	867	1	4	0	176	111	0	2	98
random	6	1	114	1371494	2	3	3	1	0	854	1	4	0	184	112	0	2	98
random	6	1	115	1373376	3	1	1	1	0	1086	1	4	0	168	113	0	2	98
random	6	1	116	1375219	4	4	4	1	0	936	1	4	0	192	114	0	2	98
random	6	1	117	1377200	6	1	1	1	0	1324	1	4	0	168	115	0	2	98
random	6	1	118	1379057	5	3	3	1	0	1013	1	4	0	184	116	0	2	98
random	6	1	119	1380508	1	4	4	1	0	832	1	4	0	192	117	0	2	98
random	6	1	120	1381750	4	2	0	0	2	0	3	4	0	176	117	0	3	98
fixed	7	1	1	1385724	4	1	1	1	0	931	1	4	0	200	1	0	0	100
fixed	7	1	2	1387057	1	2	2	1	0	955	1	4	0	208	2	0	0	100
fixed	7	1	3	1388939	6	4	4	1	0	1211	1	4	0	224	3	0	0	100
fixed	7	1	4	1390824	2	1	1	1	0	1083	1	4	0	200	4	0	0	100
fixed	7	1	5	1392483	5	3	3	1	0	981	1	4	0	216	5	0	0	100
fixed	7	1	6	1393949	6	4	4	1	0	1063	1	4	0	224	6	0	0	100
fixed	7	1	7	1395401	3	1	1	1	0	1249	1	4	0	200	7	0	0	100
fixed	7	1	8	1397618	2	3	3	1	0	1140	1	4	0	216	8	0	0	100
fixed	7	1	9	1399069	3	2	2	1	0	1054	1	4	0	208	9	0	0	100
fixed	7	1	10	1401041	1	4	4	1	0	819	1	4	0	224	10	0	0	100
fixed	7	1	11	1402308	5	2	2	1	0	933	1	4	0	208	11	0	0	100
fixed	7	1	12	1404209	4	3	3	1	0	1412	1	4	0	216	12	0	0	100
fixed	7	2	1	1406828	4	1	1	1	0	749	1	4	0	200	1	0	0	8
fixed	7	2	2	1408212	1	2	2	1	0	914	1	4	0	208	2	0	0	14
fixed	7	2	3	1409468	6	4	4	1	0	797	1	4	0	224	3	0	0	20
fixed	7	2	4	1411146	2	1	1	1	0	878	1	4	0	200	4	0	0	25
fixed	7	2	5	1412918	5	3	3	1	0	947	1	4	0	216	5	0	0	29
fixed	7	2	6	1414270	6	4	4	1	0	794	1	4	0	224	6	0	0	33
fixed	7	2	7	1415889	3	1	1	1	0	877	1	4	0	200	7	0	0	37
fixed	7	2	8	1417732	2	3	3	1	0	1064	1	4	0	216	8	0	0	40
fixed	7	2	9	1419142	3	2	2	1	0	683	1	4	0	208	9	0	0	43
fixed	7	2	10	1420823	1	4	4	1	0	989	1	4	0	224	10	0	0	45
fixed	7	2	11	1422777	5	2	2	1	0	962	1	4	0	208	11	0	0	48
fixed	7	2	12	1424484	4	3	3	1	0	874	1	4	0	216	12	0	0	50
fixed	7	3	1	1426008	4	1	1	1	0	849	1	4	0	200	1	0	0	4
fixed	7	3	2	1427835	1	2	2	1	0	1427	1	4	0	208	2	0	0	8
fixed	7	3	3	1429670	6	4	4	1	0	798	1	4	0	224	3	0	0	11
fixed	7	3	4	1430856	2	1	1	1	0	1163	1	4	0	200	4	0	0	14
fixed	7	3	5	1433038	5	3	3	1	0	1135	1	4	0	216	5	0	0	17
fixed	7	3	6	1434915	6	4	4	1	0	2247	1	4	0	224	6	0	0	20
fixed	7	3	7	1437932	3	1	1	1	0	872	1	4	0	200	7	0	0	23
fixed	7	3	8	1439710	2	3	3	1	0	1140	1	4	0	216	8	0	0	25
fixed	7	3	9	1441201	3	2	2	1	0	701	1	4	0	208	9	0	0	27
fixed	7	3	10	1442651	1	4	4	1	0	840	1	4	0	224	10	0	0	29
fixed	7	3	11	1444360	5	2	2	1	0	936	1	4	0	208	11	0	0	31
fixed	7	3	12	1445933	4	3	3	1	0	1037	1	4	0	216	12	0	0	33
fixed	7	4	1	1447845	4	1	1	1	0	612	1	4	0	200	1	0	0	3
fixed	7	4	2	1449390	1	2	2	1	0	987	1	4	0	208	2	0	0	5
fixed	7	4	3	1451020	6	4	4	1	0	941	1	4	0	224	3	0	0	8
fixed	7	4	4	1452742	2	1	1	1	0	892	1	4	0	200	4	0	0	10
fixed	7	4	5	1454294	5	3	3	1	0	939	1	4	0	216	5	0	0	12
fixed	7	4	6	1456023	6	4	4	1	0	746	1	4	0	224	6	0	0	14
fixed	7	4	7	1457607	3	1	1	1	0	830	1	4	0	200	7	0	0	16
fixed	7	4	8	1458907	2	3	3	1	0	1199	1	4	0	216	8	0	0	18
fixed	7	4	9	1460997	3	2	2	1	0	863	1	4	0	208	9	0	0	20
fixed	7	4	10	1462872	1	4	4	1	0	672	1	4	0	224	10	0	0	22
fixed	7	4	11	1464532	5	2	2	1	0	906	1	4	0	208	11	0	0	23
fixed	7	4	12	1465914	4	3	3	1	0	1887	1	4	0	216	12	0	0	25
fixed	7	5	1	1468613	4	1	1	1	0	780	1	4	0	200	1	0	0	2
fixed	7	5	2	1470204	1	2	2	1	0	961	1	4	0	208	2	0	0	4
fixed	7	5	3	1471831	6	4	4	1	0	884	1	4	0	224	3	0	0	6
fixed	7	5	4	1473481	2	1	1	1	0	862	1	4	0	200	4	0	0	8
fixed	7	5	5	1474997	5	3	3	1	0	982	1	4	0	216	5	0	0	9
fixed	7	5	6	1476566	6	4	4	1	0	763	1	4	0	224	6	0	0	11
fixed	7	5	7	1477923	3	1	1	1	0	866	1	4	0	200	7	0	0	13
fixed	7	5	8	1479497	2	3	3	1	0	951	1	4	0	216	8	0	0	14
fixed	7	5	9	1480985	3	2	2	1	0	864	1	4	0	208	9	0	0	16
fixed	7	5	10	1482406	1	4	4	1	0	740	1	4	0	224	10	0	0	17
fixed	7	5	11	1484011	5	2	2	1	0	904	1	4	0	208	11	0	0	19
fixed	7	5	12	1485851	4	3	3	1	0	1010	1	4	0	216	12	0	0	20
fixed	7	6	1	1487776	4	1	1	1	0	880	1	4	0	200	1	0	0	2
fixed	7	6	2	1489463	1	2	2	1	0	1617	1	4	0	208	2	0	0	3
fixed	7	6	3	1491927	6	4	4	1	0	793	1	4	0	224	3	0	0	5
fixed	7	6	4	1493635	2	1	1	1	0	857	1	4	0	200	4	0	0	6
fixed	7	6	5	1495291	5	3	3	1	0	1147	1	4	0	216	5	0	0	8
fixed	7	6	6	1497117	6	4	4	1	0	813	1	4	0	224	6	0	0	9
fixed	7	6	7	1498600	3	1	0	0	2	0	3	4	0	200	6	0	1	9
fixed	7	6	8	1502106	2	3	3	1	0	850	1	4	0	216	7	0	1	10
fixed	7	6	9	1503387	3	2	2	1	0	811	1	4	0	208	8	0	1	12
fixed	7	6	10	1504573	1	4	4	1	0	745	1	4	0	224	9	0	1	13
fixed	7	6	11	1505864	5	2	2	1	0	1011	1	4	0	208	10	0	1	14
fixed	7	6	12	1507520	4	3	3	1	0	845	1	4	0	216	11	0	1	15
fixed	7	7	1	1509162	4	1	1	1	0	639	1	4	0	200	1	0	0	1
fixed	7	7	2	1510248	1	2	2	1	0	905	1	4	0	208	2	0	0	3
fixed	7	7	3	1511780	6	4	4	1	0	800	1	4	0	224	3	0	0	4
fixed	7	7	4	1513103	2	1	1	1	0	1072	1	4	0	200	4	0	0	5
fixed	7	7	5	1514823	5	3	3	1	0	1151	1	4	0	216	5	0	0	6
fixed	7	7	6	1516773	6	4	4	1	0	653	1	4	0	224	6	0	0	8
fixed	7	7	7	1518115	3	1	1	1	0	851	1	4	0	200	7	0	0	9
fixed	7	7	8	1519775	2	3	3	1	0	885	1	4	0	216	8	0	0	10
fixed	7	7	9	1521054	3	2	2	1	0	551	1	4	0	208	9	0	0	11
fixed	7	7	10	1522131	1	4	4	1	0	1146	1	4	0	224	10	0	0	12
fixed	7	7	11	1523873	5	2	2	1	0	824	1	4	0	208	11	0	0	13
fixed	7	7	12	1525576	4	3	3	1	0	840	1	4	0	216	12	0	0	14
fixed	7	8	1	1527423	4	1	1	1	0	753	1	4	0	200	1	0	0	1
fixed	7	8	2	1528511	1	2	2	1	0	963	1	4	0	208	2	0	0	2
fixed	7	8	3	1529766	6	4	4	1	0	1726	1	4	0	224	3	0	0	3
fixed	7	8	4	1532423	2	1	1	1	0	981	1	4	0	200	4	0	0	5
fixed	7	8	5	1534025	5	3	3	1	0	1178	1	4	0	216	5	0	0	6
fixed	7	8	6	1535999	6	4	4	1	0	734	1	4	0	224	6	0	0	7
fixed	7	8	7	1537473	3	1	1	1	0	1112	1	4	0	200	7	0	0	8
fixed	7	8	8	1539531	2	3	3	1	0	1249	1	4	0	216	8	0	0	9
fixed	7	8	9	1541497	3	2	2	1	0	669	1	4	0	208	9	0	0	10
fixed	7	8	10	1543067	1	4	4	1	0	907	1	4	0	224	10	0	0	11
fixed	7	8	11	1544412	5	2	2	1	0	1066	1	4	0	208	11	0	0	12
fixed	7	8	12	1546212	4	3	3	1	0	1134	1	4	0	216	12	0	0	13
fixed	7	9	1	1548158	4	1	1	1	0	851	1	4	0	200	1	0	0	1
fixed	7	9	2	1549558	1	2	2	1	0	1128	1	4	0	208	2	0	0	2
fixed	7	9	3	1551258	6	4	4	1	0	1224	1	4	0	224	3	0	0	3
fixed	7	9	4	1553275	2	1	1	1	0	2426	1	4	0	200	4	0	0	4
fixed	7	9	5	1556229	5	3	3	1	0	797	1	4	0	216	5	0	0	5
fixed	7	9	6	1557442	6	4	4	1	0	714	1	4	0	224	6	0	0	6
fixed	7	9	7	1558506	3	1	1	1	0	1005	1	4	0	200	7	0	0	7
fixed	7	9	8	1560407	2	3	3	1	0	1012	1	4	0	216	8	0	0	8
fixed	7	9	9	1561824	3	2	2	1	0	736	1	4	0	208	9	0	0	9
fixed	7	9	10	1563380	1	4	4	1	0	694	1	4	0	224	10	0	0	9
fixed	7	9	11	1564711	5	2	2	1	0	1014	1	4	0	208	11	0	0	10
fixed	7	9	12	1566125	4	3	3	1	0	802	1	4	0	216	12	0	0	11
fixed	7	10	1	1568057	4	1	1	1	0	680	1	4	0	200	1	0	0	1
fixed	7	10	2	1569613	1	2	2	1	0	950	1	4	0	208	2	0	0	2
fixed	7	10	3	1571307	6	4	4	1	0	679	1	4	0	224	3	0	0	3
fixed	7	10	4	1572375	2	1	1	1	0	1090	1	4	0	200	4	0	0	4
fixed	7	10	5	1574351	5	3	3	1	0	934	1	4	0	216	5	0	0	4
fixed	7	10	6	1576292	6	4	4	1	0	731	1	4	0	224	6	0	0	5
fixed	7	10	7	1577386	3	1	1	1	0	845	1	4	0	200	7	0	0	6
fixed	7	10	8	1579066	2	3	3	1	0	1262	1	4	0	216	8	0	0	7
fixed	7	10	9	1580680	3	2	2	1	0	610	1	4	0	208	9	0	0	8
fixed	7	10	10	1582064	1	4	4	1	0	807	1	4	0	224	10	0	0	8
fixed	7	10	11	1583809	5	2	2	1	0	989	1	4	0	208	11	0	0	9
fixed	7	10	12	1585575	4	3	3	1	0	883	1	4	0	216	12	0	0	10
