type	block	sequ.	trial	time	Pos.	Color	Button	NumRsp	Resp_1	RT_1	R_Code	Resp_2	RT_2	Trigg.	n_hit	n_inc	n_miss	score_%

random	1	1	1	101907	6	1	1	1	0	2075	1	4	0	8	1	0	0	100
random	1	1	2	104416	4	4	4	1	0	1097	1	4	0	32	2	0	0	100
random	1	1	3	106250	2	2	2	1	0	1892	1	4	0	16	3	0	0	100
random	1	1	4	108746	3	3	3	1	0	1386	1	4	0	24	4	0	0	100
random	1	1	5	110762	5	2	2	1	0	1524	1	4	0	16	5	0	0	100
random	1	1	6	112603	1	4	4	1	0	926	1	4	0	32	6	0	0	100
random	1	1	7	114094	6	1	1	1	0	991	1	4	0	8	7	0	0	100
random	1	1	8	115781	2	3	3	1	0	1496	1	4	0	24	8	0	0	100
random	1	1	9	117956	4	2	0	0	2	0	3	4	0	16	8	0	1	89
random	1	1	10	121351	1	1	1	1	0	1636	1	4	0	8	9	0	1	90
random	1	1	11	123568	5	4	4	1	0	894	1	4	0	32	10	0	1	91
random	1	1	12	125356	3	3	3	1	0	1298	1	4	0	24	11	0	1	92
random	1	1	13	127287	5	2	2	1	0	1472	1	4	0	16	12	0	1	92
random	1	1	14	129800	1	4	4	1	0	966	1	4	0	32	13	0	1	93
random	1	1	15	131264	3	1	1	1	0	1248	1	4	0	8	14	0	1	93
random	1	1	16	133456	4	3	3	1	0	1547	1	4	0	24	15	0	1	94
random	1	1	17	135309	6	4	4	1	0	1044	1	4	0	32	16	0	1	94
random	1	1	18	136753	2	1	1	1	0	1248	1	4	0	8	17	0	1	94
random	1	1	19	138539	5	3	0	1	2	0	3	4	0	24	17	0	2	89
random	1	1	20	141948	2	2	2	1	0	1811	1	4	0	16	18	0	2	90
random	1	1	21	144710	3	3	3	1	0	1047	1	4	0	24	19	0	2	90
random	1	1	22	146341	6	1	1	1	0	985	1	4	0	8	20	0	2	91
random	1	1	23	148348	4	2	2	1	0	1084	1	4	0	16	21	0	2	91
random	1	1	24	150374	1	4	4	1	0	975	1	4	0	32	22	0	2	92
random	1	1	25	152483	4	3	0	1	2	0	3	4	0	24	22	0	3	88
random	1	1	26	155338	2	1	1	1	0	1308	1	4	0	8	23	0	3	88
random	1	1	27	157436	5	2	2	1	0	939	1	4	0	16	24	0	3	89
random	1	1	28	158796	6	4	4	1	0	898	1	4	0	32	25	0	3	89
random	1	1	29	160509	1	3	3	1	0	2449	1	4	0	24	26	0	3	90
random	1	1	30	163495	5	2	2	1	0	1051	1	4	0	16	27	0	3	90
random	1	1	31	165173	2	1	1	1	0	1108	1	4	0	8	28	0	3	90
random	1	1	32	166872	3	3	0	1	2	0	3	4	0	24	28	0	4	88
random	1	1	33	170234	6	4	4	1	0	1245	1	4	0	32	29	0	4	88
random	1	1	34	171978	4	2	2	1	0	1340	1	4	0	16	30	0	4	88
random	1	1	35	173898	3	4	4	1	0	690	1	4	0	32	31	0	4	89
random	1	1	36	175208	1	1	1	1	0	947	1	4	0	8	32	0	4	89
random	1	1	37	177428	3	4	4	1	0	636	1	4	0	32	33	0	4	89
random	1	1	38	178987	5	3	3	1	0	1571	1	4	0	24	34	0	4	89
random	1	1	39	181582	6	1	1	1	0	1077	1	4	0	8	35	0	4	90
random	1	1	40	183256	1	2	2	1	0	1094	1	4	0	16	36	0	4	90
random	1	1	41	184733	2	3	3	1	0	1151	1	4	0	24	37	0	4	90
random	1	1	42	186351	4	4	4	1	0	778	1	4	0	32	38	0	4	90
random	1	1	43	187680	1	2	2	1	0	1187	1	4	0	16	39	0	4	91
random	1	1	44	189434	6	3	3	1	0	1000	1	4	0	24	40	0	4	91
random	1	1	45	190785	3	1	1	1	0	815	1	4	0	8	41	0	4	91
random	1	1	46	192332	4	4	4	1	0	701	1	4	0	32	42	0	4	91
random	1	1	47	193523	2	2	2	1	0	1171	1	4	0	16	43	0	4	91
random	1	1	48	195596	5	1	1	1	0	1187	1	4	0	8	44	0	4	92
random	1	1	49	197377	2	3	3	1	0	1415	1	4	0	24	45	0	4	92
random	1	1	50	199771	3	1	0	2	2	0	3	4	0	8	45	0	5	90
random	1	1	51	202882	1	4	4	1	0	647	1	4	0	32	46	0	5	90
random	1	1	52	204179	5	3	3	1	0	1711	1	4	0	24	47	0	5	90
random	1	1	53	206840	3	2	2	2	0	1191	2	4	0	16	48	0	5	91
random	1	1	54	208803	6	4	4	1	0	955	1	4	0	32	49	0	5	91
random	1	1	55	210285	4	2	2	1	0	1517	1	4	0	16	50	0	5	91
random	1	1	56	212445	1	1	1	1	0	1177	1	4	0	8	51	0	5	91
random	1	1	57	214536	5	4	4	1	0	857	1	4	0	32	52	0	5	91
random	1	1	58	215782	2	1	1	1	0	1132	1	4	0	8	53	0	5	91
random	1	1	59	217815	6	2	2	1	0	1294	1	4	0	16	54	0	5	92
random	1	1	60	220097	4	3	3	1	0	1301	1	4	0	24	55	0	5	92
random	1	1	61	222623	1	2	2	1	0	1018	1	4	0	16	56	0	5	92
random	1	1	62	224375	6	4	4	1	0	800	1	4	0	32	57	0	5	92
random	1	1	63	225916	4	1	1	1	0	887	1	4	0	8	58	0	5	92
random	1	1	64	227143	2	2	2	1	0	1011	1	4	0	16	59	0	5	92
random	1	1	65	229039	4	3	3	1	0	1522	1	4	0	24	60	0	5	92
random	1	1	66	231151	3	1	1	1	0	1081	1	4	0	8	61	0	5	92
random	1	1	67	232949	1	3	3	1	0	965	1	4	0	24	62	0	5	93
random	1	1	68	234271	5	4	4	1	0	877	1	4	0	32	63	0	5	93
random	1	1	69	235572	2	2	2	1	0	894	1	4	0	16	64	0	5	93
random	1	1	70	237124	3	1	1	1	0	876	1	4	0	8	65	0	5	93
random	1	1	71	238485	5	4	4	1	0	771	1	4	0	32	66	0	5	93
random	1	1	72	240156	6	3	0	1	2	0	3	4	0	24	66	0	6	92
random	1	1	73	243607	2	1	1	1	0	1033	1	4	0	8	67	0	6	92
random	1	1	74	245094	5	3	3	1	0	1162	1	4	0	24	68	0	6	92
random	1	1	75	246706	1	4	4	1	0	814	1	4	0	32	69	0	6	92
random	1	1	76	248296	6	2	2	1	0	835	1	4	0	16	70	0	6	92
random	1	1	77	249980	2	1	1	1	0	1092	1	4	0	8	71	0	6	92
random	1	1	78	252031	4	4	4	1	0	781	1	4	0	32	72	0	6	92
random	1	1	79	253722	3	2	2	1	0	1189	1	4	0	16	73	0	6	92
random	1	1	80	255812	4	3	3	1	0	1029	1	4	0	24	74	0	6	93
random	1	1	81	257407	1	4	4	1	0	881	1	4	0	32	75	0	6	93
random	1	1	82	259267	5	1	1	1	0	778	1	4	0	8	76	0	6	93
random	1	1	83	260770	3	2	2	1	0	995	1	4	0	16	77	0	6	93
random	1	1	84	262447	6	3	3	1	0	1220	1	4	0	24	78	0	6	93
random	1	1	85	264659	3	2	2	1	0	1662	1	4	0	16	79	0	6	93
random	1	1	86	267000	1	3	3	1	0	811	1	4	0	24	80	0	6	93
random	1	1	87	268282	4	4	4	1	0	868	1	4	0	32	81	0	6	93
random	1	1	88	269484	2	1	1	1	0	850	1	4	0	8	82	0	6	93
random	1	1	89	270727	6	4	0	1	2	0	3	4	0	32	82	0	7	92
random	1	1	90	273522	3	3	3	1	0	1095	1	4	0	24	83	0	7	92
random	1	1	91	275071	5	4	4	1	0	1029	1	4	0	32	84	0	7	92
random	1	1	92	276614	1	2	2	1	0	1300	1	4	0	16	85	0	7	92
random	1	1	93	278605	5	1	1	1	0	1096	1	4	0	8	86	0	7	92
random	1	1	94	280700	4	3	0	1	2	0	3	4	0	24	86	0	8	91
random	1	1	95	283874	6	1	0	1	2	0	3	4	0	8	86	0	9	91
random	1	1	96	287194	2	2	2	1	0	1124	1	4	0	16	87	0	9	91
random	1	1	97	289035	4	3	3	1	0	1941	1	4	0	24	88	0	9	91
random	1	1	98	291383	3	2	2	1	0	1130	1	4	0	16	89	0	9	91
random	1	1	99	292863	6	3	0	0	2	0	3	4	0	24	89	0	10	90
random	1	1	100	295999	1	4	4	1	0	2479	1	4	0	32	90	0	10	90
random	1	1	101	299242	4	1	1	1	0	581	1	4	0	8	91	0	10	90
random	1	1	102	300461	5	2	0	0	2	0	3	4	0	16	91	0	11	89
random	1	1	103	303986	2	4	4	1	0	829	1	4	0	32	92	0	11	89
random	1	1	104	305129	3	1	1	1	0	1140	1	4	0	8	93	0	11	89
random	1	1	105	306902	1	3	0	0	2	0	3	4	0	24	93	0	12	89
random	1	1	106	310024	2	2	0	0	2	0	3	4	0	16	93	0	13	88
random	1	1	107	313398	5	4	4	1	0	733	1	4	0	32	94	0	13	88
random	1	1	108	314924	6	1	1	1	0	1109	1	4	0	8	95	0	13	88
random	1	1	109	316737	5	4	4	1	0	952	1	4	0	32	96	0	13	88
random	1	1	110	318158	6	3	0	1	2	0	3	4	0	24	96	0	14	87
random	1	1	111	321174	2	2	0	0	2	0	3	4	0	16	96	0	15	86
random	1	1	112	324568	3	1	1	1	0	1093	1	4	0	8	97	0	15	87
random	1	1	113	326441	1	2	0	1	2	0	3	4	0	16	97	0	16	86
random	1	1	114	329244	2	3	0	0	2	0	3	4	0	24	97	0	17	85
random	1	1	115	332670	3	1	1	1	0	1150	1	4	0	8	98	0	17	85
random	1	1	116	334759	4	4	4	1	0	1253	1	4	0	32	99	0	17	85
random	1	1	117	336997	6	1	1	1	0	1150	1	4	0	8	100	0	17	85
random	1	1	118	338945	5	3	0	1	2	0	3	4	0	24	100	0	18	85
random	1	1	119	341931	1	4	4	1	0	989	1	4	0	32	101	0	18	85
random	1	1	120	343959	4	2	2	1	0	1127	1	4	0	16	102	0	18	85
fixed	2	1	1	346006	4	1	1	1	0	1216	1	4	0	40	1	0	0	100
fixed	2	1	2	347644	1	2	0	1	2	0	3	4	0	48	1	0	1	50
fixed	2	1	3	350736	6	4	4	1	0	1064	1	4	0	64	2	0	1	67
fixed	2	1	4	352717	2	1	1	1	0	916	1	4	0	40	3	0	1	75
fixed	2	1	5	354401	5	3	3	1	0	1189	1	4	0	56	4	0	1	80
fixed	2	1	6	355934	6	4	4	1	0	1316	1	4	0	64	5	0	1	83
fixed	2	1	7	358038	3	1	0	1	2	0	3	4	0	40	5	0	2	71
fixed	2	1	8	360956	2	3	3	1	0	1431	1	4	0	56	6	0	2	75
fixed	2	1	9	363298	3	2	2	1	0	844	1	4	0	48	7	0	2	78
fixed	2	1	10	364437	1	4	4	1	0	812	1	4	0	64	8	0	2	80
fixed	2	1	11	365694	5	2	2	1	0	1254	1	4	0	48	9	0	2	82
fixed	2	1	12	367336	4	3	3	2	0	1673	2	4	0	56	10	0	2	83
fixed	2	2	1	370218	4	1	1	1	0	1439	1	4	0	40	11	0	2	85
fixed	2	2	2	372135	1	2	2	1	0	1414	1	4	0	48	12	0	2	86
fixed	2	2	3	374260	6	4	4	1	0	1131	1	4	0	64	13	0	2	87
fixed	2	2	4	376210	2	1	1	2	0	2345	2	4	0	40	14	0	2	88
fixed	2	2	5	379085	5	3	3	1	0	1848	1	4	0	56	15	0	2	88
fixed	2	2	6	381744	6	4	4	1	0	1790	1	4	0	64	16	0	2	89
fixed	2	2	7	384195	3	1	1	1	0	879	1	4	0	40	17	0	2	89
fixed	2	2	8	385571	2	3	3	1	0	1540	1	4	0	56	18	0	2	90
fixed	2	2	9	387576	3	2	2	1	0	1063	1	4	0	48	19	0	2	90
fixed	2	2	10	389503	1	4	4	1	0	1054	1	4	0	64	20	0	2	91
fixed	2	2	11	391414	5	2	2	1	0	1333	1	4	0	48	21	0	2	91
fixed	2	2	12	393087	4	3	0	1	2	0	3	4	0	56	21	0	3	88
fixed	2	3	1	396299	4	1	1	1	0	1590	1	4	0	40	22	0	3	88
fixed	2	3	2	398854	1	2	2	2	0	2018	2	4	0	48	23	0	3	88
fixed	2	3	3	401457	6	4	4	1	0	796	1	4	0	64	24	0	3	89
fixed	2	3	4	403164	2	1	1	2	0	891	2	4	0	40	25	0	3	89
fixed	2	3	5	404953	5	3	3	1	0	1455	1	4	0	56	26	0	3	90
fixed	2	3	6	407353	6	4	4	1	0	866	1	4	0	64	27	0	3	90
fixed	2	3	7	409062	3	1	1	2	0	889	2	4	0	40	28	0	3	90
fixed	2	3	8	410725	2	3	3	1	0	1211	1	4	0	56	29	0	3	91
fixed	2	3	9	412396	3	2	2	1	0	1037	1	4	0	48	30	0	3	91
fixed	2	3	10	414079	1	4	4	1	0	1357	1	4	0	64	31	0	3	91
fixed	2	3	11	416461	5	2	2	1	0	1481	1	4	0	48	32	0	3	91
fixed	2	3	12	418558	4	3	3	1	0	1095	1	4	0	56	33	0	3	92
fixed	2	4	1	420207	4	1	1	1	0	1169	1	4	0	40	34	0	3	92
fixed	2	4	2	421820	1	2	2	1	0	1141	1	4	0	48	35	0	3	92
fixed	2	4	3	423494	6	4	4	1	0	759	1	4	0	64	36	0	3	92
fixed	2	4	4	424762	2	1	1	2	0	1177	2	4	0	40	37	0	3	93
fixed	2	4	5	426544	5	3	3	1	0	957	1	4	0	56	38	0	3	93
fixed	2	4	6	427804	6	4	4	1	0	912	1	4	0	64	39	0	3	93
fixed	2	4	7	429125	3	1	1	1	0	760	1	4	0	40	40	0	3	93
fixed	2	4	8	430223	2	3	3	2	0	1945	2	4	0	56	41	0	3	93
fixed	2	4	9	432814	3	2	2	1	0	956	1	4	0	48	42	0	3	93
fixed	2	4	10	434140	1	4	4	1	0	731	1	4	0	64	43	0	3	93
fixed	2	4	11	435541	5	2	2	1	0	976	1	4	0	48	44	0	3	94
fixed	2	4	12	437361	4	3	3	1	0	1075	1	4	0	56	45	0	3	94
fixed	2	5	1	439605	4	1	1	2	0	1284	2	4	0	40	46	0	3	94
fixed	2	5	2	441768	1	2	2	1	0	1344	1	4	0	48	47	0	3	94
fixed	2	5	3	443914	6	4	4	1	0	997	1	4	0	64	48	0	3	94
fixed	2	5	4	445792	2	1	1	2	0	1390	2	4	0	40	49	0	3	94
fixed	2	5	5	447694	5	3	3	2	0	1245	2	4	0	56	50	0	3	94
fixed	2	5	6	449443	6	4	4	1	0	931	1	4	0	64	51	0	3	94
fixed	2	5	7	451182	3	1	1	2	0	1185	2	4	0	40	52	0	3	95
fixed	2	5	8	453163	2	3	0	0	2	0	3	4	0	56	52	0	4	93
fixed	2	5	9	456335	3	2	2	1	0	1192	1	4	0	48	53	0	4	93
fixed	2	5	10	458282	1	4	4	1	0	757	1	4	0	64	54	0	4	93
fixed	2	5	11	459550	5	2	2	1	0	1080	1	4	0	48	55	0	4	93
fixed	2	5	12	460918	4	3	3	1	0	822	1	4	0	56	56	0	4	93
fixed	2	6	1	462712	4	1	1	2	0	1073	2	4	0	40	57	0	4	93
fixed	2	6	2	464596	1	2	0	0	2	0	3	4	0	48	57	0	5	92
fixed	2	6	3	467506	6	4	4	1	0	790	1	4	0	64	58	0	5	92
fixed	2	6	4	468959	2	1	1	1	0	928	1	4	0	40	59	0	5	92
fixed	2	6	5	470852	5	3	3	1	0	1040	1	4	0	56	60	0	5	92
fixed	2	6	6	472756	6	4	4	1	0	1032	1	4	0	64	61	0	5	92
fixed	2	6	7	474631	3	1	1	1	0	793	1	4	0	40	62	0	5	93
fixed	2	6	8	476154	2	3	3	2	0	1352	2	4	0	56	63	0	5	93
fixed	2	6	9	477824	3	2	2	1	0	913	1	4	0	48	64	0	5	93
fixed	2	6	10	479707	1	4	4	1	0	809	1	4	0	64	65	0	5	93
fixed	2	6	11	481114	5	2	2	1	0	998	1	4	0	48	66	0	5	93
fixed	2	6	12	482554	4	3	3	1	0	1417	1	4	0	56	67	0	5	93
fixed	2	7	1	485150	4	1	1	1	0	1115	1	4	0	40	68	0	5	93
fixed	2	7	2	486703	1	2	2	1	0	1193	1	4	0	48	69	0	5	93
fixed	2	7	3	488573	6	4	4	1	0	770	1	4	0	64	70	0	5	93
fixed	2	7	4	490385	2	1	1	3	0	1157	2	4	0	40	71	0	5	93
fixed	2	7	5	492508	5	3	3	1	0	1451	1	4	0	56	72	0	5	94
fixed	2	7	6	494458	6	4	4	1	0	1345	1	4	0	64	73	0	5	94
fixed	2	7	7	496431	3	1	1	1	0	893	1	4	0	40	74	0	5	94
fixed	2	7	8	497980	2	3	3	1	0	1011	1	4	0	56	75	0	5	94
fixed	2	7	9	499834	3	2	2	1	0	829	1	4	0	48	76	0	5	94
fixed	2	7	10	501284	1	4	4	1	0	936	1	4	0	64	77	0	5	94
fixed	2	7	11	502531	5	2	0	1	2	0	3	4	0	48	77	0	6	93
fixed	2	7	12	505699	4	3	0	1	2	0	3	4	0	56	77	0	7	92
fixed	2	8	1	508858	4	1	1	1	0	975	1	4	0	40	78	0	7	92
fixed	2	8	2	510579	1	2	2	1	0	1174	1	4	0	48	79	0	7	92
fixed	2	8	3	512264	6	4	4	1	0	1158	1	4	0	64	80	0	7	92
fixed	2	8	4	514020	2	1	1	1	0	996	1	4	0	40	81	0	7	92
fixed	2	8	5	515857	5	3	3	1	0	1254	1	4	0	56	82	0	7	92
fixed	2	8	6	517606	6	4	4	1	0	868	1	4	0	64	83	0	7	92
fixed	2	8	7	518815	3	1	1	1	0	1129	1	4	0	40	84	0	7	92
fixed	2	8	8	520356	2	3	3	1	0	1376	1	4	0	56	85	0	7	92
fixed	2	8	9	522730	3	2	2	1	0	907	1	4	0	48	86	0	7	92
fixed	2	8	10	524550	1	4	4	1	0	918	1	4	0	64	87	0	7	93
fixed	2	8	11	526055	5	2	2	1	0	1142	1	4	0	48	88	0	7	93
fixed	2	8	12	528053	4	3	3	1	0	985	1	4	0	56	89	0	7	93
fixed	2	9	1	529726	4	1	1	1	0	971	1	4	0	40	90	0	7	93
fixed	2	9	2	531495	1	2	2	1	0	1048	1	4	0	48	91	0	7	93
fixed	2	9	3	533305	6	4	4	1	0	795	1	4	0	64	92	0	7	93
fixed	2	9	4	534616	2	1	1	2	0	1028	2	4	0	40	93	0	7	93
fixed	2	9	5	536066	5	3	3	1	0	1070	1	4	0	56	94	0	7	93
fixed	2	9	6	537652	6	4	4	1	0	1195	1	4	0	64	95	0	7	93
fixed	2	9	7	539858	3	1	1	1	0	702	1	4	0	40	96	0	7	93
fixed	2	9	8	540961	2	3	3	1	0	1007	1	4	0	56	97	0	7	93
fixed	2	9	9	542742	3	2	2	1	0	651	1	4	0	48	98	0	7	93
fixed	2	9	10	544070	1	4	4	1	0	683	1	4	0	64	99	0	7	93
fixed	2	9	11	545085	5	2	2	1	0	1040	1	4	0	48	100	0	7	93
fixed	2	9	12	546484	4	3	3	1	0	1061	1	4	0	56	101	0	7	94
fixed	2	10	1	548773	4	1	1	2	0	1236	2	4	0	40	102	0	7	94
fixed	2	10	2	550506	1	2	2	2	0	1219	2	4	0	48	103	0	7	94
fixed	2	10	3	552593	6	4	4	1	0	1347	1	4	0	64	104	0	7	94
fixed	2	10	4	554925	2	1	1	1	0	1424	1	4	0	40	105	0	7	94
fixed	2	10	5	556847	5	3	0	1	2	0	3	4	0	56	105	0	8	93
fixed	2	10	6	560066	6	4	0	0	2	0	3	4	0	64	105	0	9	92
fixed	2	10	7	563187	3	1	1	1	0	994	1	4	0	40	106	0	9	92
fixed	2	10	8	565207	2	3	3	1	0	1036	1	4	0	56	107	0	9	92
fixed	2	10	9	566577	3	2	2	1	0	1090	1	4	0	48	108	0	9	92
fixed	2	10	10	568620	1	4	4	1	0	731	1	4	0	64	109	0	9	92
fixed	2	10	11	570206	5	2	2	1	0	952	1	4	0	48	110	0	9	92
fixed	2	10	12	572048	4	3	3	1	0	1130	1	4	0	56	111	0	9	93
fixed	3	1	1	574233	4	1	1	1	0	982	1	4	0	72	1	0	0	100
fixed	3	1	2	575926	1	2	2	1	0	1166	1	4	0	80	2	0	0	100
fixed	3	1	3	578015	6	4	4	1	0	854	1	4	0	96	3	0	0	100
fixed	3	1	4	579443	2	1	1	1	0	1225	1	4	0	72	4	0	0	100
fixed	3	1	5	581475	5	3	3	2	0	1451	2	4	0	88	5	0	0	100
fixed	3	1	6	583375	6	4	4	1	0	1546	1	4	0	96	6	0	0	100
fixed	3	1	7	585436	3	1	1	1	0	1899	1	4	0	72	7	0	0	100
fixed	3	1	8	587681	2	3	3	1	0	1501	1	4	0	88	8	0	0	100
fixed	3	1	9	590083	3	2	2	1	0	1959	1	4	0	80	9	0	0	100
fixed	3	1	10	592787	1	4	4	3	0	748	2	4	0	96	10	0	0	100
fixed	3	1	11	594304	5	2	2	1	0	884	1	4	0	80	11	0	0	100
fixed	3	1	12	595805	4	3	3	1	0	1524	1	4	0	88	12	0	0	100
fixed	3	2	1	598411	4	1	1	1	0	1022	1	4	0	72	13	0	0	100
fixed	3	2	2	600443	1	2	0	0	2	0	3	4	0	80	13	0	1	93
fixed	3	2	3	603596	6	4	4	1	0	938	1	4	0	96	14	0	1	93
fixed	3	2	4	605576	2	1	1	1	0	790	1	4	0	72	15	0	1	94
fixed	3	2	5	607275	5	3	3	1	0	1038	1	4	0	88	16	0	1	94
fixed	3	2	6	608665	6	4	4	1	0	868	1	4	0	96	17	0	1	94
fixed	3	2	7	610524	3	1	1	1	0	1196	1	4	0	72	18	0	1	95
fixed	3	2	8	612284	2	3	3	1	0	1234	1	4	0	88	19	0	1	95
fixed	3	2	9	613800	3	2	2	1	0	1362	1	4	0	80	20	0	1	95
fixed	3	2	10	616026	1	4	4	1	0	564	1	4	0	96	21	0	1	95
fixed	3	2	11	617216	5	2	2	1	0	897	1	4	0	80	22	0	1	96
fixed	3	2	12	618969	4	3	0	1	2	0	3	4	0	88	22	0	2	92
fixed	3	3	1	622687	4	1	1	1	0	833	1	4	0	72	23	0	2	92
fixed	3	3	2	624532	1	2	2	1	0	995	1	4	0	80	24	0	2	92
fixed	3	3	3	626066	6	4	4	1	0	898	1	4	0	96	25	0	2	93
fixed	3	3	4	627483	2	1	1	1	0	1166	1	4	0	72	26	0	2	93
fixed	3	3	5	629210	5	3	0	0	2	0	3	4	0	88	26	0	3	90
fixed	3	3	6	632502	6	4	4	2	0	1146	2	4	0	96	27	0	3	90
fixed	3	3	7	634544	3	1	1	2	0	843	2	4	0	72	28	0	3	90
fixed	3	3	8	636011	2	3	3	1	0	1061	1	4	0	88	29	0	3	91
fixed	3	3	9	638021	3	2	2	1	0	824	1	4	0	80	30	0	3	91
fixed	3	3	10	639366	1	4	4	1	0	887	1	4	0	96	31	0	3	91
fixed	3	3	11	641209	5	2	2	1	0	1057	1	4	0	80	32	0	3	91
fixed	3	3	12	643254	4	3	3	1	0	2282	1	4	0	88	33	0	3	92
fixed	3	4	1	646797	4	1	1	1	0	1108	1	4	0	72	34	0	3	92
fixed	3	4	2	648327	1	2	2	1	0	964	1	4	0	80	35	0	3	92
fixed	3	4	3	650011	6	4	4	1	0	844	1	4	0	96	36	0	3	92
fixed	3	4	4	651533	2	1	1	1	0	868	1	4	0	72	37	0	3	93
fixed	3	4	5	652734	5	3	3	1	0	1305	1	4	0	88	38	0	3	93
fixed	3	4	6	654696	6	4	4	1	0	1030	1	4	0	96	39	0	3	93
fixed	3	4	7	656161	3	1	1	2	0	1544	2	4	0	72	40	0	3	93
fixed	3	4	8	658727	2	3	3	1	0	1107	1	4	0	88	41	0	3	93
fixed	3	4	9	660769	3	2	2	1	0	861	1	4	0	80	42	0	3	93
fixed	3	4	10	662596	1	4	4	1	0	783	1	4	0	96	43	0	3	93
fixed	3	4	11	664069	5	2	2	1	0	1137	1	4	0	80	44	0	3	94
fixed	3	4	12	665679	4	3	3	2	0	1037	2	4	0	88	45	0	3	94
fixed	3	5	1	667464	4	1	1	2	0	1217	2	4	0	72	46	0	3	94
fixed	3	5	2	669103	1	2	2	1	0	1059	1	4	0	80	47	0	3	94
fixed	3	5	3	670851	6	4	4	1	0	890	1	4	0	96	48	0	3	94
fixed	3	5	4	672196	2	1	1	2	0	1409	2	4	0	72	49	0	3	94
fixed	3	5	5	673962	5	3	3	1	0	1381	1	4	0	88	50	0	3	94
fixed	3	5	6	676105	6	4	4	1	0	987	1	4	0	96	51	0	3	94
fixed	3	5	7	677406	3	1	1	2	0	1652	2	4	0	72	52	0	3	95
fixed	3	5	8	679835	2	3	0	1	2	0	3	4	0	88	52	0	4	93
fixed	3	5	9	683107	3	2	2	1	0	1194	1	4	0	80	53	0	4	93
fixed	3	5	10	684757	1	4	4	2	0	1036	2	4	0	96	54	0	4	93
fixed	3	5	11	686121	5	2	2	1	0	1203	1	4	0	80	55	0	4	93
fixed	3	5	12	688067	4	3	3	1	0	1416	1	4	0	88	56	0	4	93
fixed	3	6	1	690404	4	1	1	1	0	981	1	4	0	72	57	0	4	93
fixed	3	6	2	692354	1	2	2	1	0	947	1	4	0	80	58	0	4	94
fixed	3	6	3	693876	6	4	4	1	0	882	1	4	0	96	59	0	4	94
fixed	3	6	4	695644	2	1	1	2	0	944	2	4	0	72	60	0	4	94
fixed	3	6	5	697352	5	3	3	1	0	1591	1	4	0	88	61	0	4	94
fixed	3	6	6	699436	6	4	4	1	0	855	1	4	0	96	62	0	4	94
fixed	3	6	7	700690	3	1	1	1	0	1306	1	4	0	72	63	0	4	94
fixed	3	6	8	702853	2	3	3	1	0	1214	1	4	0	88	64	0	4	94
fixed	3	6	9	704920	3	2	2	1	0	983	1	4	0	80	65	0	4	94
fixed	3	6	10	706438	1	4	4	1	0	1015	1	4	0	96	66	0	4	94
fixed	3	6	11	708441	5	2	2	1	0	1090	1	4	0	80	67	0	4	94
fixed	3	6	12	710554	4	3	3	1	0	728	1	4	0	88	68	0	4	94
fixed	3	7	1	712040	4	1	1	1	0	817	1	4	0	72	69	0	4	95
fixed	3	7	2	713736	1	2	2	1	0	937	1	4	0	80	70	0	4	95
fixed	3	7	3	715119	6	4	4	1	0	967	1	4	0	96	71	0	4	95
fixed	3	7	4	716738	2	1	1	1	0	1066	1	4	0	72	72	0	4	95
fixed	3	7	5	718574	5	3	3	1	0	1036	1	4	0	88	73	0	4	95
fixed	3	7	6	720085	6	4	4	1	0	980	1	4	0	96	74	0	4	95
fixed	3	7	7	721921	3	1	1	1	0	895	1	4	0	72	75	0	4	95
fixed	3	7	8	723828	2	3	3	1	0	1526	1	4	0	88	76	0	4	95
fixed	3	7	9	726141	3	2	2	1	0	859	1	4	0	80	77	0	4	95
fixed	3	7	10	727925	1	4	4	1	0	968	1	4	0	96	78	0	4	95
fixed	3	7	11	729355	5	2	2	1	0	1068	1	4	0	80	79	0	4	95
fixed	3	7	12	731325	4	3	3	1	0	880	1	4	0	88	80	0	4	95
fixed	3	8	1	733426	4	1	1	1	0	735	1	4	0	72	81	0	4	95
fixed	3	8	2	734761	1	2	2	1	0	958	1	4	0	80	82	0	4	95
fixed	3	8	3	736222	6	4	4	1	0	809	1	4	0	96	83	0	4	95
fixed	3	8	4	737323	2	1	1	2	0	1338	2	4	0	72	84	0	4	95
fixed	3	8	5	739048	5	3	0	1	2	0	3	4	0	88	84	0	5	94
fixed	3	8	6	742524	6	4	4	1	0	1150	1	4	0	96	85	0	5	94
fixed	3	8	7	744604	3	1	1	1	0	982	1	4	0	72	86	0	5	95
fixed	3	8	8	745889	2	3	3	1	0	1271	1	4	0	88	87	0	5	95
fixed	3	8	9	747585	3	2	2	1	0	736	1	4	0	80	88	0	5	95
fixed	3	8	10	748752	1	4	4	1	0	766	1	4	0	96	89	0	5	95
fixed	3	8	11	750316	5	2	2	1	0	875	1	4	0	80	90	0	5	95
fixed	3	8	12	751750	4	3	3	1	0	951	1	4	0	88	91	0	5	95
fixed	3	9	1	753291	4	1	1	1	0	1198	1	4	0	72	92	0	5	95
fixed	3	9	2	754834	1	2	2	1	0	1140	1	4	0	80	93	0	5	95
fixed	3	9	3	756970	6	4	4	1	0	722	1	4	0	96	94	0	5	95
fixed	3	9	4	758384	2	1	0	1	2	0	3	4	0	72	94	0	6	94
fixed	3	9	5	761587	5	3	3	1	0	1415	1	4	0	88	95	0	6	94
fixed	3	9	6	763552	6	4	4	1	0	1011	1	4	0	96	96	0	6	94
fixed	3	9	7	765069	3	1	1	1	0	963	1	4	0	72	97	0	6	94
fixed	3	9	8	766675	2	3	3	1	0	1439	1	4	0	88	98	0	6	94
fixed	3	9	9	768681	3	2	2	1	0	754	1	4	0	80	99	0	6	94
fixed	3	9	10	769943	1	4	4	1	0	693	1	4	0	96	100	0	6	94
fixed	3	9	11	771028	5	2	2	1	0	831	1	4	0	80	101	0	6	94
fixed	3	9	12	772496	4	3	3	1	0	760	1	4	0	88	102	0	6	94
fixed	3	10	1	773875	4	1	1	2	0	1326	2	4	0	72	103	0	6	94
fixed	3	10	2	775937	1	2	0	1	2	0	3	4	0	80	103	0	7	94
fixed	3	10	3	779274	6	4	4	1	0	745	1	4	0	96	104	0	7	94
fixed	3	10	4	781049	2	1	1	1	0	1062	1	4	0	72	105	0	7	94
fixed	3	10	5	782688	5	3	3	1	0	1145	1	4	0	88	106	0	7	94
fixed	3	10	6	784799	6	4	4	1	0	952	1	4	0	96	107	0	7	94
fixed	3	10	7	786246	3	1	1	2	0	1202	2	4	0	72	108	0	7	94
fixed	3	10	8	787869	2	3	3	1	0	997	1	4	0	88	109	0	7	94
fixed	3	10	9	789835	3	2	2	1	0	778	1	4	0	80	110	0	7	94
fixed	3	10	10	791342	1	4	4	1	0	826	1	4	0	96	111	0	7	94
fixed	3	10	11	793067	5	2	2	1	0	1225	1	4	0	80	112	0	7	94
fixed	3	10	12	794995	4	3	3	1	0	655	1	4	0	88	113	0	7	94
fixed	4	1	1	882707	4	1	1	1	0	1004	1	4	0	104	1	0	0	100
fixed	4	1	2	884335	1	2	2	1	0	1159	1	4	0	112	2	0	0	100
fixed	4	1	3	885937	6	4	4	1	0	699	1	4	0	128	3	0	0	100
fixed	4	1	4	886957	2	1	1	1	0	840	1	4	0	104	4	0	0	100
fixed	4	1	5	888093	5	3	3	1	0	1088	1	4	0	120	5	0	0	100
fixed	4	1	6	889803	6	4	4	1	0	808	1	4	0	128	6	0	0	100
fixed	4	1	7	891561	3	1	1	1	0	798	1	4	0	104	7	0	0	100
fixed	4	1	8	893108	2	3	3	1	0	1124	1	4	0	120	8	0	0	100
fixed	4	1	9	895084	3	2	2	1	0	872	1	4	0	112	9	0	0	100
fixed	4	1	10	896947	1	4	4	1	0	665	1	4	0	128	10	0	0	100
fixed	4	1	11	898201	5	2	2	1	0	988	1	4	0	112	11	0	0	100
fixed	4	1	12	899874	4	3	3	1	0	917	1	4	0	120	12	0	0	100
fixed	4	2	1	901639	4	1	1	2	0	890	2	4	0	104	13	0	0	100
fixed	4	2	2	903325	1	2	2	1	0	1043	1	4	0	112	14	0	0	100
fixed	4	2	3	904844	6	4	4	1	0	778	1	4	0	128	15	0	0	100
fixed	4	2	4	906601	2	1	1	1	0	856	1	4	0	104	16	0	0	100
fixed	4	2	5	908163	5	3	3	1	0	1070	1	4	0	120	17	0	0	100
fixed	4	2	6	910227	6	4	4	1	0	742	1	4	0	128	18	0	0	100
fixed	4	2	7	911283	3	1	1	1	0	1010	1	4	0	104	19	0	0	100
fixed	4	2	8	912847	2	3	3	1	0	1143	1	4	0	120	20	0	0	100
fixed	4	2	9	914713	3	2	2	2	0	913	2	4	0	112	21	0	0	100
fixed	4	2	10	916417	1	4	4	1	0	705	1	4	0	128	22	0	0	100
fixed	4	2	11	917662	5	2	2	1	0	884	1	4	0	112	23	0	0	100
fixed	4	2	12	919087	4	3	3	1	0	1087	1	4	0	120	24	0	0	100
fixed	4	3	1	920986	4	1	1	1	0	1063	1	4	0	104	25	0	0	100
fixed	4	3	2	922875	1	2	2	1	0	1007	1	4	0	112	26	0	0	100
fixed	4	3	3	924715	6	4	4	1	0	745	1	4	0	128	27	0	0	100
fixed	4	3	4	926207	2	1	1	1	0	962	1	4	0	104	28	0	0	100
fixed	4	3	5	927530	5	3	0	1	2	0	3	4	0	120	28	0	1	97
fixed	4	3	6	930854	6	4	4	1	0	1117	1	4	0	128	29	0	1	97
fixed	4	3	7	932522	3	1	1	1	0	1518	1	4	0	104	30	0	1	97
fixed	4	3	8	935001	2	3	3	1	0	1165	1	4	0	120	31	0	1	97
fixed	4	3	9	937177	3	2	2	2	0	1841	2	4	0	112	32	0	1	97
fixed	4	3	10	939343	1	4	4	1	0	750	1	4	0	128	33	0	1	97
fixed	4	3	11	941072	5	2	2	1	0	972	1	4	0	112	34	0	1	97
fixed	4	3	12	942663	4	3	3	2	0	1137	2	4	0	120	35	0	1	97
fixed	4	4	1	944978	4	1	1	1	0	1015	1	4	0	104	36	0	1	97
fixed	4	4	2	946335	1	2	2	1	0	1109	1	4	0	112	37	0	1	97
fixed	4	4	3	947770	6	4	4	1	0	872	1	4	0	128	38	0	1	97
fixed	4	4	4	949192	2	1	1	1	0	1052	1	4	0	104	39	0	1	98
fixed	4	4	5	951105	5	3	3	1	0	1460	1	4	0	120	40	0	1	98
fixed	4	4	6	953564	6	4	4	1	0	1131	1	4	0	128	41	0	1	98
fixed	4	4	7	955507	3	1	1	1	0	1345	1	4	0	104	42	0	1	98
fixed	4	4	8	957640	2	3	3	1	0	1495	1	4	0	120	43	0	1	98
fixed	4	4	9	959997	3	2	2	1	0	650	1	4	0	112	44	0	1	98
fixed	4	4	10	960943	1	4	4	1	0	779	1	4	0	128	45	0	1	98
fixed	4	4	11	962694	5	2	2	1	0	1008	1	4	0	112	46	0	1	98
fixed	4	4	12	964186	4	3	3	1	0	889	1	4	0	120	47	0	1	98
fixed	4	5	1	966080	4	1	1	1	0	1089	1	4	0	104	48	0	1	98
fixed	4	5	2	967588	1	2	2	1	0	1049	1	4	0	112	49	0	1	98
fixed	4	5	3	969256	6	4	4	1	0	930	1	4	0	128	50	0	1	98
fixed	4	5	4	971185	2	1	1	1	0	945	1	4	0	104	51	0	1	98
fixed	4	5	5	972429	5	3	3	1	0	1268	1	4	0	120	52	0	1	98
fixed	4	5	6	974263	6	4	4	1	0	935	1	4	0	128	53	0	1	98
fixed	4	5	7	975493	3	1	1	1	0	1298	1	4	0	104	54	0	1	98
fixed	4	5	8	977157	2	3	3	1	0	1092	1	4	0	120	55	0	1	98
fixed	4	5	9	978939	3	2	2	1	0	993	1	4	0	112	56	0	1	98
fixed	4	5	10	980462	1	4	4	1	0	776	1	4	0	128	57	0	1	98
fixed	4	5	11	981807	5	2	2	1	0	871	1	4	0	112	58	0	1	98
fixed	4	5	12	983490	4	3	3	2	0	1343	2	4	0	120	59	0	1	98
fixed	4	6	1	985929	4	1	1	1	0	896	1	4	0	104	60	0	1	98
fixed	4	6	2	987862	1	2	2	1	0	1351	1	4	0	112	61	0	1	98
fixed	4	6	3	990035	6	4	4	1	0	1035	1	4	0	128	62	0	1	98
fixed	4	6	4	991586	2	1	1	1	0	1217	1	4	0	104	63	0	1	98
fixed	4	6	5	993706	5	3	3	1	0	1047	1	4	0	120	64	0	1	98
fixed	4	6	6	995761	6	4	4	1	0	1168	1	4	0	128	65	0	1	98
fixed	4	6	7	997674	3	1	1	2	0	1407	2	4	0	104	66	0	1	99
fixed	4	6	8	999739	2	3	3	1	0	1111	1	4	0	120	67	0	1	99
fixed	4	6	9	1001480	3	2	2	1	0	822	1	4	0	112	68	0	1	99
fixed	4	6	10	1002931	1	4	4	1	0	728	1	4	0	128	69	0	1	99
fixed	4	6	11	1004599	5	2	2	1	0	1050	1	4	0	112	70	0	1	99
fixed	4	6	12	1006304	4	3	3	2	0	1417	2	4	0	120	71	0	1	99
fixed	4	7	1	1008568	4	1	1	1	0	929	1	4	0	104	72	0	1	99
fixed	4	7	2	1010322	1	2	2	1	0	871	1	4	0	112	73	0	1	99
fixed	4	7	3	1012036	6	4	4	1	0	799	1	4	0	128	74	0	1	99
fixed	4	7	4	1013618	2	1	1	1	0	1547	1	4	0	104	75	0	1	99
fixed	4	7	5	1015794	5	3	3	1	0	1591	1	4	0	120	76	0	1	99
fixed	4	7	6	1017805	6	4	4	1	0	1130	1	4	0	128	77	0	1	99
fixed	4	7	7	1019587	3	1	1	1	0	903	1	4	0	104	78	0	1	99
fixed	4	7	8	1021512	2	3	3	1	0	1149	1	4	0	120	79	0	1	99
fixed	4	7	9	1023467	3	2	2	1	0	659	1	4	0	112	80	0	1	99
fixed	4	7	10	1025052	1	4	4	1	0	759	1	4	0	128	81	0	1	99
fixed	4	7	11	1026555	5	2	2	1	0	1224	1	4	0	112	82	0	1	99
fixed	4	7	12	1028275	4	3	3	1	0	719	1	4	0	120	83	0	1	99
fixed	4	8	1	1030121	4	1	1	1	0	760	1	4	0	104	84	0	1	99
fixed	4	8	2	1031773	1	2	2	2	0	1010	2	4	0	112	85	0	1	99
fixed	4	8	3	1033795	6	4	4	1	0	933	1	4	0	128	86	0	1	99
fixed	4	8	4	1035457	2	1	1	1	0	1343	1	4	0	104	87	0	1	99
fixed	4	8	5	1037119	5	3	3	1	0	1096	1	4	0	120	88	0	1	99
fixed	4	8	6	1038756	6	4	4	1	0	986	1	4	0	128	89	0	1	99
fixed	4	8	7	1040634	3	1	1	2	0	1059	2	4	0	104	90	0	1	99
fixed	4	8	8	1042445	2	3	3	1	0	1039	1	4	0	120	91	0	1	99
fixed	4	8	9	1044071	3	2	2	1	0	881	1	4	0	112	92	0	1	99
fixed	4	8	10	1045764	1	4	4	1	0	690	1	4	0	128	93	0	1	99
fixed	4	8	11	1047399	5	2	2	1	0	837	1	4	0	112	94	0	1	99
fixed	4	8	12	1048956	4	3	3	1	0	643	1	4	0	120	95	0	1	99
fixed	4	9	1	1050504	4	1	1	1	0	1025	1	4	0	104	96	0	1	99
fixed	4	9	2	1052420	1	2	2	1	0	1032	1	4	0	112	97	0	1	99
fixed	4	9	3	1053896	6	4	4	1	0	873	1	4	0	128	98	0	1	99
fixed	4	9	4	1055400	2	1	1	1	0	1410	1	4	0	104	99	0	1	99
fixed	4	9	5	1057807	5	3	3	2	0	1268	2	4	0	120	100	0	1	99
fixed	4	9	6	1059719	6	4	4	1	0	1683	1	4	0	128	101	0	1	99
fixed	4	9	7	1061697	3	1	1	1	0	1175	1	4	0	104	102	0	1	99
fixed	4	9	8	1063517	2	3	3	1	0	1130	1	4	0	120	103	0	1	99
fixed	4	9	9	1065579	3	2	2	1	0	819	1	4	0	112	104	0	1	99
fixed	4	9	10	1067187	1	4	4	1	0	1111	1	4	0	128	105	0	1	99
fixed	4	9	11	1068642	5	2	2	1	0	1177	1	4	0	112	106	0	1	99
fixed	4	9	12	1070119	4	3	3	1	0	834	1	4	0	120	107	0	1	99
fixed	4	10	1	1071823	4	1	1	1	0	858	1	4	0	104	108	0	1	99
fixed	4	10	2	1073034	1	2	2	1	0	1095	1	4	0	112	109	0	1	99
fixed	4	10	3	1074533	6	4	4	1	0	903	1	4	0	128	110	0	1	99
fixed	4	10	4	1076097	2	1	1	1	0	853	1	4	0	104	111	0	1	99
fixed	4	10	5	1077810	5	3	3	1	0	1493	1	4	0	120	112	0	1	99
fixed	4	10	6	1080061	6	4	4	1	0	797	1	4	0	128	113	0	1	99
fixed	4	10	7	1081864	3	1	1	2	0	2185	2	4	0	104	114	0	1	99
fixed	4	10	8	1084738	2	3	0	0	2	0	3	4	0	120	114	0	2	98
fixed	4	10	9	1087679	3	2	2	1	0	874	1	4	0	112	115	0	2	98
fixed	4	10	10	1089578	1	4	4	1	0	858	1	4	0	128	116	0	2	98
fixed	4	10	11	1090825	5	2	2	1	0	845	1	4	0	112	117	0	2	98
fixed	4	10	12	1092445	4	3	3	2	0	1457	2	4	0	120	118	0	2	98
fixed	5	1	1	1094927	4	1	1	1	0	975	1	4	0	136	1	0	0	100
fixed	5	1	2	1096545	1	2	2	1	0	1211	1	4	0	144	2	0	0	100
fixed	5	1	3	1098456	6	4	4	1	0	898	1	4	0	160	3	0	0	100
fixed	5	1	4	1100381	2	1	0	1	2	0	3	4	0	136	3	0	1	75
fixed	5	1	5	1103178	5	3	3	1	0	1346	1	4	0	152	4	0	1	80
fixed	5	1	6	1104917	6	4	4	1	0	929	1	4	0	160	5	0	1	83
fixed	5	1	7	1106266	3	1	1	2	0	1279	2	4	0	136	6	0	1	86
fixed	5	1	8	1108251	2	3	3	1	0	1091	1	4	0	152	7	0	1	88
fixed	5	1	9	1110207	3	2	2	1	0	744	1	4	0	144	8	0	1	89
fixed	5	1	10	1111486	1	4	4	1	0	762	1	4	0	160	9	0	1	90
fixed	5	1	11	1113255	5	2	2	1	0	895	1	4	0	144	10	0	1	91
fixed	5	1	12	1114482	4	3	3	1	0	1443	1	4	0	152	11	0	1	92
fixed	5	2	1	1116700	4	1	1	1	0	2197	1	4	0	136	12	0	1	92
fixed	5	2	2	1119688	1	2	2	1	0	1078	1	4	0	144	13	0	1	93
fixed	5	2	3	1121592	6	4	4	1	0	1702	1	4	0	160	14	0	1	93
fixed	5	2	4	1124283	2	1	1	1	0	1260	1	4	0	136	15	0	1	94
fixed	5	2	5	1126558	5	3	3	1	0	2252	1	4	0	152	16	0	1	94
fixed	5	2	6	1129423	6	4	4	1	0	2379	1	4	0	160	17	0	1	94
fixed	5	2	7	1132597	3	1	1	1	0	1076	1	4	0	136	18	0	1	95
fixed	5	2	8	1133959	2	3	3	1	0	1274	1	4	0	152	19	0	1	95
fixed	5	2	9	1135711	3	2	2	1	0	752	1	4	0	144	20	0	1	95
fixed	5	2	10	1137494	1	4	4	1	0	693	1	4	0	160	21	0	1	95
fixed	5	2	11	1138883	5	2	2	1	0	1978	1	4	0	144	22	0	1	96
fixed	5	2	12	1141448	4	3	3	1	0	613	1	4	0	152	23	0	1	96
fixed	5	3	1	1143332	4	1	1	1	0	909	1	4	0	136	24	0	1	96
fixed	5	3	2	1144880	1	2	2	1	0	964	1	4	0	144	25	0	1	96
fixed	5	3	3	1146353	6	4	4	1	0	789	1	4	0	160	26	0	1	96
fixed	5	3	4	1147447	2	1	1	1	0	1079	1	4	0	136	27	0	1	96
fixed	5	3	5	1149002	5	3	0	1	2	0	3	4	0	152	27	0	2	93
fixed	5	3	6	1152437	6	4	4	3	0	827	2	4	0	160	28	0	2	93
fixed	5	3	7	1153899	3	1	1	1	0	1078	1	4	0	136	29	0	2	94
fixed	5	3	8	1155610	2	3	3	3	0	1725	2	4	0	152	30	0	2	94
fixed	5	3	9	1158145	3	2	2	1	0	834	1	4	0	144	31	0	2	94
fixed	5	3	10	1159305	1	4	4	1	0	769	1	4	0	160	32	0	2	94
fixed	5	3	11	1160835	5	2	2	1	0	824	1	4	0	144	33	0	2	94
fixed	5	3	12	1162679	4	3	3	2	0	1282	2	4	0	152	34	0	2	94
fixed	5	4	1	1164834	4	1	1	2	0	1246	2	4	0	136	35	0	2	95
fixed	5	4	2	1166706	1	2	2	2	0	1935	2	4	0	144	36	0	2	95
fixed	5	4	3	1169375	6	4	4	1	0	1127	1	4	0	160	37	0	2	95
fixed	5	4	4	1170876	2	1	1	1	0	1815	1	4	0	136	38	0	2	95
fixed	5	4	5	1173514	5	3	3	1	0	1583	1	4	0	152	39	0	2	95
fixed	5	4	6	1175960	6	4	4	1	0	831	1	4	0	160	40	0	2	95
fixed	5	4	7	1177225	3	1	1	1	0	1130	1	4	0	136	41	0	2	95
fixed	5	4	8	1179005	2	3	3	1	0	1366	1	4	0	152	42	0	2	95
fixed	5	4	9	1180974	3	2	2	1	0	715	1	4	0	144	43	0	2	96
fixed	5	4	10	1182604	1	4	4	1	0	838	1	4	0	160	44	0	2	96
fixed	5	4	11	1183751	5	2	2	1	0	1037	1	4	0	144	45	0	2	96
fixed	5	4	12	1185532	4	3	3	1	0	722	1	4	0	152	46	0	2	96
fixed	5	5	1	1187457	4	1	1	1	0	840	1	4	0	136	47	0	2	96
fixed	5	5	2	1188988	1	2	2	1	0	984	1	4	0	144	48	0	2	96
fixed	5	5	3	1190441	6	4	4	1	0	914	1	4	0	160	49	0	2	96
fixed	5	5	4	1191874	2	1	1	1	0	1429	1	4	0	136	50	0	2	96
fixed	5	5	5	1194235	5	3	3	1	0	994	1	4	0	152	51	0	2	96
fixed	5	5	6	1195553	6	4	4	1	0	1442	1	4	0	160	52	0	2	96
fixed	5	5	7	1198014	3	1	0	1	2	0	3	4	0	136	52	0	3	95
fixed	5	5	8	1201509	2	3	3	1	0	1349	1	4	0	152	53	0	3	95
fixed	5	5	9	1203860	3	2	2	1	0	802	1	4	0	144	54	0	3	95
fixed	5	5	10	1205140	1	4	4	1	0	803	1	4	0	160	55	0	3	95
fixed	5	5	11	1206862	5	2	2	1	0	883	1	4	0	144	56	0	3	95
fixed	5	5	12	1208684	4	3	3	1	0	725	1	4	0	152	57	0	3	95
fixed	5	6	1	1210480	4	1	1	2	0	921	2	4	0	136	58	0	3	95
fixed	5	6	2	1211888	1	2	2	1	0	926	1	4	0	144	59	0	3	95
fixed	5	6	3	1213344	6	4	4	1	0	768	1	4	0	160	60	0	3	95
fixed	5	6	4	1214636	2	1	1	1	0	978	1	4	0	136	61	0	3	95
fixed	5	6	5	1215914	5	3	3	1	0	1843	1	4	0	152	62	0	3	95
fixed	5	6	6	1218707	6	4	4	1	0	861	1	4	0	160	63	0	3	95
fixed	5	6	7	1220051	3	1	1	2	0	1068	2	4	0	136	64	0	3	96
fixed	5	6	8	1221705	2	3	3	1	0	1237	1	4	0	152	65	0	3	96
fixed	5	6	9	1223970	3	2	2	1	0	806	1	4	0	144	66	0	3	96
fixed	5	6	10	1225618	1	4	4	1	0	736	1	4	0	160	67	0	3	96
fixed	5	6	11	1227132	5	2	2	1	0	1136	1	4	0	144	68	0	3	96
fixed	5	6	12	1228716	4	3	3	1	0	597	1	4	0	152	69	0	3	96
fixed	5	7	1	1229911	4	1	1	1	0	834	1	4	0	136	70	0	3	96
fixed	5	7	2	1231169	1	2	2	1	0	949	1	4	0	144	71	0	3	96
fixed	5	7	3	1232517	6	4	4	1	0	772	1	4	0	160	72	0	3	96
fixed	5	7	4	1233714	2	1	1	2	0	1065	2	4	0	136	73	0	3	96
fixed	5	7	5	1235749	5	3	3	2	0	1427	2	4	0	152	74	0	3	96
fixed	5	7	6	1237927	6	4	4	1	0	887	1	4	0	160	75	0	3	96
fixed	5	7	7	1239840	3	1	1	1	0	1654	1	4	0	136	76	0	3	96
fixed	5	7	8	1242370	2	3	3	1	0	851	1	4	0	152	77	0	3	96
fixed	5	7	9	1243611	3	2	2	1	0	1566	1	4	0	144	78	0	3	96
fixed	5	7	10	1246018	1	4	4	2	0	1384	2	4	0	160	79	0	3	96
fixed	5	7	11	1248384	5	2	2	2	0	1564	2	4	0	144	80	0	3	96
fixed	5	7	12	1250696	4	3	3	1	0	882	1	4	0	152	81	0	3	96
fixed	5	8	1	1252149	4	1	1	1	0	916	1	4	0	136	82	0	3	96
fixed	5	8	2	1253979	1	2	2	1	0	839	1	4	0	144	83	0	3	97
fixed	5	8	3	1255378	6	4	4	1	0	764	1	4	0	160	84	0	3	97
fixed	5	8	4	1256492	2	1	1	1	0	940	1	4	0	136	85	0	3	97
fixed	5	8	5	1257830	5	3	3	1	0	1068	1	4	0	152	86	0	3	97
fixed	5	8	6	1259825	6	4	4	1	0	959	1	4	0	160	87	0	3	97
fixed	5	8	7	1261314	3	1	1	2	0	992	2	4	0	136	88	0	3	97
fixed	5	8	8	1262975	2	3	3	1	0	922	1	4	0	152	89	0	3	97
fixed	5	8	9	1264582	3	2	2	1	0	702	1	4	0	144	90	0	3	97
fixed	5	8	10	1266153	1	4	4	1	0	771	1	4	0	160	91	0	3	97
fixed	5	8	11	1267918	5	2	2	1	0	936	1	4	0	144	92	0	3	97
fixed	5	8	12	1269587	4	3	3	1	0	1258	1	4	0	152	93	0	3	97
fixed	5	9	1	1272014	4	1	1	2	0	1083	2	4	0	136	94	0	3	97
fixed	5	9	2	1273384	1	2	2	1	0	865	1	4	0	144	95	0	3	97
fixed	5	9	3	1274797	6	4	4	1	0	941	1	4	0	160	96	0	3	97
fixed	5	9	4	1276676	2	1	1	2	0	1373	2	4	0	136	97	0	3	97
fixed	5	9	5	1278421	5	3	3	1	0	996	1	4	0	152	98	0	3	97
fixed	5	9	6	1279900	6	4	4	1	0	853	1	4	0	160	99	0	3	97
fixed	5	9	7	1281269	3	1	1	1	0	1323	1	4	0	136	100	0	3	97
fixed	5	9	8	1283069	2	3	3	3	0	2039	2	4	0	152	101	0	3	97
fixed	5	9	9	1285613	3	2	2	1	0	971	1	4	0	144	102	0	3	97
fixed	5	9	10	1287616	1	4	4	1	0	710	1	4	0	160	103	0	3	97
fixed	5	9	11	1288907	5	2	2	1	0	1151	1	4	0	144	104	0	3	97
fixed	5	9	12	1291029	4	3	3	1	0	941	1	4	0	152	105	0	3	97
fixed	5	10	1	1292882	4	1	1	1	0	1303	1	4	0	136	106	0	3	97
fixed	5	10	2	1294770	1	2	0	0	2	0	3	4	0	144	106	0	4	96
fixed	5	10	3	1298024	6	4	4	1	0	902	1	4	0	160	107	0	4	96
fixed	5	10	4	1299920	2	1	1	1	0	1229	1	4	0	136	108	0	4	96
fixed	5	10	5	1301645	5	3	3	1	0	956	1	4	0	152	109	0	4	96
fixed	5	10	6	1303272	6	4	4	1	0	719	1	4	0	160	110	0	4	96
fixed	5	10	7	1304857	3	1	1	1	0	876	1	4	0	136	111	0	4	97
fixed	5	10	8	1306592	2	3	3	1	0	947	1	4	0	152	112	0	4	97
fixed	5	10	9	1308317	3	2	2	1	0	866	1	4	0	144	113	0	4	97
fixed	5	10	10	1310166	1	4	4	1	0	1675	1	4	0	160	114	0	4	97
fixed	5	10	11	1312198	5	2	2	1	0	1037	1	4	0	144	115	0	4	97
fixed	5	10	12	1313729	4	3	3	1	0	764	1	4	0	152	116	0	4	97
random	6	1	1	1402332	6	1	1	1	0	1059	1	4	0	168	1	0	0	100
random	6	1	2	1404308	4	4	4	1	0	776	1	4	0	192	2	0	0	100
random	6	1	3	1405900	2	2	2	1	0	900	1	4	0	176	3	0	0	100
random	6	1	4	1407293	3	3	3	1	0	609	1	4	0	184	4	0	0	100
random	6	1	5	1408896	5	2	2	2	0	1206	2	4	0	176	5	0	0	100
random	6	1	6	1410852	1	4	4	1	0	698	1	4	0	192	6	0	0	100
random	6	1	7	1412308	6	1	1	1	0	909	1	4	0	168	7	0	0	100
random	6	1	8	1413942	2	3	3	1	0	848	1	4	0	184	8	0	0	100
random	6	1	9	1415140	4	2	2	1	0	717	1	4	0	176	9	0	0	100
random	6	1	10	1416603	1	1	1	1	0	887	1	4	0	168	10	0	0	100
random	6	1	11	1417791	5	4	4	1	0	652	1	4	0	192	11	0	0	100
random	6	1	12	1419409	3	3	3	1	0	776	1	4	0	184	12	0	0	100
random	6	1	13	1421481	5	2	2	1	0	768	1	4	0	176	13	0	0	100
random	6	1	14	1422577	1	4	4	1	0	866	1	4	0	192	14	0	0	100
random	6	1	15	1424072	3	1	1	1	0	666	1	4	0	168	15	0	0	100
random	6	1	16	1425165	4	3	3	1	0	1252	1	4	0	184	16	0	0	100
random	6	1	17	1426898	6	4	4	1	0	1131	1	4	0	192	17	0	0	100
random	6	1	18	1428479	2	1	1	1	0	824	1	4	0	168	18	0	0	100
random	6	1	19	1429904	5	3	3	2	0	1179	2	4	0	184	19	0	0	100
random	6	1	20	1431668	2	2	2	1	0	745	1	4	0	176	20	0	0	100
random	6	1	21	1432973	3	3	3	1	0	1081	1	4	0	184	21	0	0	100
random	6	1	22	1434446	6	1	1	2	0	1227	2	4	0	168	22	0	0	100
random	6	1	23	1436260	4	2	2	1	0	766	1	4	0	176	23	0	0	100
random	6	1	24	1437902	1	4	4	1	0	608	1	4	0	192	24	0	0	100
random	6	1	25	1439325	4	3	3	1	0	1268	1	4	0	184	25	0	0	100
random	6	1	26	1440982	2	1	1	1	0	918	1	4	0	168	26	0	0	100
random	6	1	27	1442596	5	2	2	1	0	834	1	4	0	176	27	0	0	100
random	6	1	28	1443929	6	4	4	1	0	738	1	4	0	192	28	0	0	100
random	6	1	29	1445555	1	3	3	1	0	844	1	4	0	184	29	0	0	100
random	6	1	30	1447418	5	2	2	1	0	486	1	4	0	176	30	0	0	100
random	6	1	31	1448364	2	1	1	1	0	1110	1	4	0	168	31	0	0	100
random	6	1	32	1449858	3	3	3	1	0	862	1	4	0	184	32	0	0	100
random	6	1	33	1451307	6	4	4	1	0	969	1	4	0	192	33	0	0	100
random	6	1	34	1453045	4	2	2	1	0	791	1	4	0	176	34	0	0	100
random	6	1	35	1454473	3	4	4	1	0	987	1	4	0	192	35	0	0	100
random	6	1	36	1456299	1	1	1	1	0	901	1	4	0	168	36	0	0	100
random	6	1	37	1458154	3	4	4	1	0	823	1	4	0	192	37	0	0	100
random	6	1	38	1459429	5	3	3	1	0	977	1	4	0	184	38	0	0	100
random	6	1	39	1460990	6	1	1	1	0	951	1	4	0	168	39	0	0	100
random	6	1	40	1462283	1	2	2	2	0	1280	2	4	0	176	40	0	0	100
random	6	1	41	1464341	2	3	3	1	0	817	1	4	0	184	41	0	0	100
random	6	1	42	1466153	4	4	4	1	0	852	1	4	0	192	42	0	0	100
random	6	1	43	1467670	1	2	2	1	0	892	1	4	0	176	43	0	0	100
random	6	1	44	1468957	6	3	3	1	0	813	1	4	0	184	44	0	0	100
random	6	1	45	1470793	3	1	1	1	0	1320	1	4	0	168	45	0	0	100
random	6	1	46	1472449	4	4	4	1	0	938	1	4	0	192	46	0	0	100
random	6	1	47	1473717	2	2	2	1	0	1052	1	4	0	176	47	0	0	100
random	6	1	48	1475786	5	1	1	1	0	1284	1	4	0	168	48	0	0	100
random	6	1	49	1478237	2	3	3	1	0	868	1	4	0	184	49	0	0	100
random	6	1	50	1479954	3	1	1	1	0	964	1	4	0	168	50	0	0	100
random	6	1	51	1481600	1	4	4	1	0	686	1	4	0	192	51	0	0	100
random	6	1	52	1483174	5	3	3	1	0	1059	1	4	0	184	52	0	0	100
random	6	1	53	1484833	3	2	2	1	0	949	1	4	0	176	53	0	0	100
random	6	1	54	1486492	6	4	4	1	0	783	1	4	0	192	54	0	0	100
random	6	1	55	1487806	4	2	2	2	0	1167	2	4	0	176	55	0	0	100
random	6	1	56	1489539	1	1	1	1	0	1014	1	4	0	168	56	0	0	100
random	6	1	57	1490936	5	4	4	1	0	778	1	4	0	192	57	0	0	100
random	6	1	58	1492580	2	1	1	1	0	853	1	4	0	168	58	0	0	100
random	6	1	59	1494216	6	2	2	1	0	928	1	4	0	176	59	0	0	100
random	6	1	60	1495714	4	3	3	1	0	576	1	4	0	184	60	0	0	100
random	6	1	61	1497100	1	2	2	1	0	717	1	4	0	176	61	0	0	100
random	6	1	62	1498201	6	4	4	1	0	822	1	4	0	192	62	0	0	100
random	6	1	63	1499410	4	1	1	1	0	1243	1	4	0	168	63	0	0	100
random	6	1	64	1501558	2	2	2	1	0	888	1	4	0	176	64	0	0	100
random	6	1	65	1503349	4	3	3	1	0	964	1	4	0	184	65	0	0	100
random	6	1	66	1505283	3	1	1	2	0	1379	2	4	0	168	66	0	0	100
random	6	1	67	1507325	1	3	3	1	0	1036	1	4	0	184	67	0	0	100
random	6	1	68	1508721	5	4	4	1	0	1041	1	4	0	192	68	0	0	100
random	6	1	69	1510653	2	2	2	1	0	1471	1	4	0	176	69	0	0	100
random	6	1	70	1512604	3	1	1	1	0	1020	1	4	0	168	70	0	0	100
random	6	1	71	1514075	5	4	4	1	0	870	1	4	0	192	71	0	0	100
random	6	1	72	1515946	6	3	3	1	0	983	1	4	0	184	72	0	0	100
random	6	1	73	1517683	2	1	1	1	0	1141	1	4	0	168	73	0	0	100
random	6	1	74	1519325	5	3	3	1	0	928	1	4	0	184	74	0	0	100
random	6	1	75	1520809	1	4	4	1	0	905	1	4	0	192	75	0	0	100
random	6	1	76	1522406	6	2	2	1	0	806	1	4	0	176	76	0	0	100
random	6	1	77	1523687	2	1	1	1	0	951	1	4	0	168	77	0	0	100
random	6	1	78	1525479	4	4	4	1	0	900	1	4	0	192	78	0	0	100
random	6	1	79	1527333	3	2	2	1	0	765	1	4	0	176	79	0	0	100
random	6	1	80	1528994	4	3	3	2	0	982	2	4	0	184	80	0	0	100
random	6	1	81	1530621	1	4	4	1	0	1106	1	4	0	192	81	0	0	100
random	6	1	82	1532369	5	1	1	1	0	791	1	4	0	168	82	0	0	100
random	6	1	83	1533944	3	2	2	1	0	997	1	4	0	176	83	0	0	100
random	6	1	84	1535941	6	3	3	1	0	1057	1	4	0	184	84	0	0	100
random	6	1	85	1538034	3	2	2	1	0	919	1	4	0	176	85	0	0	100
random	6	1	86	1539775	1	3	3	1	0	886	1	4	0	184	86	0	0	100
random	6	1	87	1541601	4	4	4	1	0	865	1	4	0	192	87	0	0	100
random	6	1	88	1543239	2	1	1	1	0	747	1	4	0	168	88	0	0	100
random	6	1	89	1544755	6	4	4	1	0	1123	1	4	0	192	89	0	0	100
random	6	1	90	1546679	3	3	3	1	0	858	1	4	0	184	90	0	0	100
random	6	1	91	1548189	5	4	4	1	0	993	1	4	0	192	91	0	0	100
random	6	1	92	1550066	1	2	2	1	0	682	1	4	0	176	92	0	0	100
random	6	1	93	1551431	5	1	1	1	0	864	1	4	0	168	93	0	0	100
random	6	1	94	1553184	4	3	3	1	0	742	1	4	0	184	94	0	0	100
random	6	1	95	1554456	6	1	1	1	0	816	1	4	0	168	95	0	0	100
random	6	1	96	1555998	2	2	2	1	0	1047	1	4	0	176	96	0	0	100
random	6	1	97	1558032	4	3	3	1	0	1032	1	4	0	184	97	0	0	100
random	6	1	98	1559590	3	2	2	1	0	710	1	4	0	176	98	0	0	100
random	6	1	99	1561201	6	3	3	1	0	947	1	4	0	184	99	0	0	100
random	6	1	100	1562916	1	4	4	1	0	786	1	4	0	192	100	0	0	100
random	6	1	101	1564728	4	1	1	2	0	1197	2	4	0	168	101	0	0	100
random	6	1	102	1566380	5	2	2	1	0	807	1	4	0	176	102	0	0	100
random	6	1	103	1568002	2	4	4	1	0	723	1	4	0	192	103	0	0	100
random	6	1	104	1569416	3	1	1	2	0	1206	2	4	0	168	104	0	0	100
random	6	1	105	1571446	1	3	3	1	0	1064	1	4	0	184	105	0	0	100
random	6	1	106	1573356	2	2	2	2	0	1599	2	4	0	176	106	0	0	100
random	6	1	107	1575532	5	4	4	1	0	819	1	4	0	192	107	0	0	100
random	6	1	108	1577136	6	1	1	1	0	1111	1	4	0	168	108	0	0	100
random	6	1	109	1579301	5	4	4	1	0	979	1	4	0	192	109	0	0	100
random	6	1	110	1581218	6	3	3	1	0	1147	1	4	0	184	110	0	0	100
random	6	1	111	1582864	2	2	2	1	0	781	1	4	0	176	111	0	0	100
random	6	1	112	1584608	3	1	1	1	0	1147	1	4	0	168	112	0	0	100
random	6	1	113	1586074	1	2	2	1	0	861	1	4	0	176	113	0	0	100
random	6	1	114	1587563	2	3	3	1	0	686	1	4	0	184	114	0	0	100
random	6	1	115	1588888	3	1	1	1	0	1262	1	4	0	168	115	0	0	100
random	6	1	116	1591177	4	4	4	1	0	877	1	4	0	192	116	0	0	100
random	6	1	117	1592466	6	1	1	1	0	774	1	4	0	168	117	0	0	100
random	6	1	118	1593568	5	3	3	1	0	1071	1	4	0	184	118	0	0	100
random	6	1	119	1595203	1	4	4	1	0	906	1	4	0	192	119	0	0	100
random	6	1	120	1597073	4	2	2	1	0	1387	1	4	0	176	120	0	0	100
fixed	7	1	1	1599282	4	1	1	1	0	1117	1	4	0	200	1	0	0	100
fixed	7	1	2	1600846	1	2	2	1	0	1059	1	4	0	208	2	0	0	100
fixed	7	1	3	1602592	6	4	4	1	0	921	1	4	0	224	3	0	0	100
fixed	7	1	4	1604336	2	1	1	1	0	975	1	4	0	200	4	0	0	100
fixed	7	1	5	1606057	5	3	3	1	0	1006	1	4	0	216	5	0	0	100
fixed	7	1	6	1607981	6	4	4	1	0	845	1	4	0	224	6	0	0	100
fixed	7	1	7	1609480	3	1	1	1	0	973	1	4	0	200	7	0	0	100
fixed	7	1	8	1611449	2	3	3	2	0	1050	2	4	0	216	8	0	0	100
fixed	7	1	9	1613247	3	2	2	1	0	966	1	4	0	208	9	0	0	100
fixed	7	1	10	1615042	1	4	4	1	0	730	1	4	0	224	10	0	0	100
fixed	7	1	11	1616299	5	2	2	1	0	925	1	4	0	208	11	0	0	100
fixed	7	1	12	1617975	4	3	3	1	0	534	1	4	0	216	12	0	0	100
fixed	7	2	1	1619767	4	1	1	1	0	1049	1	4	0	200	1	0	0	8
fixed	7	2	2	1621440	1	2	2	1	0	795	1	4	0	208	2	0	0	14
fixed	7	2	3	1622943	6	4	4	1	0	955	1	4	0	224	3	0	0	20
fixed	7	2	4	1624296	2	1	1	1	0	1322	1	4	0	200	4	0	0	25
fixed	7	2	5	1626143	5	3	3	1	0	876	1	4	0	216	5	0	0	29
fixed	7	2	6	1627310	6	4	4	1	0	1106	1	4	0	224	6	0	0	33
fixed	7	2	7	1629361	3	1	1	1	0	1075	1	4	0	200	7	0	0	37
fixed	7	2	8	1630764	2	3	3	1	0	968	1	4	0	216	8	0	0	40
fixed	7	2	9	1632105	3	2	2	1	0	807	1	4	0	208	9	0	0	43
fixed	7	2	10	1633631	1	4	4	1	0	759	1	4	0	224	10	0	0	45
fixed	7	2	11	1634951	5	2	2	1	0	951	1	4	0	208	11	0	0	48
fixed	7	2	12	1636472	4	3	3	1	0	614	1	4	0	216	12	0	0	50
fixed	7	3	1	1638112	4	1	1	1	0	928	1	4	0	200	1	0	0	4
fixed	7	3	2	1639527	1	2	2	1	0	837	1	4	0	208	2	0	0	8
fixed	7	3	3	1641097	6	4	4	1	0	770	1	4	0	224	3	0	0	11
fixed	7	3	4	1642202	2	1	1	1	0	1996	1	4	0	200	4	0	0	14
fixed	7	3	5	1644657	5	3	3	1	0	892	1	4	0	216	5	0	0	17
fixed	7	3	6	1645927	6	4	4	1	0	1070	1	4	0	224	6	0	0	20
fixed	7	3	7	1647663	3	1	1	1	0	1628	1	4	0	200	7	0	0	23
fixed	7	3	8	1650023	2	3	3	1	0	824	1	4	0	216	8	0	0	25
fixed	7	3	9	1651654	3	2	2	1	0	715	1	4	0	208	9	0	0	27
fixed	7	3	10	1652741	1	4	4	1	0	709	1	4	0	224	10	0	0	29
fixed	7	3	11	1653798	5	2	2	1	0	840	1	4	0	208	11	0	0	31
fixed	7	3	12	1655680	4	3	3	2	0	2049	2	4	0	216	12	0	0	33
fixed	7	4	1	1658930	4	1	1	1	0	967	1	4	0	200	1	0	0	3
fixed	7	4	2	1660570	1	2	2	1	0	969	1	4	0	208	2	0	0	5
fixed	7	4	3	1662021	6	4	4	1	0	788	1	4	0	224	3	0	0	8
fixed	7	4	4	1663487	2	1	1	1	0	1366	1	4	0	200	4	0	0	10
fixed	7	4	5	1665396	5	3	3	1	0	885	1	4	0	216	5	0	0	12
fixed	7	4	6	1667130	6	4	4	1	0	900	1	4	0	224	6	0	0	14
fixed	7	4	7	1668623	3	1	1	1	0	1012	1	4	0	200	7	0	0	16
fixed	7	4	8	1670164	2	3	3	1	0	1435	1	4	0	216	8	0	0	18
fixed	7	4	9	1672380	3	2	2	1	0	773	1	4	0	208	9	0	0	20
fixed	7	4	10	1674014	1	4	4	1	0	696	1	4	0	224	10	0	0	22
fixed	7	4	11	1675366	5	2	2	1	0	743	1	4	0	208	11	0	0	23
fixed	7	4	12	1676689	4	3	0	1	2	0	3	4	0	216	11	0	1	23
fixed	7	5	1	1680416	4	1	1	1	0	953	1	4	0	200	1	0	0	2
fixed	7	5	2	1681711	1	2	2	1	0	1602	1	4	0	208	2	0	0	4
fixed	7	5	3	1683879	6	4	4	1	0	830	1	4	0	224	3	0	0	6
fixed	7	5	4	1685379	2	1	1	1	0	1094	1	4	0	200	4	0	0	8
fixed	7	5	5	1687068	5	3	3	1	0	927	1	4	0	216	5	0	0	9
fixed	7	5	6	1688898	6	4	4	1	0	1170	1	4	0	224	6	0	0	11
fixed	7	5	7	1690760	3	1	1	1	0	1163	1	4	0	200	7	0	0	13
fixed	7	5	8	1692494	2	3	3	1	0	825	1	4	0	216	8	0	0	14
fixed	7	5	9	1694069	3	2	2	1	0	670	1	4	0	208	9	0	0	16
fixed	7	5	10	1695784	1	4	4	1	0	734	1	4	0	224	10	0	0	17
fixed	7	5	11	1697469	5	2	2	1	0	1447	1	4	0	208	11	0	0	19
fixed	7	5	12	1699283	4	3	3	1	0	650	1	4	0	216	12	0	0	20
fixed	7	6	1	1700683	4	1	1	1	0	934	1	4	0	200	1	0	0	2
fixed	7	6	2	1701957	1	2	2	1	0	864	1	4	0	208	2	0	0	3
fixed	7	6	3	1703314	6	4	4	1	0	839	1	4	0	224	3	0	0	5
fixed	7	6	4	1704722	2	1	1	1	0	1476	1	4	0	200	4	0	0	6
fixed	7	6	5	1707058	5	3	3	1	0	1473	1	4	0	216	5	0	0	8
fixed	7	6	6	1709428	6	4	4	1	0	1372	1	4	0	224	6	0	0	9
fixed	7	6	7	1711158	3	1	1	1	0	867	1	4	0	200	7	0	0	10
fixed	7	6	8	1712459	2	3	3	1	0	1211	1	4	0	216	8	0	0	12
fixed	7	6	9	1714276	3	2	2	2	0	1263	2	4	0	208	9	0	0	13
fixed	7	6	10	1716090	1	4	4	1	0	1754	1	4	0	224	10	0	0	14
fixed	7	6	11	1718248	5	2	2	1	0	974	1	4	0	208	11	0	0	15
fixed	7	6	12	1720197	4	3	3	1	0	1084	1	4	0	216	12	0	0	17
fixed	7	7	1	1722069	4	1	1	1	0	1028	1	4	0	200	1	0	0	1
fixed	7	7	2	1723449	1	2	2	1	0	906	1	4	0	208	2	0	0	3
fixed	7	7	3	1724939	6	4	4	1	0	739	1	4	0	224	3	0	0	4
fixed	7	7	4	1726376	2	1	1	2	0	1270	2	4	0	200	4	0	0	5
fixed	7	7	5	1728438	5	3	3	2	0	1071	2	4	0	216	5	0	0	6
fixed	7	7	6	1730350	6	4	4	1	0	1318	1	4	0	224	6	0	0	8
fixed	7	7	7	1732214	3	1	1	3	0	2319	2	4	0	200	7	0	0	9
fixed	7	7	8	1734979	2	3	3	1	0	1034	1	4	0	216	8	0	0	10
fixed	7	7	9	1736808	3	2	2	1	0	972	1	4	0	208	9	0	0	11
fixed	7	7	10	1738248	1	4	4	1	0	783	1	4	0	224	10	0	0	12
fixed	7	7	11	1740017	5	2	2	1	0	796	1	4	0	208	11	0	0	13
fixed	7	7	12	1741264	4	3	3	1	0	895	1	4	0	216	12	0	0	14
fixed	7	8	1	1742786	4	1	1	1	0	991	1	4	0	200	1	0	0	1
fixed	7	8	2	1744725	1	2	2	1	0	989	1	4	0	208	2	0	0	2
fixed	7	8	3	1746734	6	4	4	1	0	776	1	4	0	224	3	0	0	3
fixed	7	8	4	1748392	2	1	1	1	0	1866	1	4	0	200	4	0	0	5
fixed	7	8	5	1750844	5	3	0	1	2	0	3	4	0	216	4	0	1	4
fixed	7	8	6	1753913	6	4	4	1	0	872	1	4	0	224	5	0	1	6
fixed	7	8	7	1755762	3	1	1	2	0	1114	2	4	0	200	6	0	1	7
fixed	7	8	8	1757805	2	3	3	2	0	1395	2	4	0	216	7	0	1	8
fixed	7	8	9	1760090	3	2	2	1	0	731	1	4	0	208	8	0	1	9
fixed	7	8	10	1761258	1	4	4	1	0	825	1	4	0	224	9	0	1	10
fixed	7	8	11	1762534	5	2	2	1	0	970	1	4	0	208	10	0	1	11
fixed	7	8	12	1764187	4	3	3	1	0	916	1	4	0	216	11	0	1	11
fixed	7	9	1	1765826	4	1	1	1	0	1151	1	4	0	200	1	0	0	1
fixed	7	9	2	1767669	1	2	2	2	0	961	2	4	0	208	2	0	0	2
fixed	7	9	3	1769008	6	4	4	1	0	873	1	4	0	224	3	0	0	3
fixed	7	9	4	1770451	2	1	1	1	0	828	1	4	0	200	4	0	0	4
fixed	7	9	5	1772097	5	3	3	1	0	934	1	4	0	216	5	0	0	5
fixed	7	9	6	1773436	6	4	4	1	0	821	1	4	0	224	6	0	0	6
fixed	7	9	7	1775163	3	1	1	1	0	1083	1	4	0	200	7	0	0	7
fixed	7	9	8	1776568	2	3	3	1	0	1280	1	4	0	216	8	0	0	8
fixed	7	9	9	1778517	3	2	2	1	0	1158	1	4	0	208	9	0	0	9
fixed	7	9	10	1780346	1	4	4	2	0	944	2	4	0	224	10	0	0	9
fixed	7	9	11	1782208	5	2	2	1	0	1250	1	4	0	208	11	0	0	10
fixed	7	9	12	1784058	4	3	3	1	0	579	1	4	0	216	12	0	0	11
fixed	7	10	1	1785858	4	1	1	2	0	1919	2	4	0	200	1	0	0	1
fixed	7	10	2	1788728	1	2	0	1	2	0	3	4	0	208	1	0	1	1
fixed	7	10	3	1792017	6	4	4	1	0	754	1	4	0	224	2	0	1	2
fixed	7	10	4	1793528	2	1	1	1	0	890	1	4	0	200	3	0	1	3
fixed	7	10	5	1794949	5	3	3	1	0	974	1	4	0	216	4	0	1	4
fixed	7	10	6	1796663	6	4	4	1	0	885	1	4	0	224	5	0	1	4
fixed	7	10	7	1798549	3	1	1	1	0	989	1	4	0	200	6	0	1	5
fixed	7	10	8	1799945	2	3	3	1	0	1106	1	4	0	216	7	0	1	6
fixed	7	10	9	1801768	3	2	2	1	0	949	1	4	0	208	8	0	1	7
fixed	7	10	10	1803502	1	4	4	1	0	755	1	4	0	224	9	0	1	8
fixed	7	10	11	1805175	5	2	2	1	0	901	1	4	0	208	10	0	1	8
fixed	7	10	12	1806727	4	3	3	1	0	715	1	4	0	216	11	0	1	9
