type	block	sequ.	trial	time	Pos.	Color	Button	NumRsp	Resp_1	RT_1	R_Code	Resp_2	RT_2	Trigg.	n_hit	n_inc	n_miss	score_%

random	1	1	1	1799	6	1	1	1	0	527	1	4	0	8	1	0	0	100
random	1	1	2	2990	4	4	4	1	0	717	1	4	0	32	2	0	0	100
random	1	1	3	4660	2	2	2	1	0	1126	1	4	0	16	3	0	0	100
random	1	1	4	6788	3	3	3	1	0	420	1	4	0	24	4	0	0	100
random	1	1	5	7780	5	2	2	1	0	1010	1	4	0	16	5	0	0	100
random	1	1	6	9379	1	4	4	1	0	671	1	4	0	32	6	0	0	100
random	1	1	7	10429	6	1	1	1	0	722	1	4	0	8	7	0	0	100
random	1	1	8	11773	2	3	3	1	0	761	1	4	0	24	8	0	0	100
random	1	1	9	13310	4	2	2	1	0	888	1	4	0	16	9	0	0	100
random	1	1	10	14503	1	1	1	1	0	757	1	4	0	8	10	0	0	100
random	1	1	11	16157	5	4	4	1	0	599	1	4	0	32	11	0	0	100
random	1	1	12	17458	3	3	3	1	0	904	1	4	0	24	12	0	0	100
random	1	1	13	19126	5	2	2	1	0	849	1	4	0	16	13	0	0	100
random	1	1	14	20550	1	4	4	1	0	597	1	4	0	32	14	0	0	100
random	1	1	15	21672	3	1	1	1	0	726	1	4	0	8	15	0	0	100
random	1	1	16	23083	4	3	3	1	0	923	1	4	0	24	16	0	0	100
random	1	1	17	24744	6	4	4	1	0	620	1	4	0	32	17	0	0	100
random	1	1	18	26148	2	1	1	1	0	632	1	4	0	8	18	0	0	100
random	1	1	19	27548	5	3	3	1	0	773	1	4	0	24	19	0	0	100
random	1	1	20	29168	2	2	2	1	0	528	1	4	0	16	20	0	0	100
random	1	1	21	30565	3	3	3	1	0	1037	1	4	0	24	21	0	0	100
random	1	1	22	31969	6	1	1	1	0	866	1	4	0	8	22	0	0	100
random	1	1	23	33795	4	2	2	1	0	1316	1	4	0	16	23	0	0	100
random	1	1	24	36149	1	4	4	1	0	529	1	4	0	32	24	0	0	100
random	1	1	25	37539	4	3	3	1	0	870	1	4	0	24	25	0	0	100
random	1	1	26	39287	2	1	1	1	0	660	1	4	0	8	26	0	0	100
random	1	1	27	40610	5	2	2	1	0	900	1	4	0	16	27	0	0	100
random	1	1	28	42165	6	4	4	1	0	586	1	4	0	32	28	0	0	100
random	1	1	29	43676	1	3	3	2	0	1338	2	4	0	24	29	0	0	100
random	1	1	30	45961	5	2	2	1	0	889	1	4	0	16	30	0	0	100
random	1	1	31	47296	2	1	1	1	0	680	1	4	0	8	31	0	0	100
random	1	1	32	48427	3	3	3	1	0	962	1	4	0	24	32	0	0	100
random	1	1	33	49732	6	4	4	1	0	674	1	4	0	32	33	0	0	100
random	1	1	34	51385	4	2	2	1	0	756	1	4	0	16	34	0	0	100
random	1	1	35	53124	3	4	4	1	0	714	1	4	0	32	35	0	0	100
random	1	1	36	54290	1	1	1	1	0	793	1	4	0	8	36	0	0	100
random	1	1	37	55934	3	4	4	1	0	690	1	4	0	32	37	0	0	100
random	1	1	38	57533	5	3	3	1	0	807	1	4	0	24	38	0	0	100
random	1	1	39	59038	6	1	1	1	0	792	1	4	0	8	39	0	0	100
random	1	1	40	60753	1	2	2	1	0	599	1	4	0	16	40	0	0	100
random	1	1	41	61748	2	3	3	1	0	900	1	4	0	24	41	0	0	100
random	1	1	42	63108	4	4	4	1	0	755	1	4	0	32	42	0	0	100
random	1	1	43	64598	1	2	2	1	0	804	1	4	0	16	43	0	0	100
random	1	1	44	66152	6	3	3	1	0	1714	1	4	0	24	44	0	0	100
random	1	1	45	68709	3	1	1	1	0	918	1	4	0	8	45	0	0	100
random	1	1	46	70650	4	4	4	1	0	980	1	4	0	32	46	0	0	100
random	1	1	47	72413	2	2	2	1	0	969	1	4	0	16	47	0	0	100
random	1	1	48	73844	5	1	1	1	0	980	1	4	0	8	48	0	0	100
random	1	1	49	76033	2	3	3	1	0	847	1	4	0	24	49	0	0	100
random	1	1	50	77624	3	1	1	1	0	628	1	4	0	8	50	0	0	100
random	1	1	51	79284	1	4	4	1	0	446	1	4	0	32	51	0	0	100
random	1	1	52	80010	5	3	3	1	0	783	1	4	0	24	52	0	0	100
random	1	1	53	81760	3	2	2	1	0	637	1	4	0	16	53	0	0	100
random	1	1	54	83332	6	4	4	1	0	602	1	4	0	32	54	0	0	100
random	1	1	55	84673	4	2	2	1	0	993	1	4	0	16	55	0	0	100
random	1	1	56	85980	1	1	1	1	0	1130	1	4	0	8	56	0	0	100
random	1	1	57	87782	5	4	4	1	0	662	1	4	0	32	57	0	0	100
random	1	1	58	89267	2	1	1	1	0	655	1	4	0	8	58	0	0	100
random	1	1	59	90456	6	2	2	2	0	2068	2	4	0	16	59	0	0	100
random	1	1	60	93043	4	3	3	1	0	855	1	4	0	24	60	0	0	100
random	1	1	61	94712	1	2	2	1	0	1376	1	4	0	16	61	0	0	100
random	1	1	62	96993	6	4	4	1	0	768	1	4	0	32	62	0	0	100
random	1	1	63	98590	4	1	1	1	0	804	1	4	0	8	63	0	0	100
random	1	1	64	99749	2	2	2	1	0	1059	1	4	0	16	64	0	0	100
random	1	1	65	101676	4	3	3	1	0	746	1	4	0	24	65	0	0	100
random	1	1	66	103209	3	1	1	1	0	817	1	4	0	8	66	0	0	100
random	1	1	67	104550	1	3	3	1	0	952	1	4	0	24	67	0	0	100
random	1	1	68	105930	5	4	4	1	0	717	1	4	0	32	68	0	0	100
random	1	1	69	106998	2	2	2	1	0	784	1	4	0	16	69	0	0	100
random	1	1	70	108796	3	1	1	1	0	755	1	4	0	8	70	0	0	100
random	1	1	71	109989	5	4	4	1	0	945	1	4	0	32	71	0	0	100
random	1	1	72	111238	6	3	3	1	0	1228	1	4	0	24	72	0	0	100
random	1	1	73	113425	2	1	1	1	0	759	1	4	0	8	73	0	0	100
random	1	1	74	114619	5	3	3	1	0	1061	1	4	0	24	74	0	0	100
random	1	1	75	116366	1	4	4	1	0	715	1	4	0	32	75	0	0	100
random	1	1	76	117436	6	2	2	1	0	598	1	4	0	16	76	0	0	100
random	1	1	77	118941	2	1	1	1	0	622	1	4	0	8	77	0	0	100
random	1	1	78	119967	4	4	4	1	0	987	1	4	0	32	78	0	0	100
random	1	1	79	121651	3	2	2	1	0	1203	1	4	0	16	79	0	0	100
random	1	1	80	123190	4	3	3	1	0	554	1	4	0	24	80	0	0	100
random	1	1	81	124722	1	4	4	1	0	1233	1	4	0	32	81	0	0	100
random	1	1	82	126291	5	1	1	1	0	526	1	4	0	8	82	0	0	100
random	1	1	83	127209	3	2	2	1	0	888	1	4	0	16	83	0	0	100
random	1	1	84	128683	6	3	3	1	0	473	1	4	0	24	84	0	0	100
random	1	1	85	130367	3	2	2	1	0	1122	1	4	0	16	85	0	0	100
random	1	1	86	132036	1	3	3	1	0	459	1	4	0	24	86	0	0	100
random	1	1	87	133507	4	4	4	1	0	669	1	4	0	32	87	0	0	100
random	1	1	88	134912	2	1	1	1	0	561	1	4	0	8	88	0	0	100
random	1	1	89	136229	6	4	4	1	0	578	1	4	0	32	89	0	0	100
random	1	1	90	137278	3	3	3	1	0	1270	1	4	0	24	90	0	0	100
random	1	1	91	138869	5	4	4	1	0	1066	1	4	0	32	91	0	0	100
random	1	1	92	140602	1	2	2	1	0	713	1	4	0	16	92	0	0	100
random	1	1	93	141744	5	1	1	1	0	1104	1	4	0	8	93	0	0	100
random	1	1	94	143203	4	3	3	1	0	882	1	4	0	24	94	0	0	100
random	1	1	95	144933	6	1	1	1	0	770	1	4	0	8	95	0	0	100
random	1	1	96	146043	2	2	2	1	0	882	1	4	0	16	96	0	0	100
random	1	1	97	147926	4	3	3	1	0	738	1	4	0	24	97	0	0	100
random	1	1	98	149315	3	2	2	1	0	703	1	4	0	16	98	0	0	100
random	1	1	99	150329	6	3	3	1	0	877	1	4	0	24	99	0	0	100
random	1	1	100	152085	1	4	4	1	0	682	1	4	0	32	100	0	0	100
random	1	1	101	153618	4	1	1	2	0	1778	2	4	0	8	101	0	0	100
random	1	1	102	156192	5	2	2	1	0	941	1	4	0	16	102	0	0	100
random	1	1	103	158052	2	4	4	1	0	661	1	4	0	32	103	0	0	100
random	1	1	104	159420	3	1	1	1	0	779	1	4	0	8	104	0	0	100
random	1	1	105	160927	1	3	3	1	0	1172	1	4	0	24	105	0	0	100
random	1	1	106	162958	2	2	2	2	0	1638	2	4	0	16	106	0	0	100
random	1	1	107	165095	5	4	4	1	0	731	1	4	0	32	107	0	0	100
random	1	1	108	166683	6	1	1	1	0	944	1	4	0	8	108	0	0	100
random	1	1	109	168661	5	4	4	1	0	756	1	4	0	32	109	0	0	100
random	1	1	110	170396	6	3	3	1	0	850	1	4	0	24	110	0	0	100
random	1	1	111	171681	2	2	2	1	0	500	1	4	0	16	111	0	0	100
random	1	1	112	172471	3	1	1	1	0	747	1	4	0	8	112	0	0	100
random	1	1	113	173677	1	2	2	1	0	1208	1	4	0	16	113	0	0	100
random	1	1	114	175470	2	3	3	1	0	556	1	4	0	24	114	0	0	100
random	1	1	115	176857	3	1	1	1	0	673	1	4	0	8	115	0	0	100
random	1	1	116	178003	4	4	4	1	0	536	1	4	0	32	116	0	0	100
random	1	1	117	179238	6	1	1	1	0	1228	1	4	0	8	117	0	0	100
random	1	1	118	181090	5	3	3	1	0	893	1	4	0	24	118	0	0	100
random	1	1	119	182556	1	4	4	1	0	856	1	4	0	32	119	0	0	100
random	1	1	120	183758	4	2	2	1	0	621	1	4	0	16	120	0	0	100
fixed	2	1	1	185199	4	1	1	1	0	1047	1	4	0	40	1	0	0	100
fixed	2	1	2	187156	1	2	2	1	0	901	1	4	0	48	2	0	0	100
fixed	2	1	3	188702	6	4	4	1	0	587	1	4	0	64	3	0	0	100
fixed	2	1	4	190010	2	1	1	1	0	684	1	4	0	40	4	0	0	100
fixed	2	1	5	191321	5	3	3	1	0	908	1	4	0	56	5	0	0	100
fixed	2	1	6	192803	6	4	4	1	0	813	1	4	0	64	6	0	0	100
fixed	2	1	7	194253	3	1	1	1	0	1337	1	4	0	40	7	0	0	100
fixed	2	1	8	196514	2	3	3	1	0	992	1	4	0	56	8	0	0	100
fixed	2	1	9	198450	3	2	2	1	0	998	1	4	0	48	9	0	0	100
fixed	2	1	10	200037	1	4	4	1	0	659	1	4	0	64	10	0	0	100
fixed	2	1	11	201256	5	2	2	1	0	1719	1	4	0	48	11	0	0	100
fixed	2	1	12	203792	4	3	3	1	0	636	1	4	0	56	12	0	0	100
fixed	2	2	1	205301	4	1	1	1	0	668	1	4	0	40	13	0	0	100
fixed	2	2	2	206577	1	2	2	1	0	1030	1	4	0	48	14	0	0	100
fixed	2	2	3	207988	6	4	4	1	0	698	1	4	0	64	15	0	0	100
fixed	2	2	4	209160	2	1	1	1	0	633	1	4	0	40	16	0	0	100
fixed	2	2	5	210282	5	3	3	1	0	985	1	4	0	56	17	0	0	100
fixed	2	2	6	212080	6	4	4	1	0	1037	1	4	0	64	18	0	0	100
fixed	2	2	7	214005	3	1	1	1	0	539	1	4	0	40	19	0	0	100
fixed	2	2	8	215475	2	3	3	1	0	965	1	4	0	56	20	0	0	100
fixed	2	2	9	217063	3	2	2	1	0	666	1	4	0	48	21	0	0	100
fixed	2	2	10	218565	1	4	4	1	0	730	1	4	0	64	22	0	0	100
fixed	2	2	11	220172	5	2	2	1	0	1070	1	4	0	48	23	0	0	100
fixed	2	2	12	222147	4	3	3	1	0	883	1	4	0	56	24	0	0	100
fixed	2	3	1	223662	4	1	1	1	0	786	1	4	0	40	25	0	0	100
fixed	2	3	2	225066	1	2	2	1	0	1007	1	4	0	48	26	0	0	100
fixed	2	3	3	226400	6	4	4	1	0	742	1	4	0	64	27	0	0	100
fixed	2	3	4	227692	2	1	1	1	0	624	1	4	0	40	28	0	0	100
fixed	2	3	5	229300	5	3	3	1	0	620	1	4	0	56	29	0	0	100
fixed	2	3	6	230728	6	4	4	1	0	751	1	4	0	64	30	0	0	100
fixed	2	3	7	232438	3	1	1	1	0	784	1	4	0	40	31	0	0	100
fixed	2	3	8	233556	2	3	3	1	0	815	1	4	0	56	32	0	0	100
fixed	2	3	9	234889	3	2	2	1	0	623	1	4	0	48	33	0	0	100
fixed	2	3	10	235968	1	4	4	1	0	969	1	4	0	64	34	0	0	100
fixed	2	3	11	237893	5	2	2	1	0	856	1	4	0	48	35	0	0	100
fixed	2	3	12	239550	4	3	3	1	0	785	1	4	0	56	36	0	0	100
fixed	2	4	1	241640	4	1	1	1	0	953	1	4	0	40	37	0	0	100
fixed	2	4	2	243228	1	2	2	1	0	910	1	4	0	48	38	0	0	100
fixed	2	4	3	244721	6	4	4	1	0	679	1	4	0	64	39	0	0	100
fixed	2	4	4	245836	2	1	1	1	0	791	1	4	0	40	40	0	0	100
fixed	2	4	5	247038	5	3	3	1	0	2188	1	4	0	56	41	0	0	100
fixed	2	4	6	249917	6	4	4	1	0	811	1	4	0	64	42	0	0	100
fixed	2	4	7	251160	3	1	1	1	0	910	1	4	0	40	43	0	0	100
fixed	2	4	8	253078	2	3	3	1	0	1117	1	4	0	56	44	0	0	100
fixed	2	4	9	255030	3	2	2	1	0	994	1	4	0	48	45	0	0	100
fixed	2	4	10	256411	1	4	4	1	0	647	1	4	0	64	46	0	0	100
fixed	2	4	11	257966	5	2	2	1	0	1189	1	4	0	48	47	0	0	100
fixed	2	4	12	259945	4	3	3	1	0	1074	1	4	0	56	48	0	0	100
fixed	2	5	1	261856	4	1	1	1	0	761	1	4	0	40	49	0	0	100
fixed	2	5	2	263463	1	2	2	1	0	965	1	4	0	48	50	0	0	100
fixed	2	5	3	264730	6	4	4	1	0	967	1	4	0	64	51	0	0	100
fixed	2	5	4	266276	2	1	1	1	0	878	1	4	0	40	52	0	0	100
fixed	2	5	5	267446	5	3	3	1	0	836	1	4	0	56	53	0	0	100
fixed	2	5	6	268998	6	4	4	1	0	1162	1	4	0	64	54	0	0	100
fixed	2	5	7	271105	3	1	1	1	0	809	1	4	0	40	55	0	0	100
fixed	2	5	8	272642	2	3	3	1	0	792	1	4	0	56	56	0	0	100
fixed	2	5	9	273765	3	2	2	1	0	801	1	4	0	48	57	0	0	100
fixed	2	5	10	275381	1	4	4	1	0	748	1	4	0	64	58	0	0	100
fixed	2	5	11	277048	5	2	2	1	0	869	1	4	0	48	59	0	0	100
fixed	2	5	12	278809	4	3	3	1	0	675	1	4	0	56	60	0	0	100
fixed	2	6	1	280435	4	1	1	1	0	582	1	4	0	40	61	0	0	100
fixed	2	6	2	281347	1	2	2	1	0	1215	1	4	0	48	62	0	0	100
fixed	2	6	3	283119	6	4	4	1	0	572	1	4	0	64	63	0	0	100
fixed	2	6	4	284168	2	1	1	1	0	960	1	4	0	40	64	0	0	100
fixed	2	6	5	285828	5	3	3	1	0	938	1	4	0	56	65	0	0	100
fixed	2	6	6	287725	6	4	4	1	0	969	1	4	0	64	66	0	0	100
fixed	2	6	7	289446	3	1	1	1	0	752	1	4	0	40	67	0	0	100
fixed	2	6	8	290593	2	3	3	1	0	911	1	4	0	56	68	0	0	100
fixed	2	6	9	292375	3	2	2	1	0	612	1	4	0	48	69	0	0	100
fixed	2	6	10	293498	1	4	4	1	0	844	1	4	0	64	70	0	0	100
fixed	2	6	11	294894	5	2	2	1	0	1074	1	4	0	48	71	0	0	100
fixed	2	6	12	296622	4	3	3	1	0	888	1	4	0	56	72	0	0	100
fixed	2	7	1	298295	4	1	1	1	0	641	1	4	0	40	73	0	0	100
fixed	2	7	2	299970	1	2	2	1	0	898	1	4	0	48	74	0	0	100
fixed	2	7	3	301263	6	4	4	1	0	1228	1	4	0	64	75	0	0	100
fixed	2	7	4	303091	2	1	1	1	0	1094	1	4	0	40	76	0	0	100
fixed	2	7	5	305196	5	3	3	1	0	677	1	4	0	56	77	0	0	100
fixed	2	7	6	306741	6	4	4	1	0	1020	1	4	0	64	78	0	0	100
fixed	2	7	7	308439	3	1	1	1	0	732	1	4	0	40	79	0	0	100
fixed	2	7	8	309789	2	3	3	1	0	978	1	4	0	56	80	0	0	100
fixed	2	7	9	311785	3	2	2	1	0	710	1	4	0	48	81	0	0	100
fixed	2	7	10	313374	1	4	4	1	0	667	1	4	0	64	82	0	0	100
fixed	2	7	11	314920	5	2	2	1	0	1505	1	4	0	48	83	0	0	100
fixed	2	7	12	317050	4	3	3	1	0	703	1	4	0	56	84	0	0	100
fixed	2	8	1	318478	4	1	1	1	0	610	1	4	0	40	85	0	0	100
fixed	2	8	2	319753	1	2	2	1	0	973	1	4	0	48	86	0	0	100
fixed	2	8	3	321493	6	4	4	1	0	675	1	4	0	64	87	0	0	100
fixed	2	8	4	323166	2	1	1	1	0	764	1	4	0	40	88	0	0	100
fixed	2	8	5	324744	5	3	3	1	0	705	1	4	0	56	89	0	0	100
fixed	2	8	6	325993	6	4	4	1	0	821	1	4	0	64	90	0	0	100
fixed	2	8	7	327456	3	1	1	1	0	654	1	4	0	40	91	0	0	100
fixed	2	8	8	328411	2	3	3	1	0	1014	1	4	0	56	92	0	0	100
fixed	2	8	9	329838	3	2	2	1	0	657	1	4	0	48	93	0	0	100
fixed	2	8	10	330985	1	4	4	1	0	545	1	4	0	64	94	0	0	100
fixed	2	8	11	332111	5	2	0	1	2	0	3	4	0	48	94	0	1	99
fixed	2	8	12	335263	4	3	3	1	0	1316	1	4	0	56	95	0	1	99
fixed	2	9	1	337358	4	1	1	1	0	851	1	4	0	40	96	0	1	99
fixed	2	9	2	338998	1	2	2	1	0	981	1	4	0	48	97	0	1	99
fixed	2	9	3	340478	6	4	4	1	0	663	1	4	0	64	98	0	1	99
fixed	2	9	4	341727	2	1	1	1	0	890	1	4	0	40	99	0	1	99
fixed	2	9	5	343564	5	3	3	1	0	1084	1	4	0	56	100	0	1	99
fixed	2	9	6	345660	6	4	4	1	0	747	1	4	0	64	101	0	1	99
fixed	2	9	7	347046	3	1	1	1	0	976	1	4	0	40	102	0	1	99
fixed	2	9	8	348644	2	3	3	1	0	861	1	4	0	56	103	0	1	99
fixed	2	9	9	349939	3	2	2	1	0	622	1	4	0	48	104	0	1	99
fixed	2	9	10	351183	1	4	4	1	0	713	1	4	0	64	105	0	1	99
fixed	2	9	11	352927	5	2	2	1	0	895	1	4	0	48	106	0	1	99
fixed	2	9	12	354838	4	3	3	1	0	542	1	4	0	56	107	0	1	99
fixed	2	10	1	356371	4	1	1	1	0	629	1	4	0	40	108	0	1	99
fixed	2	10	2	357961	1	2	2	1	0	986	1	4	0	48	109	0	1	99
fixed	2	10	3	359552	6	4	4	1	0	823	1	4	0	64	110	0	1	99
fixed	2	10	4	361114	2	1	1	1	0	820	1	4	0	40	111	0	1	99
fixed	2	10	5	362907	5	3	3	1	0	913	1	4	0	56	112	0	1	99
fixed	2	10	6	364727	6	4	4	1	0	748	1	4	0	64	113	0	1	99
fixed	2	10	7	366217	3	1	1	1	0	725	1	4	0	40	114	0	1	99
fixed	2	10	8	367399	2	3	3	1	0	1042	1	4	0	56	115	0	1	99
fixed	2	10	9	369457	3	2	2	1	0	715	1	4	0	48	116	0	1	99
fixed	2	10	10	370846	1	4	4	1	0	632	1	4	0	64	117	0	1	99
fixed	2	10	11	372328	5	2	2	1	0	1058	1	4	0	48	118	0	1	99
fixed	2	10	12	373685	4	3	3	1	0	576	1	4	0	56	119	0	1	99
fixed	3	1	1	375633	4	1	1	1	0	573	1	4	0	72	1	0	0	100
fixed	3	1	2	377177	1	2	2	1	0	956	1	4	0	80	2	0	0	100
fixed	3	1	3	379168	6	4	4	1	0	552	1	4	0	96	3	0	0	100
fixed	3	1	4	380062	2	1	1	1	0	778	1	4	0	72	4	0	0	100
fixed	3	1	5	381543	5	3	3	1	0	1108	1	4	0	88	5	0	0	100
fixed	3	1	6	383282	6	4	4	1	0	1018	1	4	0	96	6	0	0	100
fixed	3	1	7	384620	3	1	1	1	0	713	1	4	0	72	7	0	0	100
fixed	3	1	8	386125	2	3	3	1	0	1033	1	4	0	88	8	0	0	100
fixed	3	1	9	387498	3	2	2	1	0	959	1	4	0	80	9	0	0	100
fixed	3	1	10	388975	1	4	4	1	0	665	1	4	0	96	10	0	0	100
fixed	3	1	11	390203	5	2	2	1	0	1028	1	4	0	80	11	0	0	100
fixed	3	1	12	391644	4	3	3	1	0	687	1	4	0	88	12	0	0	100
fixed	3	2	1	393462	4	1	1	1	0	610	1	4	0	72	13	0	0	100
fixed	3	2	2	394538	1	2	2	1	0	1053	1	4	0	80	14	0	0	100
fixed	3	2	3	396410	6	4	4	1	0	694	1	4	0	96	15	0	0	100
fixed	3	2	4	397413	2	1	1	1	0	739	1	4	0	72	16	0	0	100
fixed	3	2	5	399087	5	3	3	1	0	805	1	4	0	88	17	0	0	100
fixed	3	2	6	400441	6	4	4	1	0	707	1	4	0	96	18	0	0	100
fixed	3	2	7	402160	3	1	1	1	0	730	1	4	0	72	19	0	0	100
fixed	3	2	8	403330	2	3	3	1	0	1049	1	4	0	88	20	0	0	100
fixed	3	2	9	404680	3	2	2	1	0	655	1	4	0	80	21	0	0	100
fixed	3	2	10	406295	1	4	4	1	0	619	1	4	0	96	22	0	0	100
fixed	3	2	11	407266	5	2	2	1	0	778	1	4	0	80	23	0	0	100
fixed	3	2	12	408731	4	3	3	1	0	964	1	4	0	88	24	0	0	100
fixed	3	3	1	410855	4	1	1	1	0	618	1	4	0	72	25	0	0	100
fixed	3	3	2	412240	1	2	2	2	0	1183	2	4	0	80	26	0	0	100
fixed	3	3	3	414269	6	4	4	1	0	753	1	4	0	96	27	0	0	100
fixed	3	3	4	415465	2	1	1	1	0	862	1	4	0	72	28	0	0	100
fixed	3	3	5	417363	5	3	3	1	0	950	1	4	0	88	29	0	0	100
fixed	3	3	6	418905	6	4	4	1	0	677	1	4	0	96	30	0	0	100
fixed	3	3	7	420191	3	1	1	1	0	959	1	4	0	72	31	0	0	100
fixed	3	3	8	422094	2	3	3	1	0	1118	1	4	0	88	32	0	0	100
fixed	3	3	9	423539	3	2	2	1	0	537	1	4	0	80	33	0	0	100
fixed	3	3	10	424812	1	4	4	1	0	587	1	4	0	96	34	0	0	100
fixed	3	3	11	426167	5	2	2	1	0	1049	1	4	0	80	35	0	0	100
fixed	3	3	12	427818	4	3	3	1	0	531	1	4	0	88	36	0	0	100
fixed	3	4	1	429016	4	1	1	1	0	368	1	4	0	72	37	0	0	100
fixed	3	4	2	429935	1	2	2	1	0	945	1	4	0	80	38	0	0	100
fixed	3	4	3	431415	6	4	4	1	0	747	1	4	0	96	39	0	0	100
fixed	3	4	4	432499	2	1	1	1	0	805	1	4	0	72	40	0	0	100
fixed	3	4	5	434213	5	3	3	1	0	892	1	4	0	88	41	0	0	100
fixed	3	4	6	436033	6	4	4	1	0	639	1	4	0	96	42	0	0	100
fixed	3	4	7	437628	3	1	1	1	0	668	1	4	0	72	43	0	0	100
fixed	3	4	8	439291	2	3	3	1	0	909	1	4	0	88	44	0	0	100
fixed	3	4	9	441154	3	2	2	2	0	1663	2	4	0	80	45	0	0	100
fixed	3	4	10	443781	1	4	4	1	0	704	1	4	0	96	46	0	0	100
fixed	3	4	11	445061	5	2	2	1	0	873	1	4	0	80	47	0	0	100
fixed	3	4	12	446231	4	3	3	1	0	992	1	4	0	88	48	0	0	100
fixed	3	5	1	448030	4	1	1	1	0	883	1	4	0	72	49	0	0	100
fixed	3	5	2	449400	1	2	2	1	0	2025	1	4	0	80	50	0	0	100
fixed	3	5	3	451803	6	4	4	1	0	555	1	4	0	96	51	0	0	100
fixed	3	5	4	453331	2	1	1	1	0	675	1	4	0	72	52	0	0	100
fixed	3	5	5	455032	5	3	3	1	0	995	1	4	0	88	53	0	0	100
fixed	3	5	6	456834	6	4	4	1	0	734	1	4	0	96	54	0	0	100
fixed	3	5	7	457958	3	1	1	1	0	847	1	4	0	72	55	0	0	100
fixed	3	5	8	459707	2	3	3	1	0	1148	1	4	0	88	56	0	0	100
fixed	3	5	9	461646	3	2	2	1	0	770	1	4	0	80	57	0	0	100
fixed	3	5	10	462886	1	4	4	1	0	718	1	4	0	96	58	0	0	100
fixed	3	5	11	464460	5	2	2	1	0	811	1	4	0	80	59	0	0	100
fixed	3	5	12	465979	4	3	3	1	0	1307	1	4	0	88	60	0	0	100
fixed	3	6	1	468279	4	1	1	1	0	481	1	4	0	72	61	0	0	100
fixed	3	6	2	469442	1	2	2	1	0	937	1	4	0	80	62	0	0	100
fixed	3	6	3	471164	6	4	4	1	0	856	1	4	0	96	63	0	0	100
fixed	3	6	4	472330	2	1	1	1	0	814	1	4	0	72	64	0	0	100
fixed	3	6	5	474066	5	3	3	1	0	1109	1	4	0	88	65	0	0	100
fixed	3	6	6	475973	6	4	4	1	0	716	1	4	0	96	66	0	0	100
fixed	3	6	7	477495	3	1	1	1	0	1123	1	4	0	72	67	0	0	100
fixed	3	6	8	479084	2	3	3	1	0	1000	1	4	0	88	68	0	0	100
fixed	3	6	9	480364	3	2	2	1	0	714	1	4	0	80	69	0	0	100
fixed	3	6	10	481490	1	4	4	1	0	570	1	4	0	96	70	0	0	100
fixed	3	6	11	483028	5	2	2	1	0	761	1	4	0	80	71	0	0	100
fixed	3	6	12	484230	4	3	3	1	0	638	1	4	0	88	72	0	0	100
fixed	3	7	1	485906	4	1	1	1	0	383	1	4	0	72	73	0	0	100
fixed	3	7	2	487199	1	2	2	1	0	888	1	4	0	80	74	0	0	100
fixed	3	7	3	489043	6	4	4	1	0	738	1	4	0	96	75	0	0	100
fixed	3	7	4	490073	2	1	1	1	0	991	1	4	0	72	76	0	0	100
fixed	3	7	5	491727	5	3	3	1	0	1041	1	4	0	88	77	0	0	100
fixed	3	7	6	493274	6	4	4	1	0	1135	1	4	0	96	78	0	0	100
fixed	3	7	7	494720	3	1	1	1	0	938	1	4	0	72	79	0	0	100
fixed	3	7	8	496372	2	3	3	1	0	916	1	4	0	88	80	0	0	100
fixed	3	7	9	497595	3	2	2	1	0	832	1	4	0	80	81	0	0	100
fixed	3	7	10	499057	1	4	4	1	0	946	1	4	0	96	82	0	0	100
fixed	3	7	11	500947	5	2	2	1	0	786	1	4	0	80	83	0	0	100
fixed	3	7	12	502395	4	3	3	1	0	476	1	4	0	88	84	0	0	100
fixed	3	8	1	503833	4	1	1	1	0	415	1	4	0	72	85	0	0	100
fixed	3	8	2	505278	1	2	2	1	0	795	1	4	0	80	86	0	0	100
fixed	3	8	3	506629	6	4	4	1	0	1081	1	4	0	96	87	0	0	100
fixed	3	8	4	508629	2	1	1	1	0	892	1	4	0	72	88	0	0	100
fixed	3	8	5	510398	5	3	3	1	0	1121	1	4	0	88	89	0	0	100
fixed	3	8	6	512290	6	4	4	1	0	1057	1	4	0	96	90	0	0	100
fixed	3	8	7	514207	3	1	1	1	0	744	1	4	0	72	91	0	0	100
fixed	3	8	8	515602	2	3	3	1	0	1141	1	4	0	88	92	0	0	100
fixed	3	8	9	517602	3	2	2	1	0	680	1	4	0	80	93	0	0	100
fixed	3	8	10	519073	1	4	4	1	0	722	1	4	0	96	94	0	0	100
fixed	3	8	11	520625	5	2	2	1	0	1152	1	4	0	80	95	0	0	100
fixed	3	8	12	522297	4	3	3	1	0	514	1	4	0	88	96	0	0	100
fixed	3	9	1	524100	4	1	1	1	0	413	1	4	0	72	97	0	0	100
fixed	3	9	2	525209	1	2	2	1	0	1062	1	4	0	80	98	0	0	100
fixed	3	9	3	526901	6	4	4	1	0	951	1	4	0	96	99	0	0	100
fixed	3	9	4	528442	2	1	1	1	0	1261	1	4	0	72	100	0	0	100
fixed	3	9	5	530538	5	3	3	2	0	1237	2	4	0	88	101	0	0	100
fixed	3	9	6	532679	6	4	4	1	0	826	1	4	0	96	102	0	0	100
fixed	3	9	7	533911	3	1	1	1	0	854	1	4	0	72	103	0	0	100
fixed	3	9	8	535797	2	3	3	1	0	1126	1	4	0	88	104	0	0	100
fixed	3	9	9	537501	3	2	2	1	0	758	1	4	0	80	105	0	0	100
fixed	3	9	10	538656	1	4	4	1	0	781	1	4	0	96	106	0	0	100
fixed	3	9	11	540256	5	2	2	1	0	1017	1	4	0	80	107	0	0	100
fixed	3	9	12	541957	4	3	3	1	0	601	1	4	0	88	108	0	0	100
fixed	3	10	1	543698	4	1	1	1	0	391	1	4	0	72	109	0	0	100
fixed	3	10	2	544873	1	2	2	1	0	1109	1	4	0	80	110	0	0	100
fixed	3	10	3	546917	6	4	4	1	0	935	1	4	0	96	111	0	0	100
fixed	3	10	4	548635	2	1	1	1	0	742	1	4	0	72	112	0	0	100
fixed	3	10	5	549806	5	3	3	1	0	989	1	4	0	88	113	0	0	100
fixed	3	10	6	551190	6	4	4	1	0	850	1	4	0	96	114	0	0	100
fixed	3	10	7	553018	3	1	1	1	0	988	1	4	0	72	115	0	0	100
fixed	3	10	8	554496	2	3	3	1	0	1390	1	4	0	88	116	0	0	100
fixed	3	10	9	556914	3	2	2	1	0	855	1	4	0	80	117	0	0	100
fixed	3	10	10	558674	1	4	4	1	0	765	1	4	0	96	118	0	0	100
fixed	3	10	11	560200	5	2	2	1	0	1261	1	4	0	80	119	0	0	100
fixed	3	10	12	562255	4	3	3	1	0	693	1	4	0	88	120	0	0	100
fixed	4	1	1	686195	4	1	1	1	0	579	1	4	0	104	1	0	0	100
fixed	4	1	2	687250	1	2	2	1	0	895	1	4	0	112	2	0	0	100
fixed	4	1	3	688676	6	4	4	1	0	371	1	4	0	128	3	0	0	100
fixed	4	1	4	689770	2	1	1	1	0	813	1	4	0	104	4	0	0	100
fixed	4	1	5	691375	5	3	3	1	0	712	1	4	0	120	5	0	0	100
fixed	4	1	6	692584	6	4	4	1	0	805	1	4	0	128	6	0	0	100
fixed	4	1	7	693977	3	1	1	1	0	634	1	4	0	104	7	0	0	100
fixed	4	1	8	695510	2	3	3	1	0	1025	1	4	0	120	8	0	0	100
fixed	4	1	9	697235	3	2	2	1	0	760	1	4	0	112	9	0	0	100
fixed	4	1	10	698283	1	4	4	1	0	524	1	4	0	128	10	0	0	100
fixed	4	1	11	699687	5	2	2	1	0	968	1	4	0	112	11	0	0	100
fixed	4	1	12	701584	4	3	3	1	0	696	1	4	0	120	12	0	0	100
fixed	4	2	1	703473	4	1	1	1	0	400	1	4	0	104	13	0	0	100
fixed	4	2	2	704685	1	2	2	1	0	781	1	4	0	112	14	0	0	100
fixed	4	2	3	705937	6	4	4	1	0	1176	1	4	0	128	15	0	0	100
fixed	4	2	4	708095	2	1	1	1	0	1204	1	4	0	104	16	0	0	100
fixed	4	2	5	709917	5	3	3	2	0	1079	2	4	0	120	17	0	0	100
fixed	4	2	6	711858	6	4	4	1	0	748	1	4	0	128	18	0	0	100
fixed	4	2	7	712931	3	1	1	1	0	887	1	4	0	104	19	0	0	100
fixed	4	2	8	714528	2	3	3	1	0	1172	1	4	0	120	20	0	0	100
fixed	4	2	9	716191	3	2	2	1	0	749	1	4	0	112	21	0	0	100
fixed	4	2	10	717584	1	4	4	1	0	746	1	4	0	128	22	0	0	100
fixed	4	2	11	718973	5	2	2	1	0	968	1	4	0	112	23	0	0	100
fixed	4	2	12	720652	4	3	3	1	0	768	1	4	0	120	24	0	0	100
fixed	4	3	1	722503	4	1	1	1	0	482	1	4	0	104	25	0	0	100
fixed	4	3	2	723913	1	2	2	1	0	878	1	4	0	112	26	0	0	100
fixed	4	3	3	725619	6	4	4	1	0	550	1	4	0	128	27	0	0	100
fixed	4	3	4	726702	2	1	1	1	0	680	1	4	0	104	28	0	0	100
fixed	4	3	5	728365	5	3	3	1	0	657	1	4	0	120	29	0	0	100
fixed	4	3	6	729720	6	4	4	1	0	1640	1	4	0	128	30	0	0	100
fixed	4	3	7	732102	3	1	1	1	0	627	1	4	0	104	31	0	0	100
fixed	4	3	8	733176	2	3	3	1	0	870	1	4	0	120	32	0	0	100
fixed	4	3	9	734618	3	2	2	1	0	648	1	4	0	112	33	0	0	100
fixed	4	3	10	735859	1	4	4	1	0	556	1	4	0	128	34	0	0	100
fixed	4	3	11	737072	5	2	2	1	0	920	1	4	0	112	35	0	0	100
fixed	4	3	12	739011	4	3	3	1	0	462	1	4	0	120	36	0	0	100
fixed	4	4	1	740263	4	1	1	1	0	489	1	4	0	104	37	0	0	100
fixed	4	4	2	741250	1	2	2	1	0	960	1	4	0	112	38	0	0	100
fixed	4	4	3	742690	6	4	4	1	0	715	1	4	0	128	39	0	0	100
fixed	4	4	4	744324	2	1	1	1	0	757	1	4	0	104	40	0	0	100
fixed	4	4	5	745877	5	3	3	1	0	1156	1	4	0	120	41	0	0	100
fixed	4	4	6	747619	6	4	4	1	0	802	1	4	0	128	42	0	0	100
fixed	4	4	7	749115	3	1	1	1	0	914	1	4	0	104	43	0	0	100
fixed	4	4	8	750511	2	3	3	1	0	903	1	4	0	120	44	0	0	100
fixed	4	4	9	751867	3	2	2	1	0	782	1	4	0	112	45	0	0	100
fixed	4	4	10	753072	1	4	4	1	0	667	1	4	0	128	46	0	0	100
fixed	4	4	11	754413	5	2	2	1	0	834	1	4	0	112	47	0	0	100
fixed	4	4	12	755742	4	3	3	1	0	522	1	4	0	120	48	0	0	100
fixed	4	5	1	757305	4	1	1	1	0	375	1	4	0	104	49	0	0	100
fixed	4	5	2	758242	1	2	2	2	0	1432	2	4	0	112	50	0	0	100
fixed	4	5	3	760548	6	4	4	1	0	958	1	4	0	128	51	0	0	100
fixed	4	5	4	762050	2	1	1	1	0	983	1	4	0	104	52	0	0	100
fixed	4	5	5	763900	5	3	3	1	0	1081	1	4	0	120	53	0	0	100
fixed	4	5	6	765799	6	4	4	1	0	1736	1	4	0	128	54	0	0	100
fixed	4	5	7	768183	3	1	1	1	0	691	1	4	0	104	55	0	0	100
fixed	4	5	8	769802	2	3	3	1	0	1350	1	4	0	120	56	0	0	100
fixed	4	5	9	771767	3	2	2	1	0	555	1	4	0	112	57	0	0	100
fixed	4	5	10	772811	1	4	4	1	0	799	1	4	0	128	58	0	0	100
fixed	4	5	11	774586	5	2	2	1	0	1428	1	4	0	112	59	0	0	100
fixed	4	5	12	776524	4	3	3	1	0	514	1	4	0	120	60	0	0	100
fixed	4	6	1	777989	4	1	1	1	0	859	1	4	0	104	61	0	0	100
fixed	4	6	2	779325	1	2	2	2	0	1731	2	4	0	112	62	0	0	100
fixed	4	6	3	782036	6	4	4	1	0	792	1	4	0	128	63	0	0	100
fixed	4	6	4	783376	2	1	1	1	0	720	1	4	0	104	64	0	0	100
fixed	4	6	5	785128	5	3	3	1	0	1549	1	4	0	120	65	0	0	100
fixed	4	6	6	787058	6	4	4	1	0	764	1	4	0	128	66	0	0	100
fixed	4	6	7	788178	3	1	1	1	0	668	1	4	0	104	67	0	0	100
fixed	4	6	8	789389	2	3	3	1	0	897	1	4	0	120	68	0	0	100
fixed	4	6	9	790791	3	2	2	1	0	493	1	4	0	112	69	0	0	100
fixed	4	6	10	791891	1	4	4	1	0	743	1	4	0	128	70	0	0	100
fixed	4	6	11	793190	5	2	2	1	0	1016	1	4	0	112	71	0	0	100
fixed	4	6	12	795063	4	3	3	1	0	912	1	4	0	120	72	0	0	100
fixed	4	7	1	796802	4	1	1	1	0	647	1	4	0	104	73	0	0	100
fixed	4	7	2	797772	1	2	2	2	0	2390	2	4	0	112	74	0	0	100
fixed	4	7	3	801095	6	4	4	1	0	1417	1	4	0	128	75	0	0	100
fixed	4	7	4	803088	2	1	1	1	0	644	1	4	0	104	76	0	0	100
fixed	4	7	5	804768	5	3	3	1	0	966	1	4	0	120	77	0	0	100
fixed	4	7	6	806691	6	4	4	1	0	772	1	4	0	128	78	0	0	100
fixed	4	7	7	807764	3	1	1	1	0	830	1	4	0	104	79	0	0	100
fixed	4	7	8	809034	2	3	3	1	0	761	1	4	0	120	80	0	0	100
fixed	4	7	9	810424	3	2	2	1	0	478	1	4	0	112	81	0	0	100
fixed	4	7	10	811686	1	4	4	1	0	792	1	4	0	128	82	0	0	100
fixed	4	7	11	812797	5	2	2	1	0	865	1	4	0	112	83	0	0	100
fixed	4	7	12	814309	4	3	3	1	0	697	1	4	0	120	84	0	0	100
fixed	4	8	1	816016	4	1	1	1	0	737	1	4	0	104	85	0	0	100
fixed	4	8	2	817054	1	2	2	1	0	949	1	4	0	112	86	0	0	100
fixed	4	8	3	819023	6	4	4	1	0	641	1	4	0	128	87	0	0	100
fixed	4	8	4	820454	2	1	1	1	0	741	1	4	0	104	88	0	0	100
fixed	4	8	5	821602	5	3	3	1	0	772	1	4	0	120	89	0	0	100
fixed	4	8	6	823012	6	4	4	1	0	785	1	4	0	128	90	0	0	100
fixed	4	8	7	824349	3	1	1	1	0	888	1	4	0	104	91	0	0	100
fixed	4	8	8	825997	2	3	3	1	0	1002	1	4	0	120	92	0	0	100
fixed	4	8	9	827850	3	2	2	1	0	716	1	4	0	112	93	0	0	100
fixed	4	8	10	828933	1	4	4	1	0	750	1	4	0	128	94	0	0	100
fixed	4	8	11	830570	5	2	2	1	0	1016	1	4	0	112	95	0	0	100
fixed	4	8	12	832340	4	3	3	1	0	565	1	4	0	120	96	0	0	100
fixed	4	9	1	833743	4	1	1	1	0	610	1	4	0	104	97	0	0	100
fixed	4	9	2	835089	1	2	2	1	0	1033	1	4	0	112	98	0	0	100
fixed	4	9	3	836507	6	4	4	1	0	949	1	4	0	128	99	0	0	100
fixed	4	9	4	837997	2	1	1	1	0	974	1	4	0	104	100	0	0	100
fixed	4	9	5	839418	5	3	3	1	0	1050	1	4	0	120	101	0	0	100
fixed	4	9	6	840950	6	4	4	1	0	841	1	4	0	128	102	0	0	100
fixed	4	9	7	842660	3	1	1	1	0	801	1	4	0	104	103	0	0	100
fixed	4	9	8	843770	2	3	3	1	0	977	1	4	0	120	104	0	0	100
fixed	4	9	9	845574	3	2	2	1	0	717	1	4	0	112	105	0	0	100
fixed	4	9	10	847185	1	4	4	1	0	761	1	4	0	128	106	0	0	100
fixed	4	9	11	848763	5	2	2	1	0	918	1	4	0	112	107	0	0	100
fixed	4	9	12	850026	4	3	3	1	0	473	1	4	0	120	108	0	0	100
fixed	4	10	1	851787	4	1	1	1	0	470	1	4	0	104	109	0	0	100
fixed	4	10	2	852687	1	2	0	1	2	0	3	4	0	112	109	0	1	99
fixed	4	10	3	855838	6	4	4	1	0	762	1	4	0	128	110	0	1	99
fixed	4	10	4	857283	2	1	1	1	0	917	1	4	0	104	111	0	1	99
fixed	4	10	5	859202	5	3	3	1	0	868	1	4	0	120	112	0	1	99
fixed	4	10	6	861044	6	4	4	1	0	702	1	4	0	128	113	0	1	99
fixed	4	10	7	862546	3	1	1	1	0	798	1	4	0	104	114	0	1	99
fixed	4	10	8	863874	2	3	3	1	0	806	1	4	0	120	115	0	1	99
fixed	4	10	9	865656	3	2	2	1	0	810	1	4	0	112	116	0	1	99
fixed	4	10	10	867034	1	4	4	1	0	752	1	4	0	128	117	0	1	99
fixed	4	10	11	868772	5	2	2	1	0	679	1	4	0	112	118	0	1	99
fixed	4	10	12	870077	4	3	3	1	0	1312	1	4	0	120	119	0	1	99
fixed	5	1	1	872235	4	1	1	1	0	564	1	4	0	136	1	0	0	100
fixed	5	1	2	873099	1	2	2	2	0	1831	2	4	0	144	2	0	0	100
fixed	5	1	3	875550	6	4	4	1	0	679	1	4	0	160	3	0	0	100
fixed	5	1	4	876645	2	1	1	1	0	1337	1	4	0	136	4	0	0	100
fixed	5	1	5	878343	5	3	3	1	0	961	1	4	0	152	5	0	0	100
fixed	5	1	6	879860	6	4	4	1	0	977	1	4	0	160	6	0	0	100
fixed	5	1	7	881767	3	1	1	1	0	760	1	4	0	136	7	0	0	100
fixed	5	1	8	883018	2	3	3	1	0	851	1	4	0	152	8	0	0	100
fixed	5	1	9	884618	3	2	2	1	0	679	1	4	0	144	9	0	0	100
fixed	5	1	10	885686	1	4	4	1	0	1274	1	4	0	160	10	0	0	100
fixed	5	1	11	887748	5	2	2	1	0	755	1	4	0	144	11	0	0	100
fixed	5	1	12	888799	4	3	3	1	0	638	1	4	0	152	12	0	0	100
fixed	5	2	1	890098	4	1	1	1	0	383	1	4	0	136	13	0	0	100
fixed	5	2	2	890853	1	2	2	2	0	1735	2	4	0	144	14	0	0	100
fixed	5	2	3	893208	6	4	4	1	0	1619	1	4	0	160	15	0	0	100
fixed	5	2	4	895357	2	1	1	1	0	841	1	4	0	136	16	0	0	100
fixed	5	2	5	896804	5	3	3	1	0	1251	1	4	0	152	17	0	0	100
fixed	5	2	6	898385	6	4	4	1	0	848	1	4	0	160	18	0	0	100
fixed	5	2	7	900124	3	1	1	1	0	998	1	4	0	136	19	0	0	100
fixed	5	2	8	901463	2	3	3	1	0	1062	1	4	0	152	20	0	0	100
fixed	5	2	9	903403	3	2	2	1	0	692	1	4	0	144	21	0	0	100
fixed	5	2	10	904978	1	4	4	1	0	825	1	4	0	160	22	0	0	100
fixed	5	2	11	906397	5	2	2	1	0	845	1	4	0	144	23	0	0	100
fixed	5	2	12	907603	4	3	3	1	0	1146	1	4	0	152	24	0	0	100
fixed	5	3	1	909779	4	1	1	1	0	389	1	4	0	136	25	0	0	100
fixed	5	3	2	910552	1	2	2	1	0	1173	1	4	0	144	26	0	0	100
fixed	5	3	3	912401	6	4	4	1	0	702	1	4	0	160	27	0	0	100
fixed	5	3	4	913578	2	1	1	1	0	1229	1	4	0	136	28	0	0	100
fixed	5	3	5	915349	5	3	3	1	0	882	1	4	0	152	29	0	0	100
fixed	5	3	6	916961	6	4	4	1	0	789	1	4	0	160	30	0	0	100
fixed	5	3	7	918479	3	1	1	1	0	1077	1	4	0	136	31	0	0	100
fixed	5	3	8	920419	2	3	3	1	0	1075	1	4	0	152	32	0	0	100
fixed	5	3	9	921924	3	2	2	1	0	627	1	4	0	144	33	0	0	100
fixed	5	3	10	923283	1	4	4	1	0	898	1	4	0	160	34	0	0	100
fixed	5	3	11	925016	5	2	2	1	0	864	1	4	0	144	35	0	0	100
fixed	5	3	12	926681	4	3	3	2	0	1674	2	4	0	152	36	0	0	100
fixed	5	4	1	929043	4	1	1	1	0	981	1	4	0	136	37	0	0	100
fixed	5	4	2	930889	1	2	2	1	0	1688	1	4	0	144	38	0	0	100
fixed	5	4	3	933428	6	4	4	1	0	644	1	4	0	160	39	0	0	100
fixed	5	4	4	934633	2	1	1	1	0	1681	1	4	0	136	40	0	0	100
fixed	5	4	5	936883	5	3	3	1	0	1762	1	4	0	152	41	0	0	100
fixed	5	4	6	939653	6	4	4	1	0	708	1	4	0	160	42	0	0	100
fixed	5	4	7	941375	3	1	1	1	0	1835	1	4	0	136	43	0	0	100
fixed	5	4	8	943587	2	3	3	1	0	1190	1	4	0	152	44	0	0	100
fixed	5	4	9	945648	3	2	2	1	0	822	1	4	0	144	45	0	0	100
fixed	5	4	10	947262	1	4	4	1	0	1482	1	4	0	160	46	0	0	100
fixed	5	4	11	949770	5	2	2	1	0	744	1	4	0	144	47	0	0	100
fixed	5	4	12	951124	4	3	3	1	0	615	1	4	0	152	48	0	0	100
fixed	5	5	1	952818	4	1	1	1	0	726	1	4	0	136	49	0	0	100
fixed	5	5	2	953946	1	2	2	2	0	2295	2	4	0	144	50	0	0	100
fixed	5	5	3	956657	6	4	4	1	0	804	1	4	0	160	51	0	0	100
fixed	5	5	4	957846	2	1	1	1	0	1265	1	4	0	136	52	0	0	100
fixed	5	5	5	959770	5	3	3	1	0	952	1	4	0	152	53	0	0	100
fixed	5	5	6	961634	6	4	4	1	0	874	1	4	0	160	54	0	0	100
fixed	5	5	7	963520	3	1	1	1	0	698	1	4	0	136	55	0	0	100
fixed	5	5	8	964885	2	3	3	1	0	1240	1	4	0	152	56	0	0	100
fixed	5	5	9	966999	3	2	2	1	0	902	1	4	0	144	57	0	0	100
fixed	5	5	10	968247	1	4	4	1	0	2041	1	4	0	160	58	0	0	100
fixed	5	5	11	970579	5	2	2	1	0	1470	1	4	0	144	59	0	0	100
fixed	5	5	12	972816	4	3	3	1	0	735	1	4	0	152	60	0	0	100
fixed	5	6	1	974806	4	1	1	1	0	331	1	4	0	136	61	0	0	100
fixed	5	6	2	976067	1	2	2	1	0	686	1	4	0	144	62	0	0	100
fixed	5	6	3	977398	6	4	4	1	0	637	1	4	0	160	63	0	0	100
fixed	5	6	4	978695	2	1	1	1	0	1295	1	4	0	136	64	0	0	100
fixed	5	6	5	981002	5	3	3	1	0	1533	1	4	0	152	65	0	0	100
fixed	5	6	6	982916	6	4	4	1	0	708	1	4	0	160	66	0	0	100
fixed	5	6	7	984410	3	1	1	1	0	668	1	4	0	136	67	0	0	100
fixed	5	6	8	986106	2	3	3	1	0	973	1	4	0	152	68	0	0	100
fixed	5	6	9	987493	3	2	2	1	0	850	1	4	0	144	69	0	0	100
fixed	5	6	10	988850	1	4	4	1	0	921	1	4	0	160	70	0	0	100
fixed	5	6	11	990133	5	2	2	1	0	1090	1	4	0	144	71	0	0	100
fixed	5	6	12	992210	4	3	3	1	0	858	1	4	0	152	72	0	0	100
fixed	5	7	1	993852	4	1	1	1	0	804	1	4	0	136	73	0	0	100
fixed	5	7	2	995257	1	2	2	2	0	1481	2	4	0	144	74	0	0	100
fixed	5	7	3	997093	6	4	4	1	0	1267	1	4	0	160	75	0	0	100
fixed	5	7	4	999205	2	1	1	1	0	1034	1	4	0	136	76	0	0	100
fixed	5	7	5	1001138	5	3	3	1	0	1160	1	4	0	152	77	0	0	100
fixed	5	7	6	1002689	6	4	4	1	0	758	1	4	0	160	78	0	0	100
fixed	5	7	7	1004096	3	1	1	1	0	1099	1	4	0	136	79	0	0	100
fixed	5	7	8	1005734	2	3	3	1	0	949	1	4	0	152	80	0	0	100
fixed	5	7	9	1007047	3	2	2	1	0	1038	1	4	0	144	81	0	0	100
fixed	5	7	10	1008714	1	4	4	1	0	1239	1	4	0	160	82	0	0	100
fixed	5	7	11	1010246	5	2	2	1	0	1662	1	4	0	144	83	0	0	100
fixed	5	7	12	1012896	4	3	3	1	0	614	1	4	0	152	84	0	0	100
fixed	5	8	1	1014085	4	1	1	1	0	627	1	4	0	136	85	0	0	100
fixed	5	8	2	1015506	1	2	2	1	0	631	1	4	0	144	86	0	0	100
fixed	5	8	3	1016887	6	4	4	1	0	749	1	4	0	160	87	0	0	100
fixed	5	8	4	1018396	2	1	1	1	0	1317	1	4	0	136	88	0	0	100
fixed	5	8	5	1020629	5	3	3	1	0	943	1	4	0	152	89	0	0	100
fixed	5	8	6	1022264	6	4	4	1	0	769	1	4	0	160	90	0	0	100
fixed	5	8	7	1023664	3	1	1	1	0	798	1	4	0	136	91	0	0	100
fixed	5	8	8	1024781	2	3	3	1	0	983	1	4	0	152	92	0	0	100
fixed	5	8	9	1026618	3	2	2	1	0	905	1	4	0	144	93	0	0	100
fixed	5	8	10	1027963	1	4	4	1	0	992	1	4	0	160	94	0	0	100
fixed	5	8	11	1029675	5	2	2	2	0	1239	2	4	0	144	95	0	0	100
fixed	5	8	12	1031831	4	3	3	1	0	844	1	4	0	152	96	0	0	100
fixed	5	9	1	1033232	4	1	1	1	0	704	1	4	0	136	97	0	0	100
fixed	5	9	2	1034846	1	2	2	2	0	1549	2	4	0	144	98	0	0	100
fixed	5	9	3	1037154	6	4	4	1	0	939	1	4	0	160	99	0	0	100
fixed	5	9	4	1038774	2	1	1	1	0	702	1	4	0	136	100	0	0	100
fixed	5	9	5	1040148	5	3	3	1	0	1267	1	4	0	152	101	0	0	100
fixed	5	9	6	1042146	6	4	4	1	0	1319	1	4	0	160	102	0	0	100
fixed	5	9	7	1043894	3	1	1	1	0	853	1	4	0	136	103	0	0	100
fixed	5	9	8	1045536	2	3	3	1	0	1168	1	4	0	152	104	0	0	100
fixed	5	9	9	1047216	3	2	2	1	0	768	1	4	0	144	105	0	0	100
fixed	5	9	10	1048819	1	4	4	1	0	948	1	4	0	160	106	0	0	100
fixed	5	9	11	1050295	5	2	2	1	0	1046	1	4	0	144	107	0	0	100
fixed	5	9	12	1052120	4	3	3	1	0	849	1	4	0	152	108	0	0	100
fixed	5	10	1	1053733	4	1	1	1	0	540	1	4	0	136	109	0	0	100
fixed	5	10	2	1054708	1	2	2	1	0	891	1	4	0	144	110	0	0	100
fixed	5	10	3	1056275	6	4	4	1	0	833	1	4	0	160	111	0	0	100
fixed	5	10	4	1057962	2	1	1	1	0	857	1	4	0	136	112	0	0	100
fixed	5	10	5	1059848	5	3	3	1	0	873	1	4	0	152	113	0	0	100
fixed	5	10	6	1061117	6	4	4	1	0	1035	1	4	0	160	114	0	0	100
fixed	5	10	7	1062973	3	1	1	1	0	933	1	4	0	136	115	0	0	100
fixed	5	10	8	1064381	2	3	3	1	0	1097	1	4	0	152	116	0	0	100
fixed	5	10	9	1066448	3	2	2	1	0	1090	1	4	0	144	117	0	0	100
fixed	5	10	10	1068245	1	4	4	1	0	686	1	4	0	160	118	0	0	100
fixed	5	10	11	1069395	5	2	2	1	0	957	1	4	0	144	119	0	0	100
fixed	5	10	12	1071175	4	3	3	1	0	857	1	4	0	152	120	0	0	100
random	6	1	1	1153909	6	1	1	1	0	985	1	4	0	168	1	0	0	100
random	6	1	2	1155689	4	4	4	1	0	726	1	4	0	192	2	0	0	100
random	6	1	3	1157386	2	2	2	1	0	910	1	4	0	176	3	0	0	100
random	6	1	4	1158941	3	3	3	1	0	604	1	4	0	184	4	0	0	100
random	6	1	5	1160416	5	2	2	1	0	1070	1	4	0	176	5	0	0	100
random	6	1	6	1162347	1	4	4	1	0	692	1	4	0	192	6	0	0	100
random	6	1	7	1163871	6	1	1	1	0	1131	1	4	0	168	7	0	0	100
random	6	1	8	1165568	2	3	3	1	0	828	1	4	0	184	8	0	0	100
random	6	1	9	1167408	4	2	2	1	0	966	1	4	0	176	9	0	0	100
random	6	1	10	1169014	1	1	1	1	0	1049	1	4	0	168	10	0	0	100
random	6	1	11	1170701	5	4	4	1	0	610	1	4	0	192	11	0	0	100
random	6	1	12	1171823	3	3	3	1	0	802	1	4	0	184	12	0	0	100
random	6	1	13	1173877	5	2	2	1	0	971	1	4	0	176	13	0	0	100
random	6	1	14	1175872	1	4	4	1	0	1055	1	4	0	192	14	0	0	100
random	6	1	15	1177399	3	1	1	1	0	839	1	4	0	168	15	0	0	100
random	6	1	16	1179081	4	3	3	1	0	839	1	4	0	184	16	0	0	100
random	6	1	17	1180628	6	4	4	1	0	797	1	4	0	192	17	0	0	100
random	6	1	18	1182310	2	1	1	1	0	807	1	4	0	168	18	0	0	100
random	6	1	19	1183408	5	3	3	1	0	1040	1	4	0	184	19	0	0	100
random	6	1	20	1184913	2	2	2	1	0	568	1	4	0	176	20	0	0	100
random	6	1	21	1186323	3	3	3	1	0	1156	1	4	0	184	21	0	0	100
random	6	1	22	1187844	6	1	1	1	0	892	1	4	0	168	22	0	0	100
random	6	1	23	1189041	4	2	2	1	0	1097	1	4	0	176	23	0	0	100
random	6	1	24	1190478	1	4	4	1	0	525	1	4	0	192	24	0	0	100
random	6	1	25	1191855	4	3	3	1	0	1202	1	4	0	184	25	0	0	100
random	6	1	26	1193994	2	1	1	1	0	791	1	4	0	168	26	0	0	100
random	6	1	27	1195801	5	2	2	2	0	1467	2	4	0	176	27	0	0	100
random	6	1	28	1198284	6	4	4	1	0	834	1	4	0	192	28	0	0	100
random	6	1	29	1199723	1	3	3	1	0	949	1	4	0	184	29	0	0	100
random	6	1	30	1201645	5	2	2	1	0	811	1	4	0	176	30	0	0	100
random	6	1	31	1203482	2	1	1	1	0	973	1	4	0	168	31	0	0	100
random	6	1	32	1205429	3	3	3	1	0	995	1	4	0	184	32	0	0	100
random	6	1	33	1206815	6	4	4	1	0	824	1	4	0	192	33	0	0	100
random	6	1	34	1208425	4	2	2	1	0	853	1	4	0	176	34	0	0	100
random	6	1	35	1210175	3	4	4	1	0	778	1	4	0	192	35	0	0	100
random	6	1	36	1211629	1	1	1	1	0	765	1	4	0	168	36	0	0	100
random	6	1	37	1212990	3	4	4	1	0	939	1	4	0	192	37	0	0	100
random	6	1	38	1214596	5	3	3	1	0	927	1	4	0	184	38	0	0	100
random	6	1	39	1216500	6	1	1	1	0	966	1	4	0	168	39	0	0	100
random	6	1	40	1218358	1	2	2	1	0	488	1	4	0	176	40	0	0	100
random	6	1	41	1219757	2	3	3	1	0	964	1	4	0	184	41	0	0	100
random	6	1	42	1221676	4	4	4	1	0	747	1	4	0	192	42	0	0	100
random	6	1	43	1222767	1	2	2	1	0	1085	1	4	0	176	43	0	0	100
random	6	1	44	1224256	6	3	3	1	0	574	1	4	0	184	44	0	0	100
random	6	1	45	1225819	3	1	1	1	0	779	1	4	0	168	45	0	0	100
random	6	1	46	1227570	4	4	4	1	0	762	1	4	0	192	46	0	0	100
random	6	1	47	1228801	2	2	2	1	0	973	1	4	0	176	47	0	0	100
random	6	1	48	1230648	5	1	1	2	0	1767	2	4	0	168	48	0	0	100
random	6	1	49	1233357	2	3	3	1	0	964	1	4	0	184	49	0	0	100
random	6	1	50	1234978	3	1	1	1	0	879	1	4	0	168	50	0	0	100
random	6	1	51	1236690	1	4	4	1	0	727	1	4	0	192	51	0	0	100
random	6	1	52	1238370	5	3	3	1	0	808	1	4	0	184	52	0	0	100
random	6	1	53	1239903	3	2	2	1	0	567	1	4	0	176	53	0	0	100
random	6	1	54	1241164	6	4	4	1	0	690	1	4	0	192	54	0	0	100
random	6	1	55	1242665	4	2	2	1	0	1042	1	4	0	176	55	0	0	100
random	6	1	56	1244570	1	1	1	1	0	857	1	4	0	168	56	0	0	100
random	6	1	57	1246435	5	4	4	1	0	755	1	4	0	192	57	0	0	100
random	6	1	58	1247835	2	1	1	1	0	831	1	4	0	168	58	0	0	100
random	6	1	59	1249141	6	2	2	1	0	888	1	4	0	176	59	0	0	100
random	6	1	60	1250328	4	3	3	1	0	742	1	4	0	184	60	0	0	100
random	6	1	61	1251752	1	2	2	1	0	1201	1	4	0	176	61	0	0	100
random	6	1	62	1253293	6	4	4	1	0	808	1	4	0	192	62	0	0	100
random	6	1	63	1255034	4	1	1	1	0	1134	1	4	0	168	63	0	0	100
random	6	1	64	1257120	2	2	2	1	0	1022	1	4	0	176	64	0	0	100
random	6	1	65	1258970	4	3	3	1	0	615	1	4	0	184	65	0	0	100
random	6	1	66	1260272	3	1	1	1	0	776	1	4	0	168	66	0	0	100
random	6	1	67	1261452	1	3	3	1	0	998	1	4	0	184	67	0	0	100
random	6	1	68	1263458	5	4	4	1	0	801	1	4	0	192	68	0	0	100
random	6	1	69	1264573	2	2	2	2	0	1290	2	4	0	176	69	0	0	100
random	6	1	70	1266768	3	1	1	1	0	765	1	4	0	168	70	0	0	100
random	6	1	71	1268249	5	4	4	1	0	838	1	4	0	192	71	0	0	100
random	6	1	72	1269459	6	3	3	1	0	1299	1	4	0	184	72	0	0	100
random	6	1	73	1271617	2	1	1	1	0	807	1	4	0	168	73	0	0	100
random	6	1	74	1272838	5	3	3	1	0	924	1	4	0	184	74	0	0	100
random	6	1	75	1274803	1	4	4	1	0	1089	1	4	0	192	75	0	0	100
random	6	1	76	1276846	6	2	2	1	0	986	1	4	0	176	76	0	0	100
random	6	1	77	1278445	2	1	1	1	0	855	1	4	0	168	77	0	0	100
random	6	1	78	1279752	4	4	4	1	0	903	1	4	0	192	78	0	0	100
random	6	1	79	1281051	3	2	2	1	0	1056	1	4	0	176	79	0	0	100
random	6	1	80	1282712	4	3	3	1	0	602	1	4	0	184	80	0	0	100
random	6	1	81	1284009	1	4	4	1	0	1075	1	4	0	192	81	0	0	100
random	6	1	82	1285492	5	1	1	1	0	788	1	4	0	168	82	0	0	100
random	6	1	83	1286866	3	2	2	1	0	1050	1	4	0	176	83	0	0	100
random	6	1	84	1288557	6	3	3	1	0	666	1	4	0	184	84	0	0	100
random	6	1	85	1290029	3	2	2	1	0	988	1	4	0	176	85	0	0	100
random	6	1	86	1291617	1	3	3	1	0	1064	1	4	0	184	86	0	0	100
random	6	1	87	1293696	4	4	4	1	0	793	1	4	0	192	87	0	0	100
random	6	1	88	1294897	2	1	1	1	0	630	1	4	0	168	88	0	0	100
random	6	1	89	1296122	6	4	4	1	0	1106	1	4	0	192	89	0	0	100
random	6	1	90	1298068	3	3	3	1	0	1063	1	4	0	184	90	0	0	100
random	6	1	91	1300096	5	4	4	1	0	810	1	4	0	192	91	0	0	100
random	6	1	92	1301652	1	2	2	1	0	776	1	4	0	176	92	0	0	100
random	6	1	93	1303167	5	1	1	1	0	1151	1	4	0	168	93	0	0	100
random	6	1	94	1304851	4	3	3	1	0	856	1	4	0	184	94	0	0	100
random	6	1	95	1306607	6	1	1	1	0	878	1	4	0	168	95	0	0	100
random	6	1	96	1308094	2	2	2	1	0	831	1	4	0	176	96	0	0	100
random	6	1	97	1309828	4	3	3	1	0	1117	1	4	0	184	97	0	0	100
random	6	1	98	1311700	3	2	2	1	0	806	1	4	0	176	98	0	0	100
random	6	1	99	1312912	6	3	3	1	0	987	1	4	0	184	99	0	0	100
random	6	1	100	1314457	1	4	4	1	0	777	1	4	0	192	100	0	0	100
random	6	1	101	1316060	4	1	1	1	0	925	1	4	0	168	101	0	0	100
random	6	1	102	1318013	5	2	2	1	0	1138	1	4	0	176	102	0	0	100
random	6	1	103	1320075	2	4	4	1	0	923	1	4	0	192	103	0	0	100
random	6	1	104	1321482	3	1	1	1	0	800	1	4	0	168	104	0	0	100
random	6	1	105	1322754	1	3	3	1	0	954	1	4	0	184	105	0	0	100
random	6	1	106	1324717	2	2	2	1	0	718	1	4	0	176	106	0	0	100
random	6	1	107	1326250	5	4	4	1	0	1045	1	4	0	192	107	0	0	100
random	6	1	108	1328319	6	1	1	1	0	750	1	4	0	168	108	0	0	100
random	6	1	109	1329977	5	4	4	1	0	904	1	4	0	192	109	0	0	100
random	6	1	110	1331431	6	3	3	1	0	970	1	4	0	184	110	0	0	100
random	6	1	111	1332779	2	2	2	1	0	625	1	4	0	176	111	0	0	100
random	6	1	112	1333832	3	1	1	1	0	509	1	4	0	168	112	0	0	100
random	6	1	113	1335004	1	2	2	1	0	1211	1	4	0	176	113	0	0	100
random	6	1	114	1336532	2	3	3	1	0	762	1	4	0	184	114	0	0	100
random	6	1	115	1338135	3	1	1	1	0	806	1	4	0	168	115	0	0	100
random	6	1	116	1339731	4	4	4	1	0	491	1	4	0	192	116	0	0	100
random	6	1	117	1340978	6	1	1	1	0	1134	1	4	0	168	117	0	0	100
random	6	1	118	1343127	5	3	3	1	0	851	1	4	0	184	118	0	0	100
random	6	1	119	1344875	1	4	4	1	0	1385	1	4	0	192	119	0	0	100
random	6	1	120	1347225	4	2	2	1	0	973	1	4	0	176	120	0	0	100
fixed	7	1	1	1349155	4	1	1	1	0	803	1	4	0	200	1	0	0	100
fixed	7	1	2	1350403	1	2	2	2	0	1535	2	4	0	208	2	0	0	100
fixed	7	1	3	1352757	6	4	4	1	0	731	1	4	0	224	3	0	0	100
fixed	7	1	4	1354077	2	1	1	1	0	1131	1	4	0	200	4	0	0	100
fixed	7	1	5	1355537	5	3	3	1	0	966	1	4	0	216	5	0	0	100
fixed	7	1	6	1356960	6	4	4	1	0	1265	1	4	0	224	6	0	0	100
fixed	7	1	7	1359132	3	1	1	1	0	733	1	4	0	200	7	0	0	100
fixed	7	1	8	1360283	2	3	3	1	0	948	1	4	0	216	8	0	0	100
fixed	7	1	9	1361988	3	2	2	1	0	900	1	4	0	208	9	0	0	100
fixed	7	1	10	1363563	1	4	4	1	0	1809	1	4	0	224	10	0	0	100
fixed	7	1	11	1366264	5	2	2	1	0	887	1	4	0	208	11	0	0	100
fixed	7	1	12	1367756	4	3	3	1	0	464	1	4	0	216	12	0	0	100
fixed	7	2	1	1369207	4	1	1	1	0	786	1	4	0	200	1	0	0	8
fixed	7	2	2	1370810	1	2	2	1	0	966	1	4	0	208	2	0	0	14
fixed	7	2	3	1372218	6	4	4	1	0	1147	1	4	0	224	3	0	0	20
fixed	7	2	4	1373965	2	1	1	1	0	825	1	4	0	200	4	0	0	25
fixed	7	2	5	1375684	5	3	3	1	0	848	1	4	0	216	5	0	0	29
fixed	7	2	6	1377426	6	4	4	1	0	1206	1	4	0	224	6	0	0	33
fixed	7	2	7	1379067	3	1	1	1	0	712	1	4	0	200	7	0	0	37
fixed	7	2	8	1380150	2	3	3	1	0	882	1	4	0	216	8	0	0	40
fixed	7	2	9	1381725	3	2	2	1	0	608	1	4	0	208	9	0	0	43
fixed	7	2	10	1383207	1	4	4	1	0	809	1	4	0	224	10	0	0	45
fixed	7	2	11	1384934	5	2	2	1	0	928	1	4	0	208	11	0	0	48
fixed	7	2	12	1386610	4	3	3	1	0	481	1	4	0	216	12	0	0	50
fixed	7	3	1	1388337	4	1	1	1	0	392	1	4	0	200	1	0	0	4
fixed	7	3	2	1389568	1	2	2	1	0	908	1	4	0	208	2	0	0	8
fixed	7	3	3	1390983	6	4	4	1	0	896	1	4	0	224	3	0	0	11
fixed	7	3	4	1392854	2	1	1	1	0	713	1	4	0	200	4	0	0	14
fixed	7	3	5	1394412	5	3	3	1	0	959	1	4	0	216	5	0	0	17
fixed	7	3	6	1395775	6	4	4	1	0	821	1	4	0	224	6	0	0	20
fixed	7	3	7	1396993	3	1	1	1	0	881	1	4	0	200	7	0	0	23
fixed	7	3	8	1398300	2	3	3	1	0	834	1	4	0	216	8	0	0	25
fixed	7	3	9	1399613	3	2	2	1	0	778	1	4	0	208	9	0	0	27
fixed	7	3	10	1401302	1	4	4	1	0	1203	1	4	0	224	10	0	0	29
fixed	7	3	11	1403364	5	2	2	1	0	931	1	4	0	208	11	0	0	31
fixed	7	3	12	1404607	4	3	3	1	0	791	1	4	0	216	12	0	0	33
fixed	7	4	1	1405997	4	1	1	1	0	676	1	4	0	200	1	0	0	3
fixed	7	4	2	1407204	1	2	2	1	0	777	1	4	0	208	2	0	0	5
fixed	7	4	3	1408699	6	4	4	1	0	770	1	4	0	224	3	0	0	8
fixed	7	4	4	1410211	2	1	1	1	0	817	1	4	0	200	4	0	0	10
fixed	7	4	5	1411618	5	3	3	1	0	1358	1	4	0	216	5	0	0	12
fixed	7	4	6	1413672	6	4	4	1	0	735	1	4	0	224	6	0	0	14
fixed	7	4	7	1414832	3	1	1	1	0	694	1	4	0	200	7	0	0	16
fixed	7	4	8	1415938	2	3	3	1	0	935	1	4	0	216	8	0	0	18
fixed	7	4	9	1417760	3	2	2	1	0	577	1	4	0	208	9	0	0	20
fixed	7	4	10	1418832	1	4	4	1	0	652	1	4	0	224	10	0	0	22
fixed	7	4	11	1419928	5	2	2	1	0	878	1	4	0	208	11	0	0	23
fixed	7	4	12	1421449	4	3	3	1	0	613	1	4	0	216	12	0	0	25
fixed	7	5	1	1423290	4	1	1	1	0	791	1	4	0	200	1	0	0	2
fixed	7	5	2	1424478	1	2	2	1	0	1205	1	4	0	208	2	0	0	4
fixed	7	5	3	1426208	6	4	4	1	0	1212	1	4	0	224	3	0	0	6
fixed	7	5	4	1428263	2	1	1	1	0	669	1	4	0	200	4	0	0	8
fixed	7	5	5	1429232	5	3	3	1	0	1172	1	4	0	216	5	0	0	9
fixed	7	5	6	1430771	6	4	4	1	0	883	1	4	0	224	6	0	0	11
fixed	7	5	7	1432268	3	1	1	1	0	715	1	4	0	200	7	0	0	13
fixed	7	5	8	1433822	2	3	3	1	0	993	1	4	0	216	8	0	0	14
fixed	7	5	9	1435157	3	2	2	1	0	777	1	4	0	208	9	0	0	16
fixed	7	5	10	1436387	1	4	4	1	0	820	1	4	0	224	10	0	0	17
fixed	7	5	11	1437941	5	2	2	1	0	955	1	4	0	208	11	0	0	19
fixed	7	5	12	1439477	4	3	3	1	0	698	1	4	0	216	12	0	0	20
fixed	7	6	1	1441233	4	1	1	1	0	375	1	4	0	200	1	0	0	2
fixed	7	6	2	1441959	1	2	2	2	0	1561	2	4	0	208	2	0	0	3
fixed	7	6	3	1443979	6	4	4	1	0	923	1	4	0	224	3	0	0	5
fixed	7	6	4	1445430	2	1	1	1	0	1686	1	4	0	200	4	0	0	6
fixed	7	6	5	1447892	5	3	3	1	0	1142	1	4	0	216	5	0	0	8
fixed	7	6	6	1449852	6	4	4	1	0	1338	1	4	0	224	6	0	0	9
fixed	7	6	7	1452197	3	1	1	1	0	863	1	4	0	200	7	0	0	10
fixed	7	6	8	1453919	2	3	3	1	0	934	1	4	0	216	8	0	0	12
fixed	7	6	9	1455716	3	2	2	1	0	794	1	4	0	208	9	0	0	13
fixed	7	6	10	1457316	1	4	4	1	0	694	1	4	0	224	10	0	0	14
fixed	7	6	11	1458374	5	2	2	1	0	1249	1	4	0	208	11	0	0	15
fixed	7	6	12	1460122	4	3	3	1	0	792	1	4	0	216	12	0	0	17
fixed	7	7	1	1462068	4	1	1	1	0	757	1	4	0	200	1	0	0	1
fixed	7	7	2	1463804	1	2	2	1	0	595	1	4	0	208	2	0	0	3
fixed	7	7	3	1465114	6	4	4	1	0	628	1	4	0	224	3	0	0	4
fixed	7	7	4	1466205	2	1	1	1	0	1334	1	4	0	200	4	0	0	5
fixed	7	7	5	1468072	5	3	3	1	0	775	1	4	0	216	5	0	0	6
fixed	7	7	6	1469473	6	4	4	1	0	1539	1	4	0	224	6	0	0	8
fixed	7	7	7	1471731	3	1	1	1	0	700	1	4	0	200	7	0	0	9
fixed	7	7	8	1473300	2	3	3	1	0	1041	1	4	0	216	8	0	0	10
fixed	7	7	9	1474984	3	2	2	1	0	730	1	4	0	208	9	0	0	11
fixed	7	7	10	1476195	1	4	4	1	0	727	1	4	0	224	10	0	0	12
fixed	7	7	11	1477311	5	2	2	1	0	823	1	4	0	208	11	0	0	13
fixed	7	7	12	1479106	4	3	3	1	0	684	1	4	0	216	12	0	0	14
fixed	7	8	1	1480914	4	1	1	1	0	351	1	4	0	200	1	0	0	1
fixed	7	8	2	1482028	1	2	2	1	0	848	1	4	0	208	2	0	0	2
fixed	7	8	3	1483811	6	4	4	1	0	1308	1	4	0	224	3	0	0	3
fixed	7	8	4	1485588	2	1	1	1	0	745	1	4	0	200	4	0	0	5
fixed	7	8	5	1487053	5	3	3	1	0	795	1	4	0	216	5	0	0	6
fixed	7	8	6	1488582	6	4	4	1	0	778	1	4	0	224	6	0	0	7
fixed	7	8	7	1490200	3	1	1	1	0	774	1	4	0	200	7	0	0	8
fixed	7	8	8	1491561	2	3	3	1	0	1156	1	4	0	216	8	0	0	9
fixed	7	8	9	1493756	3	2	2	1	0	671	1	4	0	208	9	0	0	10
fixed	7	8	10	1495101	1	4	4	1	0	910	1	4	0	224	10	0	0	11
fixed	7	8	11	1497031	5	2	2	1	0	1740	1	4	0	208	11	0	0	12
fixed	7	8	12	1499539	4	3	3	1	0	330	1	4	0	216	12	0	0	13
fixed	7	9	1	1500479	4	1	1	1	0	562	1	4	0	200	1	0	0	1
fixed	7	9	2	1501934	1	2	2	1	0	1236	1	4	0	208	2	0	0	2
fixed	7	9	3	1503981	6	4	4	1	0	750	1	4	0	224	3	0	0	3
fixed	7	9	4	1505601	2	1	1	1	0	825	1	4	0	200	4	0	0	4
fixed	7	9	5	1506863	5	3	3	1	0	843	1	4	0	216	5	0	0	5
fixed	7	9	6	1508449	6	4	4	1	0	872	1	4	0	224	6	0	0	6
fixed	7	9	7	1509949	3	1	1	1	0	841	1	4	0	200	7	0	0	7
fixed	7	9	8	1511646	2	3	3	1	0	1417	1	4	0	216	8	0	0	8
fixed	7	9	9	1513457	3	2	2	1	0	653	1	4	0	208	9	0	0	9
fixed	7	9	10	1514548	1	4	4	1	0	774	1	4	0	224	10	0	0	9
fixed	7	9	11	1516062	5	2	2	1	0	750	1	4	0	208	11	0	0	10
fixed	7	9	12	1517753	4	3	3	1	0	974	1	4	0	216	12	0	0	11
fixed	7	10	1	1519709	4	1	1	1	0	843	1	4	0	200	1	0	0	1
fixed	7	10	2	1521090	1	2	2	2	0	1329	2	4	0	208	2	0	0	2
fixed	7	10	3	1522857	6	4	4	1	0	838	1	4	0	224	3	0	0	3
fixed	7	10	4	1524356	2	1	1	1	0	1071	1	4	0	200	4	0	0	4
fixed	7	10	5	1525940	5	3	3	1	0	1531	1	4	0	216	5	0	0	4
fixed	7	10	6	1528142	6	4	4	1	0	887	1	4	0	224	6	0	0	5
fixed	7	10	7	1529998	3	1	1	1	0	728	1	4	0	200	7	0	0	6
fixed	7	10	8	1531221	2	3	3	1	0	1340	1	4	0	216	8	0	0	7
fixed	7	10	9	1533483	3	2	2	1	0	1012	1	4	0	208	9	0	0	8
fixed	7	10	10	1534817	1	4	4	1	0	1564	1	4	0	224	10	0	0	8
fixed	7	10	11	1536886	5	2	2	1	0	852	1	4	0	208	11	0	0	9
fixed	7	10	12	1538179	4	3	3	1	0	1133	1	4	0	216	12	0	0	10
