type	block	sequ.	trial	time	Pos.	Color	Button	NumRsp	Resp_1	RT_1	R_Code	Resp_2	RT_2	Trigg.	n_hit	n_inc	n_miss	score_%

random	1	1	1	5156	6	1	1	1	0	1122	1	4	0	8	1	0	0	100
random	1	1	2	7288	4	4	4	1	0	1320	1	4	0	32	2	0	0	100
random	1	1	3	9367	2	2	0	1	2	0	3	4	0	16	2	0	1	67
random	1	1	4	12396	3	3	3	1	0	1111	1	4	0	24	3	0	1	75
random	1	1	5	13967	5	2	2	1	0	997	1	4	0	16	4	0	1	80
random	1	1	6	15350	1	4	4	1	0	1202	1	4	0	32	5	0	1	83
random	1	1	7	17045	6	1	1	1	0	1043	1	4	0	8	6	0	1	86
random	1	1	8	18374	2	3	3	1	0	1578	1	4	0	24	7	0	1	88
random	1	1	9	20327	4	2	2	1	0	911	1	4	0	16	8	0	1	89
random	1	1	10	21637	1	1	1	1	0	1440	1	4	0	8	9	0	1	90
random	1	1	11	23594	5	4	4	1	0	789	1	4	0	32	10	0	1	91
random	1	1	12	25149	3	3	3	1	0	1195	1	4	0	24	11	0	1	92
random	1	1	13	27162	5	2	2	1	0	790	1	4	0	16	12	0	1	92
random	1	1	14	28586	1	4	4	1	0	1106	1	4	0	32	13	0	1	93
random	1	1	15	30706	3	1	1	1	0	992	1	4	0	8	14	0	1	93
random	1	1	16	32206	4	3	0	2	2	0	3	4	0	24	14	0	2	88
random	1	1	17	35634	6	4	4	1	0	815	1	4	0	32	15	0	2	88
random	1	1	18	36869	2	1	0	1	2	0	3	4	0	8	15	0	3	83
random	1	1	19	39760	5	3	0	2	2	0	3	4	0	24	15	0	4	79
random	1	1	20	43254	2	2	2	1	0	940	1	4	0	16	16	0	4	80
random	1	1	21	44964	3	3	3	1	0	1364	1	4	0	24	17	0	4	81
random	1	1	22	46961	6	1	1	1	0	751	1	4	0	8	18	0	4	82
random	1	1	23	48313	4	2	2	1	0	1078	1	4	0	16	19	0	4	83
random	1	1	24	50074	1	4	4	1	0	652	1	4	0	32	20	0	4	83
random	1	1	25	51439	4	3	3	1	0	1578	1	4	0	24	21	0	4	84
random	1	1	26	53890	2	1	1	1	0	738	1	4	0	8	22	0	4	85
random	1	1	27	55178	5	2	2	1	0	1124	1	4	0	16	23	0	4	85
random	1	1	28	56750	6	4	4	1	0	713	1	4	0	32	24	0	4	86
random	1	1	29	57756	1	3	3	1	0	1502	1	4	0	24	25	0	4	86
random	1	1	30	60123	5	2	2	1	0	722	1	4	0	16	26	0	4	87
random	1	1	31	61868	2	1	1	1	0	616	1	4	0	8	27	0	4	87
random	1	1	32	62850	3	3	3	1	0	1158	1	4	0	24	28	0	4	88
random	1	1	33	64380	6	4	4	1	0	630	1	4	0	32	29	0	4	88
random	1	1	34	65733	4	2	2	1	0	1117	1	4	0	16	30	0	4	88
random	1	1	35	67753	3	4	4	1	0	623	1	4	0	32	31	0	4	89
random	1	1	36	69255	1	1	1	1	0	1039	1	4	0	8	32	0	4	89
random	1	1	37	71171	3	4	4	1	0	918	1	4	0	32	33	0	4	89
random	1	1	38	72999	5	3	3	1	0	1689	1	4	0	24	34	0	4	89
random	1	1	39	75196	6	1	1	1	0	683	1	4	0	8	35	0	4	90
random	1	1	40	76193	1	2	2	1	0	922	1	4	0	16	36	0	4	90
random	1	1	41	78068	2	3	0	1	2	0	3	4	0	24	36	0	5	88
random	1	1	42	81266	4	4	4	1	0	618	1	4	0	32	37	0	5	88
random	1	1	43	82854	1	2	2	1	0	975	1	4	0	16	38	0	5	88
random	1	1	44	84570	6	3	0	1	2	0	3	4	0	24	38	0	6	86
random	1	1	45	88014	3	1	1	1	0	837	1	4	0	8	39	0	6	87
random	1	1	46	89402	4	4	4	1	0	706	1	4	0	32	40	0	6	87
random	1	1	47	91028	2	2	2	1	0	1285	1	4	0	16	41	0	6	87
random	1	1	48	92832	5	1	1	1	0	857	1	4	0	8	42	0	6	88
random	1	1	49	94762	2	3	3	1	0	1503	1	4	0	24	43	0	6	88
random	1	1	50	96693	3	1	1	1	0	765	1	4	0	8	44	0	6	88
random	1	1	51	98213	1	4	4	1	0	605	1	4	0	32	45	0	6	88
random	1	1	52	99458	5	3	3	1	0	1480	1	4	0	24	46	0	6	88
random	1	1	53	101409	3	2	2	1	0	1557	1	4	0	16	47	0	6	89
random	1	1	54	103630	6	4	4	1	0	752	1	4	0	32	48	0	6	89
random	1	1	55	105335	4	2	2	1	0	1167	1	4	0	16	49	0	6	89
random	1	1	56	106855	1	1	1	1	0	1383	1	4	0	8	50	0	6	89
random	1	1	57	108922	5	4	4	1	0	703	1	4	0	32	51	0	6	89
random	1	1	58	110324	2	1	1	1	0	876	1	4	0	8	52	0	6	90
random	1	1	59	111722	6	2	2	1	0	1200	1	4	0	16	53	0	6	90
random	1	1	60	113666	4	3	3	1	0	1342	1	4	0	24	54	0	6	90
random	1	1	61	116231	1	2	2	1	0	1017	1	4	0	16	55	0	6	90
random	1	1	62	117638	6	4	4	1	0	710	1	4	0	32	56	0	6	90
random	1	1	63	118840	4	1	1	1	0	819	1	4	0	8	57	0	6	90
random	1	1	64	120591	2	2	2	1	0	1321	1	4	0	16	58	0	6	91
random	1	1	65	122842	4	3	3	1	0	594	1	4	0	24	59	0	6	91
random	1	1	66	124055	3	1	1	1	0	774	1	4	0	8	60	0	6	91
random	1	1	67	125136	1	3	3	1	0	1392	1	4	0	24	61	0	6	91
random	1	1	68	127108	5	4	4	1	0	1181	1	4	0	32	62	0	6	91
random	1	1	69	129133	2	2	2	1	0	1015	1	4	0	16	63	0	6	91
random	1	1	70	130439	3	1	1	1	0	1160	1	4	0	8	64	0	6	91
random	1	1	71	132251	5	4	4	1	0	883	1	4	0	32	65	0	6	92
random	1	1	72	133485	6	3	3	1	0	1423	1	4	0	24	66	0	6	92
random	1	1	73	135946	2	1	1	1	0	1014	1	4	0	8	67	0	6	92
random	1	1	74	137646	5	3	3	1	0	1855	1	4	0	24	68	0	6	92
random	1	1	75	139947	1	4	4	1	0	829	1	4	0	32	69	0	6	92
random	1	1	76	141142	6	2	2	1	0	1002	1	4	0	16	70	0	6	92
random	1	1	77	142720	2	1	1	1	0	752	1	4	0	8	71	0	6	92
random	1	1	78	144488	4	4	4	1	0	453	1	4	0	32	72	0	6	92
random	1	1	79	145678	3	2	2	1	0	1058	1	4	0	16	73	0	6	92
random	1	1	80	147760	4	3	0	1	2	0	3	4	0	24	73	0	7	91
random	1	1	81	151158	1	4	4	1	0	714	1	4	0	32	74	0	7	91
random	1	1	82	152339	5	1	0	1	2	0	3	4	0	8	74	0	8	90
random	1	1	83	155573	3	2	0	1	2	0	3	4	0	16	74	0	9	89
random	1	1	84	158705	6	3	0	2	2	0	3	4	0	24	74	0	10	88
random	1	1	85	161793	3	2	0	2	2	0	3	4	0	16	74	0	11	87
random	1	1	86	164615	1	3	0	1	2	0	3	4	0	24	74	0	12	86
random	1	1	87	167433	4	4	4	1	0	681	1	4	0	32	75	0	12	86
random	1	1	88	168672	2	1	1	1	0	1565	1	4	0	8	76	0	12	86
random	1	1	89	170773	6	4	4	1	0	811	1	4	0	32	77	0	12	87
random	1	1	90	172617	3	3	3	1	0	1253	1	4	0	24	78	0	12	87
random	1	1	91	174371	5	4	4	1	0	827	1	4	0	32	79	0	12	87
random	1	1	92	175738	1	2	0	2	2	0	3	4	0	16	79	0	13	86
random	1	1	93	178561	5	1	1	1	0	1242	1	4	0	8	80	0	13	86
random	1	1	94	180786	4	3	3	1	0	1452	1	4	0	24	81	0	13	86
random	1	1	95	183108	6	1	1	1	0	945	1	4	0	8	82	0	13	86
random	1	1	96	184381	2	2	2	1	0	2371	1	4	0	16	83	0	13	86
random	1	1	97	187757	4	3	3	2	0	1916	2	4	0	24	84	0	13	87
random	1	1	98	190119	3	2	2	1	0	960	1	4	0	16	85	0	13	87
random	1	1	99	191710	6	3	3	1	0	1429	1	4	0	24	86	0	13	87
random	1	1	100	194064	1	4	4	1	0	817	1	4	0	32	87	0	13	87
random	1	1	101	195257	4	1	1	1	0	734	1	4	0	8	88	0	13	87
random	1	1	102	196387	5	2	2	1	0	1159	1	4	0	16	89	0	13	87
random	1	1	103	198378	2	4	4	1	0	730	1	4	0	32	90	0	13	87
random	1	1	104	199672	3	1	1	1	0	971	1	4	0	8	91	0	13	88
random	1	1	105	201100	1	3	3	1	0	1775	1	4	0	24	92	0	13	88
random	1	1	106	203804	2	2	2	1	0	964	1	4	0	16	93	0	13	88
random	1	1	107	205246	5	4	4	1	0	1000	1	4	0	32	94	0	13	88
random	1	1	108	207080	6	1	1	1	0	1026	1	4	0	8	95	0	13	88
random	1	1	109	209276	5	4	4	2	0	1884	2	4	0	32	96	0	13	88
random	1	1	110	211674	6	3	3	1	0	1399	1	4	0	24	97	0	13	88
random	1	1	111	214095	2	2	2	2	0	2393	2	4	0	16	98	0	13	88
random	1	1	112	217063	3	1	1	1	0	1339	1	4	0	8	99	0	13	88
random	1	1	113	219119	1	2	2	1	0	987	1	4	0	16	100	0	13	88
random	1	1	114	220582	2	3	3	1	0	1566	1	4	0	24	101	0	13	89
random	1	1	115	222478	3	1	1	1	0	1061	1	4	0	8	102	0	13	89
random	1	1	116	223900	4	4	4	1	0	937	1	4	0	32	103	0	13	89
random	1	1	117	225468	6	1	1	1	0	1687	1	4	0	8	104	0	13	89
random	1	1	118	227725	5	3	3	1	0	1663	1	4	0	24	105	0	13	89
random	1	1	119	229891	1	4	4	1	0	724	1	4	0	32	106	0	13	89
random	1	1	120	231592	4	2	2	1	0	964	1	4	0	16	107	0	13	89
fixed	2	1	1	233751	4	1	1	1	0	840	1	4	0	40	1	0	0	100
fixed	2	1	2	234915	1	2	2	1	0	1255	1	4	0	48	2	0	0	100
fixed	2	1	3	237040	6	4	4	1	0	757	1	4	0	64	3	0	0	100
fixed	2	1	4	238316	2	1	1	1	0	1102	1	4	0	40	4	0	0	100
fixed	2	1	5	240329	5	3	3	1	0	1289	1	4	0	56	5	0	0	100
fixed	2	1	6	241916	6	4	4	1	0	990	1	4	0	64	6	0	0	100
fixed	2	1	7	243337	3	1	1	1	0	842	1	4	0	40	7	0	0	100
fixed	2	1	8	245020	2	3	3	1	0	1307	1	4	0	56	8	0	0	100
fixed	2	1	9	247134	3	2	2	1	0	865	1	4	0	48	9	0	0	100
fixed	2	1	10	249036	1	4	4	1	0	769	1	4	0	64	10	0	0	100
fixed	2	1	11	250547	5	2	2	1	0	1440	1	4	0	48	11	0	0	100
fixed	2	1	12	252550	4	3	3	3	0	2411	2	4	0	56	12	0	0	100
fixed	2	2	1	256225	4	1	1	1	0	1816	1	4	0	40	13	0	0	100
fixed	2	2	2	258971	1	2	2	1	0	1372	1	4	0	48	14	0	0	100
fixed	2	2	3	260993	6	4	4	1	0	622	1	4	0	64	15	0	0	100
fixed	2	2	4	262418	2	1	1	1	0	1306	1	4	0	40	16	0	0	100
fixed	2	2	5	264474	5	3	3	1	0	1267	1	4	0	56	17	0	0	100
fixed	2	2	6	266172	6	4	4	1	0	747	1	4	0	64	18	0	0	100
fixed	2	2	7	267340	3	1	1	1	0	1313	1	4	0	40	19	0	0	100
fixed	2	2	8	269566	2	3	3	1	0	1395	1	4	0	56	20	0	0	100
fixed	2	2	9	271936	3	2	2	1	0	863	1	4	0	48	21	0	0	100
fixed	2	2	10	273318	1	4	4	1	0	1124	1	4	0	64	22	0	0	100
fixed	2	2	11	275484	5	2	2	1	0	1913	1	4	0	48	23	0	0	100
fixed	2	2	12	277963	4	3	3	1	0	1023	1	4	0	56	24	0	0	100
fixed	2	3	1	279549	4	1	1	1	0	1252	1	4	0	40	25	0	0	100
fixed	2	3	2	281158	1	2	2	1	0	1536	1	4	0	48	26	0	0	100
fixed	2	3	3	283399	6	4	4	1	0	729	1	4	0	64	27	0	0	100
fixed	2	3	4	285139	2	1	1	2	0	1183	2	4	0	40	28	0	0	100
fixed	2	3	5	287101	5	3	3	1	0	1276	1	4	0	56	29	0	0	100
fixed	2	3	6	288921	6	4	4	1	0	1327	1	4	0	64	30	0	0	100
fixed	2	3	7	291002	3	1	1	2	0	2239	2	4	0	40	31	0	0	100
fixed	2	3	8	294073	2	3	3	1	0	1189	1	4	0	56	32	0	0	100
fixed	2	3	9	296226	3	2	2	1	0	850	1	4	0	48	33	0	0	100
fixed	2	3	10	297596	1	4	4	1	0	744	1	4	0	64	34	0	0	100
fixed	2	3	11	299224	5	2	2	1	0	1787	1	4	0	48	35	0	0	100
fixed	2	3	12	301511	4	3	3	1	0	1418	1	4	0	56	36	0	0	100
fixed	2	4	1	304176	4	1	1	1	0	825	1	4	0	40	37	0	0	100
fixed	2	4	2	305675	1	2	2	1	0	1362	1	4	0	48	38	0	0	100
fixed	2	4	3	307320	6	4	4	2	0	844	2	4	0	64	39	0	0	100
fixed	2	4	4	308833	2	1	1	1	0	940	1	4	0	40	40	0	0	100
fixed	2	4	5	310294	5	3	3	1	0	1198	1	4	0	56	41	0	0	100
fixed	2	4	6	312231	6	4	4	1	0	924	1	4	0	64	42	0	0	100
fixed	2	4	7	313572	3	1	1	1	0	1875	1	4	0	40	43	0	0	100
fixed	2	4	8	315895	2	3	3	1	0	1521	1	4	0	56	44	0	0	100
fixed	2	4	9	317997	3	2	2	1	0	1160	1	4	0	48	45	0	0	100
fixed	2	4	10	319816	1	4	4	1	0	1186	1	4	0	64	46	0	0	100
fixed	2	4	11	321846	5	2	2	1	0	1645	1	4	0	48	47	0	0	100
fixed	2	4	12	324496	4	3	0	1	2	0	3	4	0	56	47	0	1	98
fixed	2	5	1	328285	4	1	1	1	0	1476	1	4	0	40	48	0	1	98
fixed	2	5	2	330125	1	2	2	2	0	1654	2	4	0	48	49	0	1	98
fixed	2	5	3	332238	6	4	4	2	0	1165	2	4	0	64	50	0	1	98
fixed	2	5	4	334062	2	1	1	1	0	1495	1	4	0	40	51	0	1	98
fixed	2	5	5	336409	5	3	3	1	0	1332	1	4	0	56	52	0	1	98
fixed	2	5	6	338432	6	4	4	1	0	854	1	4	0	64	53	0	1	98
fixed	2	5	7	340297	3	1	1	1	0	1319	1	4	0	40	54	0	1	98
fixed	2	5	8	342622	2	3	3	1	0	1773	1	4	0	56	55	0	1	98
fixed	2	5	9	345414	3	2	2	1	0	918	1	4	0	48	56	0	1	98
fixed	2	5	10	346753	1	4	4	1	0	782	1	4	0	64	57	0	1	98
fixed	2	5	11	348264	5	2	0	1	2	0	3	4	0	48	57	0	2	97
fixed	2	5	12	351573	4	3	3	2	0	1489	2	4	0	56	58	0	2	97
fixed	2	6	1	353931	4	1	1	1	0	1437	1	4	0	40	59	0	2	97
fixed	2	6	2	356366	1	2	2	1	0	1655	1	4	0	48	60	0	2	97
fixed	2	6	3	358790	6	4	4	1	0	824	1	4	0	64	61	0	2	97
fixed	2	6	4	360529	2	1	1	1	0	774	1	4	0	40	62	0	2	97
fixed	2	6	5	361990	5	3	3	1	0	1256	1	4	0	56	63	0	2	97
fixed	2	6	6	363929	6	4	4	1	0	926	1	4	0	64	64	0	2	97
fixed	2	6	7	365381	3	1	1	1	0	1265	1	4	0	40	65	0	2	97
fixed	2	6	8	367497	2	3	3	1	0	1895	1	4	0	56	66	0	2	97
fixed	2	6	9	369846	3	2	2	1	0	1484	1	4	0	48	67	0	2	97
fixed	2	6	10	371724	1	4	4	1	0	844	1	4	0	64	68	0	2	97
fixed	2	6	11	373107	5	2	2	1	0	1250	1	4	0	48	69	0	2	97
fixed	2	6	12	375165	4	3	3	3	0	1538	2	4	0	56	70	0	2	97
fixed	2	7	1	377305	4	1	1	2	0	1311	2	4	0	40	71	0	2	97
fixed	2	7	2	379322	1	2	2	1	0	1522	1	4	0	48	72	0	2	97
fixed	2	7	3	381525	6	4	4	1	0	893	1	4	0	64	73	0	2	97
fixed	2	7	4	383160	2	1	1	1	0	1280	1	4	0	40	74	0	2	97
fixed	2	7	5	384862	5	3	3	1	0	1239	1	4	0	56	75	0	2	97
fixed	2	7	6	387021	6	4	4	1	0	844	1	4	0	64	76	0	2	97
fixed	2	7	7	388314	3	1	1	1	0	1709	1	4	0	40	77	0	2	97
fixed	2	7	8	390367	2	3	3	1	0	1711	1	4	0	56	78	0	2	98
fixed	2	7	9	392435	3	2	2	1	0	727	1	4	0	48	79	0	2	98
fixed	2	7	10	393759	1	4	4	1	0	695	1	4	0	64	80	0	2	98
fixed	2	7	11	394750	5	2	2	1	0	1205	1	4	0	48	81	0	2	98
fixed	2	7	12	396264	4	3	3	1	0	1005	1	4	0	56	82	0	2	98
fixed	2	8	1	398558	4	1	1	2	0	1355	2	4	0	40	83	0	2	98
fixed	2	8	2	400839	1	2	2	1	0	1563	1	4	0	48	84	0	2	98
fixed	2	8	3	403247	6	4	4	2	0	813	2	4	0	64	85	0	2	98
fixed	2	8	4	404767	2	1	1	1	0	989	1	4	0	40	86	0	2	98
fixed	2	8	5	406393	5	3	3	1	0	1463	1	4	0	56	87	0	2	98
fixed	2	8	6	408213	6	4	4	1	0	882	1	4	0	64	88	0	2	98
fixed	2	8	7	409478	3	1	1	1	0	1765	1	4	0	40	89	0	2	98
fixed	2	8	8	412252	2	3	3	1	0	1576	1	4	0	56	90	0	2	98
fixed	2	8	9	414727	3	2	2	1	0	2007	1	4	0	48	91	0	2	98
fixed	2	8	10	417095	1	4	4	1	0	1011	1	4	0	64	92	0	2	98
fixed	2	8	11	419119	5	2	2	2	0	2229	2	4	0	48	93	0	2	98
fixed	2	8	12	421634	4	3	3	1	0	290	1	4	0	56	94	0	2	98
fixed	2	9	1	423051	4	1	1	1	0	2030	1	4	0	40	95	0	2	98
fixed	2	9	2	425855	1	2	2	1	0	2143	1	4	0	48	96	0	2	98
fixed	2	9	3	428507	6	4	4	1	0	1863	1	4	0	64	97	0	2	98
fixed	2	9	4	430791	2	1	1	1	0	2006	1	4	0	40	98	0	2	98
fixed	2	9	5	433524	5	3	3	1	0	1714	1	4	0	56	99	0	2	98
fixed	2	9	6	435799	6	4	4	1	0	810	1	4	0	64	100	0	2	98
fixed	2	9	7	437027	3	1	1	1	0	1902	1	4	0	40	101	0	2	98
fixed	2	9	8	439817	2	3	3	1	0	2056	1	4	0	56	102	0	2	98
fixed	2	9	9	442384	3	2	0	2	2	0	3	4	0	48	102	0	3	97
fixed	2	9	10	445192	1	4	4	1	0	876	1	4	0	64	103	0	3	97
fixed	2	9	11	446446	5	2	0	0	2	0	3	4	0	48	103	0	4	96
fixed	2	9	12	449364	4	3	3	1	0	1379	1	4	0	56	104	0	4	96
fixed	2	10	1	451487	4	1	1	1	0	1441	1	4	0	40	105	0	4	96
fixed	2	10	2	453440	1	2	2	1	0	1895	1	4	0	48	106	0	4	96
fixed	2	10	3	455866	6	4	4	1	0	808	1	4	0	64	107	0	4	96
fixed	2	10	4	457709	2	1	1	1	0	1522	1	4	0	40	108	0	4	96
fixed	2	10	5	459811	5	3	3	1	0	1249	1	4	0	56	109	0	4	96
fixed	2	10	6	461905	6	4	4	1	0	1320	1	4	0	64	110	0	4	96
fixed	2	10	7	464144	3	1	1	1	0	1234	1	4	0	40	111	0	4	97
fixed	2	10	8	466279	2	3	3	1	0	1351	1	4	0	56	112	0	4	97
fixed	2	10	9	468027	3	2	2	1	0	1053	1	4	0	48	113	0	4	97
fixed	2	10	10	469773	1	4	4	1	0	763	1	4	0	64	114	0	4	97
fixed	2	10	11	471351	5	2	2	1	0	1176	1	4	0	48	115	0	4	97
fixed	2	10	12	473288	4	3	3	1	0	1270	1	4	0	56	116	0	4	97
fixed	3	1	1	475878	4	1	0	1	2	0	3	4	0	72	0	0	1	0
fixed	3	1	2	478800	1	2	2	1	0	949	1	4	0	80	1	0	1	50
fixed	3	1	3	480372	6	4	4	1	0	778	1	4	0	96	2	0	1	67
fixed	3	1	4	481978	2	1	1	1	0	1526	1	4	0	72	3	0	1	75
fixed	3	1	5	483950	5	3	3	1	0	1202	1	4	0	88	4	0	1	80
fixed	3	1	6	485703	6	4	4	1	0	848	1	4	0	96	5	0	1	83
fixed	3	1	7	487522	3	1	1	1	0	1004	1	4	0	72	6	0	1	86
fixed	3	1	8	489136	2	3	3	1	0	1239	1	4	0	88	7	0	1	88
fixed	3	1	9	491342	3	2	2	1	0	1266	1	4	0	80	8	0	1	89
fixed	3	1	10	493429	1	4	4	1	0	801	1	4	0	96	9	0	1	90
fixed	3	1	11	494651	5	2	2	1	0	1045	1	4	0	80	10	0	1	91
fixed	3	1	12	496213	4	3	3	1	0	1179	1	4	0	88	11	0	1	92
fixed	3	2	1	498152	4	1	1	1	0	697	1	4	0	72	12	0	1	92
fixed	3	2	2	499152	1	2	2	1	0	1366	1	4	0	80	13	0	1	93
fixed	3	2	3	501451	6	4	4	1	0	757	1	4	0	96	14	0	1	93
fixed	3	2	4	503212	2	1	1	1	0	650	1	4	0	72	15	0	1	94
fixed	3	2	5	504364	5	3	3	1	0	1394	1	4	0	88	16	0	1	94
fixed	3	2	6	506685	6	4	4	1	0	904	1	4	0	96	17	0	1	94
fixed	3	2	7	508090	3	1	1	1	0	1076	1	4	0	72	18	0	1	95
fixed	3	2	8	509992	2	3	3	1	0	1708	1	4	0	88	19	0	1	95
fixed	3	2	9	512174	3	2	2	1	0	719	1	4	0	80	20	0	1	95
fixed	3	2	10	513444	1	4	4	1	0	601	1	4	0	96	21	0	1	95
fixed	3	2	11	514763	5	2	2	1	0	1457	1	4	0	80	22	0	1	96
fixed	3	2	12	516692	4	3	3	1	0	1792	1	4	0	88	23	0	1	96
fixed	3	3	1	519772	4	1	1	1	0	1037	1	4	0	72	24	0	1	96
fixed	3	3	2	521678	1	2	2	1	0	1356	1	4	0	80	25	0	1	96
fixed	3	3	3	524013	6	4	4	1	0	801	1	4	0	96	26	0	1	96
fixed	3	3	4	525178	2	1	1	1	0	1161	1	4	0	72	27	0	1	96
fixed	3	3	5	526942	5	3	3	1	0	1486	1	4	0	88	28	0	1	97
fixed	3	3	6	528714	6	4	4	1	0	811	1	4	0	96	29	0	1	97
fixed	3	3	7	530068	3	1	1	1	0	825	1	4	0	72	30	0	1	97
fixed	3	3	8	531589	2	3	3	1	0	1449	1	4	0	88	31	0	1	97
fixed	3	3	9	533828	3	2	2	1	0	850	1	4	0	80	32	0	1	97
fixed	3	3	10	535041	1	4	4	1	0	742	1	4	0	96	33	0	1	97
fixed	3	3	11	536469	5	2	2	1	0	1346	1	4	0	80	34	0	1	97
fixed	3	3	12	538507	4	3	3	1	0	1212	1	4	0	88	35	0	1	97
fixed	3	4	1	540589	4	1	1	1	0	787	1	4	0	72	36	0	1	97
fixed	3	4	2	542138	1	2	2	1	0	1098	1	4	0	80	37	0	1	97
fixed	3	4	3	543933	6	4	4	1	0	782	1	4	0	96	38	0	1	97
fixed	3	4	4	545177	2	1	1	1	0	777	1	4	0	72	39	0	1	98
fixed	3	4	5	546707	5	3	3	1	0	1208	1	4	0	88	40	0	1	98
fixed	3	4	6	548827	6	4	4	1	0	702	1	4	0	96	41	0	1	98
fixed	3	4	7	549846	3	1	1	1	0	1059	1	4	0	72	42	0	1	98
fixed	3	4	8	551216	2	3	3	1	0	1417	1	4	0	88	43	0	1	98
fixed	3	4	9	553458	3	2	2	1	0	1458	1	4	0	80	44	0	1	98
fixed	3	4	10	555431	1	4	0	1	2	0	3	4	0	96	44	0	2	96
fixed	3	4	11	558634	5	2	2	1	0	23	1	4	0	80	45	0	2	96
fixed	3	4	12	559395	4	3	3	1	0	2223	1	4	0	88	46	0	2	96
fixed	3	5	1	562861	4	1	1	1	0	844	1	4	0	72	47	0	2	96
fixed	3	5	2	564660	1	2	2	1	0	1368	1	4	0	80	48	0	2	96
fixed	3	5	3	566500	6	4	4	1	0	818	1	4	0	96	49	0	2	96
fixed	3	5	4	567912	2	1	1	1	0	958	1	4	0	72	50	0	2	96
fixed	3	5	5	569676	5	3	3	1	0	1003	1	4	0	88	51	0	2	96
fixed	3	5	6	571730	6	4	4	1	0	772	1	4	0	96	52	0	2	96
fixed	3	5	7	573459	3	1	1	1	0	1075	1	4	0	72	53	0	2	96
fixed	3	5	8	574879	2	3	3	1	0	2191	1	4	0	88	54	0	2	96
fixed	3	5	9	578091	3	2	2	1	0	983	1	4	0	80	55	0	2	96
fixed	3	5	10	579559	1	4	4	1	0	705	1	4	0	96	56	0	2	97
fixed	3	5	11	581202	5	2	2	1	0	1356	1	4	0	80	57	0	2	97
fixed	3	5	12	583449	4	3	3	1	0	1580	1	4	0	88	58	0	2	97
fixed	3	6	1	585700	4	1	0	1	2	0	3	4	0	72	58	0	3	95
fixed	3	6	2	588584	1	2	2	2	0	299	2	4	0	80	59	0	3	95
fixed	3	6	3	589621	6	4	4	1	0	759	1	4	0	96	60	0	3	95
fixed	3	6	4	591070	2	1	1	1	0	938	1	4	0	72	61	0	3	95
fixed	3	6	5	592434	5	3	3	1	0	1847	1	4	0	88	62	0	3	95
fixed	3	6	6	594777	6	4	4	1	0	772	1	4	0	96	63	0	3	95
fixed	3	6	7	596174	3	1	1	1	0	2209	1	4	0	72	64	0	3	96
fixed	3	6	8	598918	2	3	3	1	0	1549	1	4	0	88	65	0	3	96
fixed	3	6	9	600992	3	2	2	1	0	1117	1	4	0	80	66	0	3	96
fixed	3	6	10	602816	1	4	4	1	0	688	1	4	0	96	67	0	3	96
fixed	3	6	11	604506	5	2	2	1	0	1881	1	4	0	80	68	0	3	96
fixed	3	6	12	607269	4	3	3	1	0	963	1	4	0	88	69	0	3	96
fixed	3	7	1	609325	4	1	1	1	0	1092	1	4	0	72	70	0	3	96
fixed	3	7	2	611126	1	2	0	2	2	0	3	4	0	80	70	0	4	95
fixed	3	7	3	614664	6	4	0	0	2	0	3	4	0	96	70	0	5	93
fixed	3	7	4	617748	2	1	1	1	0	623	1	4	0	72	71	0	5	93
fixed	3	7	5	619069	5	3	3	1	0	1271	1	4	0	88	72	0	5	94
fixed	3	7	6	621171	6	4	4	1	0	774	1	4	0	96	73	0	5	94
fixed	3	7	7	622548	3	1	1	1	0	636	1	4	0	72	74	0	5	94
fixed	3	7	8	623478	2	3	3	1	0	1557	1	4	0	88	75	0	5	94
fixed	3	7	9	625867	3	2	2	1	0	839	1	4	0	80	76	0	5	94
fixed	3	7	10	627308	1	4	4	1	0	723	1	4	0	96	77	0	5	94
fixed	3	7	11	628949	5	2	2	1	0	1221	1	4	0	80	78	0	5	94
fixed	3	7	12	631122	4	3	3	1	0	1209	1	4	0	88	79	0	5	94
fixed	3	8	1	633100	4	1	0	0	2	0	3	4	0	72	79	0	6	93
fixed	3	8	2	636259	1	2	2	2	0	87	2	4	0	80	80	0	6	93
fixed	3	8	3	637238	6	4	4	1	0	742	1	4	0	96	81	0	6	93
fixed	3	8	4	638335	2	1	1	1	0	2312	1	4	0	72	82	0	6	93
fixed	3	8	5	641582	5	3	3	1	0	1246	1	4	0	88	83	0	6	93
fixed	3	8	6	643456	6	4	4	1	0	734	1	4	0	96	84	0	6	93
fixed	3	8	7	644924	3	1	1	1	0	881	1	4	0	72	85	0	6	93
fixed	3	8	8	646718	2	3	3	1	0	1404	1	4	0	88	86	0	6	93
fixed	3	8	9	649050	3	2	2	1	0	1170	1	4	0	80	87	0	6	94
fixed	3	8	10	651067	1	4	4	1	0	788	1	4	0	96	88	0	6	94
fixed	3	8	11	652192	5	2	2	1	0	1093	1	4	0	80	89	0	6	94
fixed	3	8	12	653815	4	3	3	1	0	1056	1	4	0	88	90	0	6	94
fixed	3	9	1	655856	4	1	1	1	0	649	1	4	0	72	91	0	6	94
fixed	3	9	2	657491	1	2	2	1	0	1140	1	4	0	80	92	0	6	94
fixed	3	9	3	659396	6	4	4	1	0	803	1	4	0	96	93	0	6	94
fixed	3	9	4	660847	2	1	1	1	0	854	1	4	0	72	94	0	6	94
fixed	3	9	5	662216	5	3	3	1	0	1268	1	4	0	88	95	0	6	94
fixed	3	9	6	664157	6	4	4	1	0	673	1	4	0	96	96	0	6	94
fixed	3	9	7	665328	3	1	1	1	0	904	1	4	0	72	97	0	6	94
fixed	3	9	8	666983	2	3	3	1	0	1554	1	4	0	88	98	0	6	94
fixed	3	9	9	669067	3	2	2	1	0	714	1	4	0	80	99	0	6	94
fixed	3	9	10	670157	1	4	4	1	0	723	1	4	0	96	100	0	6	94
fixed	3	9	11	671265	5	2	2	1	0	1381	1	4	0	80	101	0	6	94
fixed	3	9	12	673518	4	3	3	1	0	1837	1	4	0	88	102	0	6	94
fixed	3	10	1	676473	4	1	1	2	0	2112	2	4	0	72	103	0	6	94
fixed	3	10	2	679375	1	2	2	1	0	1805	1	4	0	80	104	0	6	95
fixed	3	10	3	681648	6	4	4	1	0	669	1	4	0	96	105	0	6	95
fixed	3	10	4	682870	2	1	1	1	0	633	1	4	0	72	106	0	6	95
fixed	3	10	5	684014	5	3	3	1	0	1345	1	4	0	88	107	0	6	95
fixed	3	10	6	685721	6	4	4	1	0	793	1	4	0	96	108	0	6	95
fixed	3	10	7	687385	3	1	1	1	0	818	1	4	0	72	109	0	6	95
fixed	3	10	8	688620	2	3	3	1	0	1309	1	4	0	88	110	0	6	95
fixed	3	10	9	690586	3	2	2	1	0	907	1	4	0	80	111	0	6	95
fixed	3	10	10	692233	1	4	4	1	0	653	1	4	0	96	112	0	6	95
fixed	3	10	11	693740	5	2	2	1	0	1149	1	4	0	80	113	0	6	95
fixed	3	10	12	695441	4	3	3	1	0	1197	1	4	0	88	114	0	6	95
fixed	4	1	1	951262	4	1	1	1	0	1233	1	4	0	104	1	0	0	100
fixed	4	1	2	952884	1	2	2	1	0	1436	1	4	0	112	2	0	0	100
fixed	4	1	3	955056	6	4	4	1	0	872	1	4	0	128	3	0	0	100
fixed	4	1	4	956821	2	1	1	2	0	2158	2	4	0	104	4	0	0	100
fixed	4	1	5	959311	5	3	0	1	2	0	3	4	0	120	4	0	1	80
fixed	4	1	6	962289	6	4	4	1	0	814	1	4	0	128	5	0	1	83
fixed	4	1	7	963899	3	1	1	1	0	1098	1	4	0	104	6	0	1	86
fixed	4	1	8	965938	2	3	3	2	0	1812	2	4	0	120	7	0	1	88
fixed	4	1	9	968544	3	2	2	1	0	885	1	4	0	112	8	0	1	89
fixed	4	1	10	970314	1	4	4	1	0	842	1	4	0	128	9	0	1	90
fixed	4	1	11	971671	5	2	2	1	0	1049	1	4	0	112	10	0	1	91
fixed	4	1	12	973471	4	3	3	1	0	1116	1	4	0	120	11	0	1	92
fixed	4	2	1	975774	4	1	1	1	0	835	1	4	0	104	12	0	1	92
fixed	4	2	2	977397	1	2	2	1	0	1598	1	4	0	112	13	0	1	93
fixed	4	2	3	979788	6	4	4	1	0	857	1	4	0	128	14	0	1	93
fixed	4	2	4	981439	2	1	1	1	0	627	1	4	0	104	15	0	1	94
fixed	4	2	5	982672	5	3	3	1	0	1278	1	4	0	120	16	0	1	94
fixed	4	2	6	984257	6	4	4	1	0	756	1	4	0	128	17	0	1	94
fixed	4	2	7	985656	3	1	1	1	0	1049	1	4	0	104	18	0	1	95
fixed	4	2	8	987590	2	3	3	1	0	1510	1	4	0	120	19	0	1	95
fixed	4	2	9	989943	3	2	2	1	0	859	1	4	0	112	20	0	1	95
fixed	4	2	10	991285	1	4	4	1	0	594	1	4	0	128	21	0	1	95
fixed	4	2	11	992315	5	2	2	1	0	1134	1	4	0	112	22	0	1	96
fixed	4	2	12	993773	4	3	3	1	0	1433	1	4	0	120	23	0	1	96
fixed	4	3	1	996341	4	1	1	1	0	732	1	4	0	104	24	0	1	96
fixed	4	3	2	997762	1	2	2	1	0	1127	1	4	0	112	25	0	1	96
fixed	4	3	3	999815	6	4	4	1	0	704	1	4	0	128	26	0	1	96
fixed	4	3	4	1001205	2	1	1	1	0	1142	1	4	0	104	27	0	1	96
fixed	4	3	5	1002994	5	3	3	1	0	1354	1	4	0	120	28	0	1	97
fixed	4	3	6	1004922	6	4	4	1	0	665	1	4	0	128	29	0	1	97
fixed	4	3	7	1006552	3	1	1	1	0	1131	1	4	0	104	30	0	1	97
fixed	4	3	8	1008587	2	3	3	1	0	1421	1	4	0	120	31	0	1	97
fixed	4	3	9	1010922	3	2	2	1	0	915	1	4	0	112	32	0	1	97
fixed	4	3	10	1012590	1	4	4	1	0	636	1	4	0	128	33	0	1	97
fixed	4	3	11	1013841	5	2	2	1	0	1151	1	4	0	112	34	0	1	97
fixed	4	3	12	1015917	4	3	3	1	0	1175	1	4	0	120	35	0	1	97
fixed	4	4	1	1018262	4	1	1	1	0	875	1	4	0	104	36	0	1	97
fixed	4	4	2	1019605	1	2	2	1	0	1179	1	4	0	112	37	0	1	97
fixed	4	4	3	1021784	6	4	4	1	0	703	1	4	0	128	38	0	1	97
fixed	4	4	4	1023520	2	1	1	1	0	685	1	4	0	104	39	0	1	98
fixed	4	4	5	1024853	5	3	3	1	0	1116	1	4	0	120	40	0	1	98
fixed	4	4	6	1026821	6	4	4	1	0	617	1	4	0	128	41	0	1	98
fixed	4	4	7	1028299	3	1	1	1	0	667	1	4	0	104	42	0	1	98
fixed	4	4	8	1029931	2	3	3	1	0	1381	1	4	0	120	43	0	1	98
fixed	4	4	9	1031750	3	2	2	1	0	624	1	4	0	112	44	0	1	98
fixed	4	4	10	1032890	1	4	4	1	0	624	1	4	0	128	45	0	1	98
fixed	4	4	11	1033901	5	2	2	1	0	1165	1	4	0	112	46	0	1	98
fixed	4	4	12	1035948	4	3	3	1	0	1197	1	4	0	120	47	0	1	98
fixed	4	5	1	1038294	4	1	1	1	0	707	1	4	0	104	48	0	1	98
fixed	4	5	2	1039495	1	2	2	1	0	1368	1	4	0	112	49	0	1	98
fixed	4	5	3	1041751	6	4	4	1	0	632	1	4	0	128	50	0	1	98
fixed	4	5	4	1042802	2	1	1	1	0	804	1	4	0	104	51	0	1	98
fixed	4	5	5	1044388	5	3	3	1	0	1161	1	4	0	120	52	0	1	98
fixed	4	5	6	1046364	6	4	4	1	0	637	1	4	0	128	53	0	1	98
fixed	4	5	7	1047695	3	1	1	1	0	925	1	4	0	104	54	0	1	98
fixed	4	5	8	1049031	2	3	3	1	0	1132	1	4	0	120	55	0	1	98
fixed	4	5	9	1050679	3	2	2	1	0	662	1	4	0	112	56	0	1	98
fixed	4	5	10	1052168	1	4	4	1	0	1119	1	4	0	128	57	0	1	98
fixed	4	5	11	1054179	5	2	2	1	0	1042	1	4	0	112	58	0	1	98
fixed	4	5	12	1056079	4	3	3	1	0	1066	1	4	0	120	59	0	1	98
fixed	4	6	1	1057942	4	1	1	1	0	786	1	4	0	104	60	0	1	98
fixed	4	6	2	1059417	1	2	2	1	0	1052	1	4	0	112	61	0	1	98
fixed	4	6	3	1061295	6	4	4	1	0	709	1	4	0	128	62	0	1	98
fixed	4	6	4	1062891	2	1	1	1	0	833	1	4	0	104	63	0	1	98
fixed	4	6	5	1064528	5	3	3	1	0	1076	1	4	0	120	64	0	1	98
fixed	4	6	6	1065932	6	4	4	1	0	664	1	4	0	128	65	0	1	98
fixed	4	6	7	1067112	3	1	1	1	0	678	1	4	0	104	66	0	1	99
fixed	4	6	8	1068438	2	3	3	1	0	1502	1	4	0	120	67	0	1	99
fixed	4	6	9	1070440	3	2	2	1	0	689	1	4	0	112	68	0	1	99
fixed	4	6	10	1072156	1	4	4	1	0	553	1	4	0	128	69	0	1	99
fixed	4	6	11	1073315	5	2	2	1	0	1023	1	4	0	112	70	0	1	99
fixed	4	6	12	1074691	4	3	3	1	0	1085	1	4	0	120	71	0	1	99
fixed	4	7	1	1077056	4	1	1	1	0	737	1	4	0	104	72	0	1	99
fixed	4	7	2	1078635	1	2	2	1	0	1070	1	4	0	112	73	0	1	99
fixed	4	7	3	1080278	6	4	4	1	0	648	1	4	0	128	74	0	1	99
fixed	4	7	4	1081331	2	1	1	1	0	1180	1	4	0	104	75	0	1	99
fixed	4	7	5	1083144	5	3	3	1	0	1015	1	4	0	120	76	0	1	99
fixed	4	7	6	1084726	6	4	4	1	0	668	1	4	0	128	77	0	1	99
fixed	4	7	7	1085908	3	1	1	1	0	619	1	4	0	104	78	0	1	99
fixed	4	7	8	1087216	2	3	3	1	0	1243	1	4	0	120	79	0	1	99
fixed	4	7	9	1089319	3	2	2	1	0	769	1	4	0	112	80	0	1	99
fixed	4	7	10	1090710	1	4	4	1	0	639	1	4	0	128	81	0	1	99
fixed	4	7	11	1091934	5	2	2	1	0	963	1	4	0	112	82	0	1	99
fixed	4	7	12	1093693	4	3	3	1	0	1241	1	4	0	120	83	0	1	99
fixed	4	8	1	1096170	4	1	1	1	0	1015	1	4	0	104	84	0	1	99
fixed	4	8	2	1097517	1	2	2	1	0	1007	1	4	0	112	85	0	1	99
fixed	4	8	3	1098937	6	4	4	1	0	627	1	4	0	128	86	0	1	99
fixed	4	8	4	1100166	2	1	1	1	0	942	1	4	0	104	87	0	1	99
fixed	4	8	5	1101442	5	3	3	1	0	1088	1	4	0	120	88	0	1	99
fixed	4	8	6	1102884	6	4	4	1	0	819	1	4	0	128	89	0	1	99
fixed	4	8	7	1104243	3	1	1	1	0	714	1	4	0	104	90	0	1	99
fixed	4	8	8	1105304	2	3	3	1	0	1157	1	4	0	120	91	0	1	99
fixed	4	8	9	1107398	3	2	2	1	0	644	1	4	0	112	92	0	1	99
fixed	4	8	10	1108379	1	4	4	1	0	619	1	4	0	128	93	0	1	99
fixed	4	8	11	1109715	5	2	2	1	0	1066	1	4	0	112	94	0	1	99
fixed	4	8	12	1111163	4	3	3	1	0	1341	1	4	0	120	95	0	1	99
fixed	4	9	1	1113746	4	1	1	1	0	719	1	4	0	104	96	0	1	99
fixed	4	9	2	1115441	1	2	2	1	0	1215	1	4	0	112	97	0	1	99
fixed	4	9	3	1117116	6	4	4	1	0	1337	1	4	0	128	98	0	1	99
fixed	4	9	4	1118878	2	1	1	1	0	838	1	4	0	104	99	0	1	99
fixed	4	9	5	1120541	5	3	3	1	0	1032	1	4	0	120	100	0	1	99
fixed	4	9	6	1122563	6	4	4	1	0	674	1	4	0	128	101	0	1	99
fixed	4	9	7	1124164	3	1	1	1	0	710	1	4	0	104	102	0	1	99
fixed	4	9	8	1125524	2	3	3	1	0	1228	1	4	0	120	103	0	1	99
fixed	4	9	9	1127644	3	2	2	1	0	818	1	4	0	112	104	0	1	99
fixed	4	9	10	1129086	1	4	4	1	0	821	1	4	0	128	105	0	1	99
fixed	4	9	11	1130269	5	2	2	1	0	1163	1	4	0	112	106	0	1	99
fixed	4	9	12	1131819	4	3	3	1	0	2426	1	4	0	120	107	0	1	99
fixed	4	10	1	1135483	4	1	1	1	0	1374	1	4	0	104	108	0	1	99
fixed	4	10	2	1137435	1	2	2	1	0	1099	1	4	0	112	109	0	1	99
fixed	4	10	3	1139287	6	4	4	1	0	646	1	4	0	128	110	0	1	99
fixed	4	10	4	1140867	2	1	1	1	0	786	1	4	0	104	111	0	1	99
fixed	4	10	5	1142460	5	3	3	1	0	1247	1	4	0	120	112	0	1	99
fixed	4	10	6	1144267	6	4	4	1	0	651	1	4	0	128	113	0	1	99
fixed	4	10	7	1145705	3	1	1	1	0	637	1	4	0	104	114	0	1	99
fixed	4	10	8	1146711	2	3	3	1	0	1507	1	4	0	120	115	0	1	99
fixed	4	10	9	1149051	3	2	2	1	0	264	1	4	0	112	116	0	1	99
fixed	4	10	10	1149676	1	4	4	1	0	701	1	4	0	128	117	0	1	99
fixed	4	10	11	1150739	5	2	2	1	0	1232	1	4	0	112	118	0	1	99
fixed	4	10	12	1152903	4	3	3	1	0	1261	1	4	0	120	119	0	1	99
fixed	5	1	1	1155630	4	1	1	1	0	1273	1	4	0	136	1	0	0	100
fixed	5	1	2	1157444	1	2	2	1	0	1044	1	4	0	144	2	0	0	100
fixed	5	1	3	1159102	6	4	4	1	0	542	1	4	0	160	3	0	0	100
fixed	5	1	4	1160134	2	1	1	1	0	522	1	4	0	136	4	0	0	100
fixed	5	1	5	1161646	5	3	3	1	0	1058	1	4	0	152	5	0	0	100
fixed	5	1	6	1163217	6	4	4	1	0	703	1	4	0	160	6	0	0	100
fixed	5	1	7	1164230	3	1	1	1	0	605	1	4	0	136	7	0	0	100
fixed	5	1	8	1165431	2	3	3	1	0	1218	1	4	0	152	8	0	0	100
fixed	5	1	9	1167171	3	2	2	1	0	656	1	4	0	144	9	0	0	100
fixed	5	1	10	1168131	1	4	4	1	0	631	1	4	0	160	10	0	0	100
fixed	5	1	11	1169399	5	2	2	1	0	1050	1	4	0	144	11	0	0	100
fixed	5	1	12	1171303	4	3	3	1	0	1065	1	4	0	152	12	0	0	100
fixed	5	2	1	1173125	4	1	1	1	0	980	1	4	0	136	13	0	0	100
fixed	5	2	2	1174713	1	2	2	1	0	1049	1	4	0	144	14	0	0	100
fixed	5	2	3	1176623	6	4	4	1	0	1176	1	4	0	160	15	0	0	100
fixed	5	2	4	1178624	2	1	1	1	0	771	1	4	0	136	16	0	0	100
fixed	5	2	5	1180390	5	3	3	1	0	1056	1	4	0	152	17	0	0	100
fixed	5	2	6	1181894	6	4	4	1	0	736	1	4	0	160	18	0	0	100
fixed	5	2	7	1183679	3	1	1	1	0	853	1	4	0	136	19	0	0	100
fixed	5	2	8	1185227	2	3	3	1	0	1252	1	4	0	152	20	0	0	100
fixed	5	2	9	1187064	3	2	2	1	0	1006	1	4	0	144	21	0	0	100
fixed	5	2	10	1189036	1	4	4	1	0	754	1	4	0	160	22	0	0	100
fixed	5	2	11	1190247	5	2	2	1	0	1039	1	4	0	144	23	0	0	100
fixed	5	2	12	1192231	4	3	3	1	0	2171	1	4	0	152	24	0	0	100
fixed	5	3	1	1195196	4	1	1	1	0	813	1	4	0	136	25	0	0	100
fixed	5	3	2	1196309	1	2	2	1	0	1038	1	4	0	144	26	0	0	100
fixed	5	3	3	1198381	6	4	4	1	0	623	1	4	0	160	27	0	0	100
fixed	5	3	4	1199881	2	1	1	1	0	575	1	4	0	136	28	0	0	100
fixed	5	3	5	1201101	5	3	3	1	0	1155	1	4	0	152	29	0	0	100
fixed	5	3	6	1202733	6	4	4	1	0	686	1	4	0	160	30	0	0	100
fixed	5	3	7	1203834	3	1	1	1	0	679	1	4	0	136	31	0	0	100
fixed	5	3	8	1205378	2	3	3	1	0	1102	1	4	0	152	32	0	0	100
fixed	5	3	9	1206925	3	2	2	1	0	1012	1	4	0	144	33	0	0	100
fixed	5	3	10	1208760	1	4	4	1	0	614	1	4	0	160	34	0	0	100
fixed	5	3	11	1209860	5	2	2	1	0	1040	1	4	0	144	35	0	0	100
fixed	5	3	12	1211761	4	3	3	1	0	1032	1	4	0	152	36	0	0	100
fixed	5	4	1	1213875	4	1	1	1	0	694	1	4	0	136	37	0	0	100
fixed	5	4	2	1215431	1	2	2	1	0	1180	1	4	0	144	38	0	0	100
fixed	5	4	3	1217275	6	4	4	1	0	622	1	4	0	160	39	0	0	100
fixed	5	4	4	1218621	2	1	1	1	0	661	1	4	0	136	40	0	0	100
fixed	5	4	5	1220135	5	3	3	1	0	1205	1	4	0	152	41	0	0	100
fixed	5	4	6	1222047	6	4	4	1	0	612	1	4	0	160	42	0	0	100
fixed	5	4	7	1222988	3	1	1	1	0	564	1	4	0	136	43	0	0	100
fixed	5	4	8	1224418	2	3	3	1	0	1711	1	4	0	152	44	0	0	100
fixed	5	4	9	1226970	3	2	2	1	0	948	1	4	0	144	45	0	0	100
fixed	5	4	10	1228363	1	4	4	1	0	664	1	4	0	160	46	0	0	100
fixed	5	4	11	1229609	5	2	2	1	0	1172	1	4	0	144	47	0	0	100
fixed	5	4	12	1231330	4	3	3	1	0	1147	1	4	0	152	48	0	0	100
fixed	5	5	1	1233757	4	1	1	1	0	804	1	4	0	136	49	0	0	100
fixed	5	5	2	1235378	1	2	2	1	0	1207	1	4	0	144	50	0	0	100
fixed	5	5	3	1237113	6	4	4	1	0	653	1	4	0	160	51	0	0	100
fixed	5	5	4	1238174	2	1	1	1	0	929	1	4	0	136	52	0	0	100
fixed	5	5	5	1239743	5	3	3	1	0	1054	1	4	0	152	53	0	0	100
fixed	5	5	6	1241696	6	4	4	1	0	604	1	4	0	160	54	0	0	100
fixed	5	5	7	1243278	3	1	1	1	0	776	1	4	0	136	55	0	0	100
fixed	5	5	8	1244373	2	3	3	1	0	2122	1	4	0	152	56	0	0	100
fixed	5	5	9	1247068	3	2	2	1	0	880	1	4	0	144	57	0	0	100
fixed	5	5	10	1248531	1	4	4	1	0	650	1	4	0	160	58	0	0	100
fixed	5	5	11	1249949	5	2	2	1	0	1030	1	4	0	144	59	0	0	100
fixed	5	5	12	1251292	4	3	3	1	0	741	1	4	0	152	60	0	0	100
fixed	5	6	1	1253171	4	1	1	1	0	1237	1	4	0	136	61	0	0	100
fixed	5	6	2	1254764	1	2	2	1	0	1130	1	4	0	144	62	0	0	100
fixed	5	6	3	1256746	6	4	0	0	2	0	3	4	0	160	62	0	1	98
fixed	5	6	4	1260020	2	1	1	1	0	771	1	4	0	136	63	0	1	98
fixed	5	6	5	1261689	5	3	3	1	0	1301	1	4	0	152	64	0	1	98
fixed	5	6	6	1263969	6	4	4	1	0	684	1	4	0	160	65	0	1	98
fixed	5	6	7	1265564	3	1	1	1	0	841	1	4	0	136	66	0	1	99
fixed	5	6	8	1267386	2	3	3	1	0	1404	1	4	0	152	67	0	1	99
fixed	5	6	9	1269149	3	2	2	1	0	601	1	4	0	144	68	0	1	99
fixed	5	6	10	1270752	1	4	4	1	0	669	1	4	0	160	69	0	1	99
fixed	5	6	11	1271807	5	2	2	1	0	1232	1	4	0	144	70	0	1	99
fixed	5	6	12	1273771	4	3	3	1	0	1117	1	4	0	152	71	0	1	99
fixed	5	7	1	1275743	4	1	1	1	0	1609	1	4	0	136	72	0	1	99
fixed	5	7	2	1277686	1	2	2	1	0	1087	1	4	0	144	73	0	1	99
fixed	5	7	3	1279428	6	4	4	1	0	694	1	4	0	160	74	0	1	99
fixed	5	7	4	1281014	2	1	1	1	0	818	1	4	0	136	75	0	1	99
fixed	5	7	5	1282732	5	3	3	1	0	1066	1	4	0	152	76	0	1	99
fixed	5	7	6	1284282	6	4	4	1	0	1208	1	4	0	160	77	0	1	99
fixed	5	7	7	1286062	3	1	1	1	0	973	1	4	0	136	78	0	1	99
fixed	5	7	8	1287510	2	3	3	1	0	1191	1	4	0	152	79	0	1	99
fixed	5	7	9	1289590	3	2	2	1	0	807	1	4	0	144	80	0	1	99
fixed	5	7	10	1290865	1	4	4	1	0	641	1	4	0	160	81	0	1	99
fixed	5	7	11	1292403	5	2	2	1	0	1208	1	4	0	144	82	0	1	99
fixed	5	7	12	1294379	4	3	3	1	0	836	1	4	0	152	83	0	1	99
fixed	5	8	1	1296144	4	1	1	1	0	713	1	4	0	136	84	0	1	99
fixed	5	8	2	1297599	1	2	2	1	0	1044	1	4	0	144	85	0	1	99
fixed	5	8	3	1299424	6	4	4	1	0	695	1	4	0	160	86	0	1	99
fixed	5	8	4	1300989	2	1	1	1	0	700	1	4	0	136	87	0	1	99
fixed	5	8	5	1301987	5	3	3	1	0	1178	1	4	0	152	88	0	1	99
fixed	5	8	6	1303746	6	4	4	1	0	663	1	4	0	160	89	0	1	99
fixed	5	8	7	1304987	3	1	1	1	0	995	1	4	0	136	90	0	1	99
fixed	5	8	8	1307006	2	3	3	1	0	1421	1	4	0	152	91	0	1	99
fixed	5	8	9	1308927	3	2	2	1	0	908	1	4	0	144	92	0	1	99
fixed	5	8	10	1310479	1	4	4	1	0	642	1	4	0	160	93	0	1	99
fixed	5	8	11	1311824	5	2	2	1	0	1234	1	4	0	144	94	0	1	99
fixed	5	8	12	1313425	4	3	3	1	0	1126	1	4	0	152	95	0	1	99
fixed	5	9	1	1315140	4	1	1	1	0	741	1	4	0	136	96	0	1	99
fixed	5	9	2	1316655	1	2	2	1	0	989	1	4	0	144	97	0	1	99
fixed	5	9	3	1318549	6	4	4	1	0	644	1	4	0	160	98	0	1	99
fixed	5	9	4	1319645	2	1	1	1	0	806	1	4	0	136	99	0	1	99
fixed	5	9	5	1320853	5	3	3	1	0	1131	1	4	0	152	100	0	1	99
fixed	5	9	6	1322800	6	4	4	1	0	873	1	4	0	160	101	0	1	99
fixed	5	9	7	1324307	3	1	1	1	0	825	1	4	0	136	102	0	1	99
fixed	5	9	8	1325646	2	3	3	1	0	1616	1	4	0	152	103	0	1	99
fixed	5	9	9	1327929	3	2	2	1	0	871	1	4	0	144	104	0	1	99
fixed	5	9	10	1329437	1	4	4	1	0	568	1	4	0	160	105	0	1	99
fixed	5	9	11	1330334	5	2	2	1	0	1001	1	4	0	144	106	0	1	99
fixed	5	9	12	1331817	4	3	3	1	0	730	1	4	0	152	107	0	1	99
fixed	5	10	1	1333134	4	1	1	1	0	779	1	4	0	136	108	0	1	99
fixed	5	10	2	1334855	1	2	2	1	0	1090	1	4	0	144	109	0	1	99
fixed	5	10	3	1336588	6	4	4	1	0	625	1	4	0	160	110	0	1	99
fixed	5	10	4	1337917	2	1	1	1	0	1000	1	4	0	136	111	0	1	99
fixed	5	10	5	1339928	5	3	3	1	0	1027	1	4	0	152	112	0	1	99
fixed	5	10	6	1341384	6	4	4	1	0	734	1	4	0	160	113	0	1	99
fixed	5	10	7	1342789	3	1	1	1	0	906	1	4	0	136	114	0	1	99
fixed	5	10	8	1344579	2	3	3	1	0	1254	1	4	0	152	115	0	1	99
fixed	5	10	9	1346811	3	2	2	1	0	848	1	4	0	144	116	0	1	99
fixed	5	10	10	1348231	1	4	4	1	0	820	1	4	0	160	117	0	1	99
fixed	5	10	11	1349578	5	2	2	1	0	1154	1	4	0	144	118	0	1	99
fixed	5	10	12	1351540	4	3	3	1	0	1039	1	4	0	152	119	0	1	99
random	6	1	1	1446377	6	1	1	1	0	1094	1	4	0	168	1	0	0	100
random	6	1	2	1448451	4	4	4	1	0	782	1	4	0	192	2	0	0	100
random	6	1	3	1449751	2	2	2	1	0	1287	1	4	0	176	3	0	0	100
random	6	1	4	1451930	3	3	3	1	0	1267	1	4	0	184	4	0	0	100
random	6	1	5	1453964	5	2	2	1	0	837	1	4	0	176	5	0	0	100
random	6	1	6	1455778	1	4	4	1	0	712	1	4	0	192	6	0	0	100
random	6	1	7	1457049	6	1	1	1	0	754	1	4	0	168	7	0	0	100
random	6	1	8	1458682	2	3	3	1	0	1389	1	4	0	184	8	0	0	100
random	6	1	9	1461054	4	2	2	1	0	617	1	4	0	176	9	0	0	100
random	6	1	10	1462019	1	1	1	1	0	656	1	4	0	168	10	0	0	100
random	6	1	11	1463430	5	4	4	1	0	572	1	4	0	192	11	0	0	100
random	6	1	12	1465004	3	3	3	1	0	1114	1	4	0	184	12	0	0	100
random	6	1	13	1467163	5	2	2	1	0	854	1	4	0	176	13	0	0	100
random	6	1	14	1468837	1	4	4	1	0	879	1	4	0	192	14	0	0	100
random	6	1	15	1470111	3	1	1	1	0	585	1	4	0	168	15	0	0	100
random	6	1	16	1471527	4	3	3	1	0	1173	1	4	0	184	16	0	0	100
random	6	1	17	1473675	6	4	4	1	0	658	1	4	0	192	17	0	0	100
random	6	1	18	1474627	2	1	1	1	0	530	1	4	0	168	18	0	0	100
random	6	1	19	1476150	5	3	3	1	0	921	1	4	0	184	19	0	0	100
random	6	1	20	1477886	2	2	2	1	0	448	1	4	0	176	20	0	0	100
random	6	1	21	1478837	3	3	3	1	0	1224	1	4	0	184	21	0	0	100
random	6	1	22	1480394	6	1	1	1	0	589	1	4	0	168	22	0	0	100
random	6	1	23	1481670	4	2	2	1	0	863	1	4	0	176	23	0	0	100
random	6	1	24	1483434	1	4	4	1	0	772	1	4	0	192	24	0	0	100
random	6	1	25	1484823	4	3	3	1	0	1258	1	4	0	184	25	0	0	100
random	6	1	26	1487110	2	1	1	1	0	753	1	4	0	168	26	0	0	100
random	6	1	27	1488844	5	2	2	1	0	968	1	4	0	176	27	0	0	100
random	6	1	28	1490278	6	4	4	1	0	827	1	4	0	192	28	0	0	100
random	6	1	29	1491392	1	3	3	1	0	1140	1	4	0	184	29	0	0	100
random	6	1	30	1493207	5	2	2	1	0	1007	1	4	0	176	30	0	0	100
random	6	1	31	1494581	2	1	1	1	0	716	1	4	0	168	31	0	0	100
random	6	1	32	1495964	3	3	3	1	0	1266	1	4	0	184	32	0	0	100
random	6	1	33	1497577	6	4	4	1	0	630	1	4	0	192	33	0	0	100
random	6	1	34	1499211	4	2	2	1	0	808	1	4	0	176	34	0	0	100
random	6	1	35	1500322	3	4	4	1	0	666	1	4	0	192	35	0	0	100
random	6	1	36	1501662	1	1	1	1	0	768	1	4	0	168	36	0	0	100
random	6	1	37	1503269	3	4	4	1	0	812	1	4	0	192	37	0	0	100
random	6	1	38	1504518	5	3	3	1	0	1080	1	4	0	184	38	0	0	100
random	6	1	39	1506371	6	1	1	1	0	681	1	4	0	168	39	0	0	100
random	6	1	40	1507708	1	2	2	1	0	961	1	4	0	176	40	0	0	100
random	6	1	41	1509463	2	3	3	1	0	839	1	4	0	184	41	0	0	100
random	6	1	42	1511090	4	4	4	1	0	713	1	4	0	192	42	0	0	100
random	6	1	43	1512823	1	2	2	1	0	896	1	4	0	176	43	0	0	100
random	6	1	44	1514722	6	3	3	1	0	952	1	4	0	184	44	0	0	100
random	6	1	45	1516541	3	1	1	1	0	650	1	4	0	168	45	0	0	100
random	6	1	46	1517686	4	4	4	1	0	626	1	4	0	192	46	0	0	100
random	6	1	47	1518698	2	2	2	1	0	943	1	4	0	176	47	0	0	100
random	6	1	48	1520076	5	1	1	1	0	740	1	4	0	168	48	0	0	100
random	6	1	49	1521480	2	3	3	1	0	1673	1	4	0	184	49	0	0	100
random	6	1	50	1523629	3	1	1	1	0	766	1	4	0	168	50	0	0	100
random	6	1	51	1524922	1	4	4	1	0	447	1	4	0	192	51	0	0	100
random	6	1	52	1525943	5	3	3	1	0	868	1	4	0	184	52	0	0	100
random	6	1	53	1527100	3	2	2	1	0	635	1	4	0	176	53	0	0	100
random	6	1	54	1528490	6	4	4	1	0	953	1	4	0	192	54	0	0	100
random	6	1	55	1530427	4	2	2	1	0	966	1	4	0	176	55	0	0	100
random	6	1	56	1532171	1	1	1	1	0	708	1	4	0	168	56	0	0	100
random	6	1	57	1533908	5	4	4	1	0	531	1	4	0	192	57	0	0	100
random	6	1	58	1534800	2	1	1	1	0	1045	1	4	0	168	58	0	0	100
random	6	1	59	1536377	6	2	2	1	0	1314	1	4	0	176	59	0	0	100
random	6	1	60	1538104	4	3	3	1	0	1185	1	4	0	184	60	0	0	100
random	6	1	61	1540393	1	2	2	1	0	1080	1	4	0	176	61	0	0	100
random	6	1	62	1542068	6	4	4	1	0	793	1	4	0	192	62	0	0	100
random	6	1	63	1543248	4	1	1	1	0	863	1	4	0	168	63	0	0	100
random	6	1	64	1544905	2	2	2	1	0	945	1	4	0	176	64	0	0	100
random	6	1	65	1546675	4	3	3	1	0	1190	1	4	0	184	65	0	0	100
random	6	1	66	1548231	3	1	1	1	0	676	1	4	0	168	66	0	0	100
random	6	1	67	1549371	1	3	3	1	0	1636	1	4	0	184	67	0	0	100
random	6	1	68	1551666	5	4	4	1	0	843	1	4	0	192	68	0	0	100
random	6	1	69	1552944	2	2	2	1	0	932	1	4	0	176	69	0	0	100
random	6	1	70	1554587	3	1	1	1	0	639	1	4	0	168	70	0	0	100
random	6	1	71	1555934	5	4	4	1	0	622	1	4	0	192	71	0	0	100
random	6	1	72	1556886	6	3	3	1	0	1141	1	4	0	184	72	0	0	100
random	6	1	73	1559273	2	1	1	1	0	744	1	4	0	168	73	0	0	100
random	6	1	74	1560460	5	3	3	1	0	1150	1	4	0	184	74	0	0	100
random	6	1	75	1562060	1	4	4	1	0	682	1	4	0	192	75	0	0	100
random	6	1	76	1563160	6	2	2	1	0	916	1	4	0	176	76	0	0	100
random	6	1	77	1564725	2	1	1	1	0	714	1	4	0	168	77	0	0	100
random	6	1	78	1565743	4	4	4	1	0	702	1	4	0	192	78	0	0	100
random	6	1	79	1567006	3	2	2	1	0	873	1	4	0	176	79	0	0	100
random	6	1	80	1568829	4	3	3	1	0	1355	1	4	0	184	80	0	0	100
random	6	1	81	1571119	1	4	4	1	0	635	1	4	0	192	81	0	0	100
random	6	1	82	1572680	5	1	1	1	0	905	1	4	0	168	82	0	0	100
random	6	1	83	1573981	3	2	2	1	0	1338	1	4	0	176	83	0	0	100
random	6	1	84	1576082	6	3	3	1	0	1240	1	4	0	184	84	0	0	100
random	6	1	85	1577902	3	2	2	1	0	1099	1	4	0	176	85	0	0	100
random	6	1	86	1579510	1	3	3	2	0	1559	2	4	0	184	86	0	0	100
random	6	1	87	1581410	4	4	4	1	0	671	1	4	0	192	87	0	0	100
random	6	1	88	1582969	2	1	1	1	0	845	1	4	0	168	88	0	0	100
random	6	1	89	1584125	6	4	4	1	0	708	1	4	0	192	89	0	0	100
random	6	1	90	1585436	3	3	3	1	0	1484	1	4	0	184	90	0	0	100
random	6	1	91	1587330	5	4	4	1	0	732	1	4	0	192	91	0	0	100
random	6	1	92	1588534	1	2	2	1	0	1209	1	4	0	176	92	0	0	100
random	6	1	93	1590393	5	1	1	1	0	851	1	4	0	168	93	0	0	100
random	6	1	94	1591538	4	3	3	1	0	1874	1	4	0	184	94	0	0	100
random	6	1	95	1593800	6	1	1	1	0	770	1	4	0	168	95	0	0	100
random	6	1	96	1595318	2	2	2	1	0	1130	1	4	0	176	96	0	0	100
random	6	1	97	1597667	4	3	3	1	0	1678	1	4	0	184	97	0	0	100
random	6	1	98	1599770	3	2	2	1	0	1037	1	4	0	176	98	0	0	100
random	6	1	99	1601492	6	3	3	1	0	1276	1	4	0	184	99	0	0	100
random	6	1	100	1603146	1	4	4	1	0	638	1	4	0	192	100	0	0	100
random	6	1	101	1604298	4	1	1	1	0	709	1	4	0	168	101	0	0	100
random	6	1	102	1605319	5	2	2	1	0	1034	1	4	0	176	102	0	0	100
random	6	1	103	1606809	2	4	4	1	0	635	1	4	0	192	103	0	0	100
random	6	1	104	1608262	3	1	1	1	0	1549	1	4	0	168	104	0	0	100
random	6	1	105	1610478	1	3	3	1	0	1680	1	4	0	184	105	0	0	100
random	6	1	106	1613032	2	2	2	1	0	1076	1	4	0	176	106	0	0	100
random	6	1	107	1614732	5	4	4	1	0	612	1	4	0	192	107	0	0	100
random	6	1	108	1616037	6	1	1	1	0	828	1	4	0	168	108	0	0	100
random	6	1	109	1617833	5	4	4	1	0	696	1	4	0	192	109	0	0	100
random	6	1	110	1618932	6	3	3	1	0	1018	1	4	0	184	110	0	0	100
random	6	1	111	1620619	2	2	2	1	0	994	1	4	0	176	111	0	0	100
random	6	1	112	1621902	3	1	1	1	0	676	1	4	0	168	112	0	0	100
random	6	1	113	1623298	1	2	2	1	0	1752	1	4	0	176	113	0	0	100
random	6	1	114	1625901	2	3	3	1	0	1290	1	4	0	184	114	0	0	100
random	6	1	115	1628031	3	1	1	1	0	672	1	4	0	168	115	0	0	100
random	6	1	116	1629052	4	4	4	1	0	509	1	4	0	192	116	0	0	100
random	6	1	117	1630072	6	1	1	1	0	818	1	4	0	168	117	0	0	100
random	6	1	118	1631719	5	3	3	1	0	1108	1	4	0	184	118	0	0	100
random	6	1	119	1633314	1	4	4	1	0	729	1	4	0	192	119	0	0	100
random	6	1	120	1634389	4	2	2	1	0	931	1	4	0	176	120	0	0	100
fixed	7	1	1	1636243	4	1	1	1	0	1508	1	4	0	200	1	0	0	100
fixed	7	1	2	1638681	1	2	2	1	0	1013	1	4	0	208	2	0	0	100
fixed	7	1	3	1640353	6	4	4	1	0	654	1	4	0	224	3	0	0	100
fixed	7	1	4	1641452	2	1	1	1	0	800	1	4	0	200	4	0	0	100
fixed	7	1	5	1642542	5	3	3	1	0	993	1	4	0	216	5	0	0	100
fixed	7	1	6	1644288	6	4	4	1	0	632	1	4	0	224	6	0	0	100
fixed	7	1	7	1645493	3	1	1	1	0	1461	1	4	0	200	7	0	0	100
fixed	7	1	8	1647395	2	3	3	1	0	1204	1	4	0	216	8	0	0	100
fixed	7	1	9	1649144	3	2	0	1	2	0	3	4	0	208	8	0	1	89
fixed	7	1	10	1652574	1	4	4	1	0	937	1	4	0	224	9	0	1	90
fixed	7	1	11	1654196	5	2	2	1	0	1172	1	4	0	208	10	0	1	91
fixed	7	1	12	1655891	4	3	3	1	0	1068	1	4	0	216	11	0	1	92
fixed	7	2	1	1658249	4	1	1	2	0	2184	2	4	0	200	1	0	0	8
fixed	7	2	2	1660868	1	2	2	1	0	1114	1	4	0	208	2	0	0	14
fixed	7	2	3	1662275	6	4	4	1	0	661	1	4	0	224	3	0	0	20
fixed	7	2	4	1663906	2	1	1	1	0	689	1	4	0	200	4	0	0	25
fixed	7	2	5	1665340	5	3	3	1	0	1100	1	4	0	216	5	0	0	29
fixed	7	2	6	1667081	6	4	4	1	0	658	1	4	0	224	6	0	0	33
fixed	7	2	7	1668575	3	1	1	1	0	787	1	4	0	200	7	0	0	37
fixed	7	2	8	1670252	2	3	3	1	0	1444	1	4	0	216	8	0	0	40
fixed	7	2	9	1672482	3	2	2	1	0	685	1	4	0	208	9	0	0	43
fixed	7	2	10	1674062	1	4	4	1	0	747	1	4	0	224	10	0	0	45
fixed	7	2	11	1675424	5	2	2	1	0	1041	1	4	0	208	11	0	0	48
fixed	7	2	12	1677347	4	3	3	1	0	999	1	4	0	216	12	0	0	50
fixed	7	3	1	1679601	4	1	1	1	0	1104	1	4	0	200	1	0	0	4
fixed	7	3	2	1681701	1	2	2	1	0	1215	1	4	0	208	2	0	0	8
fixed	7	3	3	1683299	6	4	4	1	0	643	1	4	0	224	3	0	0	11
fixed	7	3	4	1684505	2	1	1	1	0	536	1	4	0	200	4	0	0	14
fixed	7	3	5	1685842	5	3	3	1	0	1160	1	4	0	216	5	0	0	17
fixed	7	3	6	1687336	6	4	4	1	0	672	1	4	0	224	6	0	0	20
fixed	7	3	7	1688588	3	1	1	1	0	675	1	4	0	200	7	0	0	23
fixed	7	3	8	1690122	2	3	3	1	0	1139	1	4	0	216	8	0	0	25
fixed	7	3	9	1692075	3	2	2	3	0	1512	2	4	0	208	9	0	0	27
fixed	7	3	10	1694162	1	4	4	1	0	679	1	4	0	224	10	0	0	29
fixed	7	3	11	1695768	5	2	2	1	0	1059	1	4	0	208	11	0	0	31
fixed	7	3	12	1697702	4	3	3	1	0	1713	1	4	0	216	12	0	0	33
fixed	7	4	1	1700436	4	1	1	1	0	1453	1	4	0	200	1	0	0	3
fixed	7	4	2	1702242	1	2	2	1	0	1001	1	4	0	208	2	0	0	5
fixed	7	4	3	1704264	6	4	4	1	0	587	1	4	0	224	3	0	0	8
fixed	7	4	4	1705840	2	1	1	1	0	769	1	4	0	200	4	0	0	10
fixed	7	4	5	1707551	5	3	3	1	0	1040	1	4	0	216	5	0	0	12
fixed	7	4	6	1708944	6	4	4	1	0	693	1	4	0	224	6	0	0	14
fixed	7	4	7	1710178	3	1	1	1	0	569	1	4	0	200	7	0	0	16
fixed	7	4	8	1711326	2	3	3	1	0	1368	1	4	0	216	8	0	0	18
fixed	7	4	9	1713530	3	2	2	1	0	1083	1	4	0	208	9	0	0	20
fixed	7	4	10	1715579	1	4	4	1	0	852	1	4	0	224	10	0	0	22
fixed	7	4	11	1716790	5	2	2	1	0	1104	1	4	0	208	11	0	0	23
fixed	7	4	12	1718267	4	3	3	1	0	986	1	4	0	216	12	0	0	25
fixed	7	5	1	1720301	4	1	1	1	0	1004	1	4	0	200	1	0	0	2
fixed	7	5	2	1722274	1	2	2	1	0	1128	1	4	0	208	2	0	0	4
fixed	7	5	3	1724058	6	4	4	1	0	653	1	4	0	224	3	0	0	6
fixed	7	5	4	1725425	2	1	1	1	0	715	1	4	0	200	4	0	0	8
fixed	7	5	5	1726597	5	3	3	1	0	921	1	4	0	216	5	0	0	9
fixed	7	5	6	1728104	6	4	4	1	0	633	1	4	0	224	6	0	0	11
fixed	7	5	7	1729683	3	1	1	1	0	711	1	4	0	200	7	0	0	13
fixed	7	5	8	1731336	2	3	3	1	0	1265	1	4	0	216	8	0	0	14
fixed	7	5	9	1733529	3	2	2	1	0	684	1	4	0	208	9	0	0	16
fixed	7	5	10	1734492	1	4	4	1	0	635	1	4	0	224	10	0	0	17
fixed	7	5	11	1735959	5	2	2	2	0	1821	2	4	0	208	11	0	0	19
fixed	7	5	12	1738671	4	3	3	1	0	1026	1	4	0	216	12	0	0	20
fixed	7	6	1	1740317	4	1	1	1	0	996	1	4	0	200	1	0	0	2
fixed	7	6	2	1741956	1	2	2	1	0	1295	1	4	0	208	2	0	0	3
fixed	7	6	3	1743642	6	4	4	1	0	663	1	4	0	224	3	0	0	5
fixed	7	6	4	1745096	2	1	1	1	0	1314	1	4	0	200	4	0	0	6
fixed	7	6	5	1746854	5	3	3	1	0	943	1	4	0	216	5	0	0	8
fixed	7	6	6	1748593	6	4	4	1	0	598	1	4	0	224	6	0	0	9
fixed	7	6	7	1749696	3	1	1	1	0	1447	1	4	0	200	7	0	0	10
fixed	7	6	8	1751857	2	3	3	1	0	1628	1	4	0	216	8	0	0	12
fixed	7	6	9	1753897	3	2	2	1	0	653	1	4	0	208	9	0	0	13
fixed	7	6	10	1755316	1	4	4	1	0	529	1	4	0	224	10	0	0	14
fixed	7	6	11	1756254	5	2	2	1	0	1129	1	4	0	208	11	0	0	15
fixed	7	6	12	1758108	4	3	3	1	0	994	1	4	0	216	12	0	0	17
fixed	7	7	1	1759731	4	1	1	1	0	1110	1	4	0	200	1	0	0	1
fixed	7	7	2	1761728	1	2	2	1	0	1337	1	4	0	208	2	0	0	3
fixed	7	7	3	1763460	6	4	4	1	0	656	1	4	0	224	3	0	0	4
fixed	7	7	4	1765068	2	1	1	2	0	1468	2	4	0	200	4	0	0	5
fixed	7	7	5	1767555	5	3	3	1	0	1074	1	4	0	216	5	0	0	6
fixed	7	7	6	1769177	6	4	4	1	0	582	1	4	0	224	6	0	0	8
fixed	7	7	7	1770325	3	1	1	1	0	941	1	4	0	200	7	0	0	9
fixed	7	7	8	1771649	2	3	3	1	0	1189	1	4	0	216	8	0	0	10
fixed	7	7	9	1773808	3	2	2	1	0	1738	1	4	0	208	9	0	0	11
fixed	7	7	10	1776540	1	4	4	1	0	622	1	4	0	224	10	0	0	12
fixed	7	7	11	1777476	5	2	2	1	0	1046	1	4	0	208	11	0	0	13
fixed	7	7	12	1779482	4	3	3	1	0	905	1	4	0	216	12	0	0	14
fixed	7	8	1	1781434	4	1	1	1	0	1030	1	4	0	200	1	0	0	1
fixed	7	8	2	1783269	1	2	2	1	0	1473	1	4	0	208	2	0	0	2
fixed	7	8	3	1785295	6	4	4	1	0	635	1	4	0	224	3	0	0	3
fixed	7	8	4	1786448	2	1	1	1	0	674	1	4	0	200	4	0	0	5
fixed	7	8	5	1787539	5	3	3	1	0	956	1	4	0	216	5	0	0	6
fixed	7	8	6	1789454	6	4	4	1	0	643	1	4	0	224	6	0	0	7
fixed	7	8	7	1790780	3	1	1	1	0	1011	1	4	0	200	7	0	0	8
fixed	7	8	8	1792451	2	3	3	1	0	1260	1	4	0	216	8	0	0	9
fixed	7	8	9	1794213	3	2	2	1	0	682	1	4	0	208	9	0	0	10
fixed	7	8	10	1795360	1	4	4	1	0	585	1	4	0	224	10	0	0	11
fixed	7	8	11	1796632	5	2	2	1	0	1179	1	4	0	208	11	0	0	12
fixed	7	8	12	1798459	4	3	3	1	0	1077	1	4	0	216	12	0	0	13
fixed	7	9	1	1800264	4	1	1	1	0	657	1	4	0	200	1	0	0	1
fixed	7	9	2	1801493	1	2	2	1	0	1301	1	4	0	208	2	0	0	2
fixed	7	9	3	1803317	6	4	4	1	0	688	1	4	0	224	3	0	0	3
fixed	7	9	4	1804878	2	1	1	1	0	862	1	4	0	200	4	0	0	4
fixed	7	9	5	1806315	5	3	3	1	0	1025	1	4	0	216	5	0	0	5
fixed	7	9	6	1807689	6	4	4	1	0	615	1	4	0	224	6	0	0	6
fixed	7	9	7	1809222	3	1	1	1	0	670	1	4	0	200	7	0	0	7
fixed	7	9	8	1810441	2	3	3	1	0	1194	1	4	0	216	8	0	0	8
fixed	7	9	9	1812445	3	2	2	1	0	717	1	4	0	208	9	0	0	9
fixed	7	9	10	1814085	1	4	4	1	0	584	1	4	0	224	10	0	0	9
fixed	7	9	11	1815238	5	2	2	1	0	1023	1	4	0	208	11	0	0	10
fixed	7	9	12	1817141	4	3	3	1	0	1062	1	4	0	216	12	0	0	11
fixed	7	10	1	1819144	4	1	1	1	0	705	1	4	0	200	1	0	0	1
fixed	7	10	2	1820842	1	2	2	1	0	1042	1	4	0	208	2	0	0	2
fixed	7	10	3	1822599	6	4	4	1	0	663	1	4	0	224	3	0	0	3
fixed	7	10	4	1823764	2	1	1	1	0	902	1	4	0	200	4	0	0	4
fixed	7	10	5	1825656	5	3	3	1	0	1006	1	4	0	216	5	0	0	4
fixed	7	10	6	1827315	6	4	4	1	0	719	1	4	0	224	6	0	0	5
fixed	7	10	7	1828803	3	1	1	1	0	1232	1	4	0	200	7	0	0	6
fixed	7	10	8	1831070	2	3	3	1	0	1256	1	4	0	216	8	0	0	7
fixed	7	10	9	1832677	3	2	2	1	0	820	1	4	0	208	9	0	0	8
fixed	7	10	10	1834378	1	4	4	1	0	620	1	4	0	224	10	0	0	8
fixed	7	10	11	1835705	5	2	2	1	0	1036	1	4	0	208	11	0	0	9
fixed	7	10	12	1837250	4	3	3	1	0	875	1	4	0	216	12	0	0	10
