type	block	sequ.	trial	time	Pos.	Color	Button	NumRsp	Resp_1	RT_1	R_Code	Resp_2	RT_2	Trigg.	n_hit	n_inc	n_miss	score_%

random	1	1	1	1794	6	1	1	1	0	971	1	4	0	8	1	0	0	100
random	1	1	2	3365	4	4	4	1	0	689	1	4	0	32	2	0	0	100
random	1	1	3	5075	2	2	2	1	0	1288	1	4	0	16	3	0	0	100
random	1	1	4	7299	3	3	3	1	0	706	1	4	0	24	4	0	0	100
random	1	1	5	8469	5	2	2	1	0	1025	1	4	0	16	5	0	0	100
random	1	1	6	10430	1	4	4	1	0	686	1	4	0	32	6	0	0	100
random	1	1	7	12125	6	1	1	1	0	582	1	4	0	8	7	0	0	100
random	1	1	8	13542	2	3	3	1	0	1466	1	4	0	24	8	0	0	100
random	1	1	9	15533	4	2	2	1	0	525	1	4	0	16	9	0	0	100
random	1	1	10	16840	1	1	1	1	0	750	1	4	0	8	10	0	0	100
random	1	1	11	18424	5	4	4	1	0	475	1	4	0	32	11	0	0	100
random	1	1	12	19224	3	3	3	1	0	1321	1	4	0	24	12	0	0	100
random	1	1	13	21293	5	2	2	1	0	1065	1	4	0	16	13	0	0	100
random	1	1	14	23040	1	4	4	1	0	672	1	4	0	32	14	0	0	100
random	1	1	15	24081	3	1	1	1	0	828	1	4	0	8	15	0	0	100
random	1	1	16	25540	4	3	3	1	0	965	1	4	0	24	16	0	0	100
random	1	1	17	27236	6	4	4	1	0	654	1	4	0	32	17	0	0	100
random	1	1	18	28884	2	1	1	1	0	736	1	4	0	8	18	0	0	100
random	1	1	19	30013	5	3	3	1	0	920	1	4	0	24	19	0	0	100
random	1	1	20	31974	2	2	2	1	0	893	1	4	0	16	20	0	0	100
random	1	1	21	33569	3	3	3	1	0	914	1	4	0	24	21	0	0	100
random	1	1	22	35345	6	1	1	1	0	662	1	4	0	8	22	0	0	100
random	1	1	23	36435	4	2	2	1	0	1080	1	4	0	16	23	0	0	100
random	1	1	24	38530	1	4	4	1	0	592	1	4	0	32	24	0	0	100
random	1	1	25	39907	4	3	3	1	0	925	1	4	0	24	25	0	0	100
random	1	1	26	41395	2	1	1	1	0	710	1	4	0	8	26	0	0	100
random	1	1	27	43069	5	2	2	1	0	1159	1	4	0	16	27	0	0	100
random	1	1	28	44900	6	4	4	1	0	913	1	4	0	32	28	0	0	100
random	1	1	29	46783	1	3	3	1	0	1386	1	4	0	24	29	0	0	100
random	1	1	30	48947	5	2	2	1	0	710	1	4	0	16	30	0	0	100
random	1	1	31	50329	2	1	1	1	0	764	1	4	0	8	31	0	0	100
random	1	1	32	51584	3	3	3	1	0	1078	1	4	0	24	32	0	0	100
random	1	1	33	53270	6	4	4	1	0	767	1	4	0	32	33	0	0	100
random	1	1	34	54605	4	2	2	1	0	1855	1	4	0	16	34	0	0	100
random	1	1	35	57060	3	4	4	1	0	631	1	4	0	32	35	0	0	100
random	1	1	36	58555	1	1	1	1	0	639	1	4	0	8	36	0	0	100
random	1	1	37	59973	3	4	4	1	0	707	1	4	0	32	37	0	0	100
random	1	1	38	61339	5	3	3	1	0	1058	1	4	0	24	38	0	0	100
random	1	1	39	63066	6	1	1	1	0	664	1	4	0	8	39	0	0	100
random	1	1	40	64325	1	2	2	2	0	2355	2	4	0	16	40	0	0	100
random	1	1	41	67713	2	3	3	1	0	1091	1	4	0	24	41	0	0	100
random	1	1	42	69377	4	4	4	1	0	533	1	4	0	32	42	0	0	100
random	1	1	43	70220	1	2	0	1	2	0	3	4	0	16	42	0	1	98
random	1	1	44	73537	6	3	3	1	0	1188	1	4	0	24	43	0	1	98
random	1	1	45	75312	3	1	1	1	0	729	1	4	0	8	44	0	1	98
random	1	1	46	76802	4	4	4	1	0	602	1	4	0	32	45	0	1	98
random	1	1	47	78129	2	2	2	1	0	1154	1	4	0	16	46	0	1	98
random	1	1	48	80283	5	1	1	1	0	711	1	4	0	8	47	0	1	98
random	1	1	49	81694	2	3	3	1	0	1019	1	4	0	24	48	0	1	98
random	1	1	50	83214	3	1	1	1	0	755	1	4	0	8	49	0	1	98
random	1	1	51	84273	1	4	4	1	0	678	1	4	0	32	50	0	1	98
random	1	1	52	85809	5	3	3	1	0	1005	1	4	0	24	51	0	1	98
random	1	1	53	87555	3	2	2	1	0	875	1	4	0	16	52	0	1	98
random	1	1	54	88894	6	4	4	1	0	658	1	4	0	32	53	0	1	98
random	1	1	55	89928	4	2	2	1	0	1502	1	4	0	16	54	0	1	98
random	1	1	56	91787	1	1	1	1	0	784	1	4	0	8	55	0	1	98
random	1	1	57	93471	5	4	4	1	0	536	1	4	0	32	56	0	1	98
random	1	1	58	94470	2	1	1	1	0	710	1	4	0	8	57	0	1	98
random	1	1	59	95776	6	2	2	2	0	2462	2	4	0	16	58	0	1	98
random	1	1	60	98598	4	3	3	1	0	1071	1	4	0	24	59	0	1	98
random	1	1	61	100673	1	2	2	1	0	991	1	4	0	16	60	0	1	98
random	1	1	62	102269	6	4	4	1	0	676	1	4	0	32	61	0	1	98
random	1	1	63	103901	4	1	1	1	0	703	1	4	0	8	62	0	1	98
random	1	1	64	105370	2	2	2	1	0	1040	1	4	0	16	63	0	1	98
random	1	1	65	107450	4	3	0	1	2	0	3	4	0	24	63	0	2	97
random	1	1	66	110783	3	1	1	1	0	771	1	4	0	8	64	0	2	97
random	1	1	67	112529	1	3	3	1	0	1169	1	4	0	24	65	0	2	97
random	1	1	68	114193	5	4	4	1	0	987	1	4	0	32	66	0	2	97
random	1	1	69	115751	2	2	2	1	0	1865	1	4	0	16	67	0	2	97
random	1	1	70	118520	3	1	1	1	0	731	1	4	0	8	68	0	2	97
random	1	1	71	119598	5	4	4	1	0	678	1	4	0	32	69	0	2	97
random	1	1	72	120921	6	3	3	1	0	1045	1	4	0	24	70	0	2	97
random	1	1	73	123228	2	1	1	1	0	740	1	4	0	8	71	0	2	97
random	1	1	74	124914	5	3	3	1	0	940	1	4	0	24	72	0	2	97
random	1	1	75	126478	1	4	4	1	0	650	1	4	0	32	73	0	2	97
random	1	1	76	127853	6	2	2	1	0	1304	1	4	0	16	74	0	2	97
random	1	1	77	130046	2	1	1	1	0	795	1	4	0	8	75	0	2	97
random	1	1	78	131723	4	4	4	1	0	660	1	4	0	32	76	0	2	97
random	1	1	79	133357	3	2	2	1	0	1327	1	4	0	16	77	0	2	97
random	1	1	80	135242	4	3	0	1	2	0	3	4	0	24	77	0	3	96
random	1	1	81	138362	1	4	4	1	0	675	1	4	0	32	78	0	3	96
random	1	1	82	139998	5	1	1	1	0	534	1	4	0	8	79	0	3	96
random	1	1	83	141502	3	2	2	1	0	1126	1	4	0	16	80	0	3	96
random	1	1	84	142978	6	3	0	1	2	0	3	4	0	24	80	0	4	95
random	1	1	85	146151	3	2	2	1	0	1177	1	4	0	16	81	0	4	95
random	1	1	86	147727	1	3	0	1	2	0	3	4	0	24	81	0	5	94
random	1	1	87	150760	4	4	4	1	0	542	1	4	0	32	82	0	5	94
random	1	1	88	152256	2	1	1	1	0	703	1	4	0	8	83	0	5	94
random	1	1	89	153351	6	4	4	1	0	600	1	4	0	32	84	0	5	94
random	1	1	90	154635	3	3	3	1	0	1346	1	4	0	24	85	0	5	94
random	1	1	91	156806	5	4	4	1	0	758	1	4	0	32	86	0	5	95
random	1	1	92	158050	1	2	2	1	0	1521	1	4	0	16	87	0	5	95
random	1	1	93	160183	5	1	1	1	0	758	1	4	0	8	88	0	5	95
random	1	1	94	161567	4	3	3	2	0	2220	2	4	0	24	89	0	5	95
random	1	1	95	164487	6	1	1	1	0	937	1	4	0	8	90	0	5	95
random	1	1	96	166250	2	2	2	1	0	1190	1	4	0	16	91	0	5	95
random	1	1	97	168606	4	3	0	1	2	0	3	4	0	24	91	0	6	94
random	1	1	98	171565	3	2	2	1	0	1101	1	4	0	16	92	0	6	94
random	1	1	99	173679	6	3	3	2	0	1819	2	4	0	24	93	0	6	94
random	1	1	100	176179	1	4	4	1	0	553	1	4	0	32	94	0	6	94
random	1	1	101	177678	4	1	1	1	0	778	1	4	0	8	95	0	6	94
random	1	1	102	179384	5	2	2	1	0	1369	1	4	0	16	96	0	6	94
random	1	1	103	181673	2	4	4	1	0	712	1	4	0	32	97	0	6	94
random	1	1	104	183413	3	1	1	1	0	815	1	4	0	8	98	0	6	94
random	1	1	105	184962	1	3	3	2	0	1789	2	4	0	24	99	0	6	94
random	1	1	106	187371	2	2	2	1	0	951	1	4	0	16	100	0	6	94
random	1	1	107	189021	5	4	4	1	0	673	1	4	0	32	101	0	6	94
random	1	1	108	190429	6	1	1	1	0	694	1	4	0	8	102	0	6	94
random	1	1	109	192214	5	4	4	1	0	810	1	4	0	32	103	0	6	94
random	1	1	110	193366	6	3	3	1	0	1265	1	4	0	24	104	0	6	95
random	1	1	111	195225	2	2	2	1	0	986	1	4	0	16	105	0	6	95
random	1	1	112	196521	3	1	1	1	0	804	1	4	0	8	106	0	6	95
random	1	1	113	198001	1	2	2	1	0	1109	1	4	0	16	107	0	6	95
random	1	1	114	199644	2	3	3	1	0	1584	1	4	0	24	108	0	6	95
random	1	1	115	201543	3	1	1	1	0	743	1	4	0	8	109	0	6	95
random	1	1	116	202760	4	4	4	1	0	675	1	4	0	32	110	0	6	95
random	1	1	117	204246	6	1	1	1	0	900	1	4	0	8	111	0	6	95
random	1	1	118	206124	5	3	3	1	0	1053	1	4	0	24	112	0	6	95
random	1	1	119	207604	1	4	4	1	0	670	1	4	0	32	113	0	6	95
random	1	1	120	209120	4	2	2	1	0	1070	1	4	0	16	114	0	6	95
fixed	2	1	1	211726	4	1	1	1	0	1039	1	4	0	40	1	0	0	100
fixed	2	1	2	213445	1	2	2	1	0	1207	1	4	0	48	2	0	0	100
fixed	2	1	3	215521	6	4	4	1	0	679	1	4	0	64	3	0	0	100
fixed	2	1	4	217158	2	1	1	1	0	697	1	4	0	40	4	0	0	100
fixed	2	1	5	218236	5	3	3	1	0	1436	1	4	0	56	5	0	0	100
fixed	2	1	6	220179	6	4	4	1	0	706	1	4	0	64	6	0	0	100
fixed	2	1	7	221613	3	1	1	1	0	605	1	4	0	40	7	0	0	100
fixed	2	1	8	222800	2	3	3	1	0	1403	1	4	0	56	8	0	0	100
fixed	2	1	9	225032	3	2	2	1	0	804	1	4	0	48	9	0	0	100
fixed	2	1	10	226347	1	4	4	1	0	588	1	4	0	64	10	0	0	100
fixed	2	1	11	227559	5	2	2	1	0	1057	1	4	0	48	11	0	0	100
fixed	2	1	12	229569	4	3	3	1	0	1492	1	4	0	56	12	0	0	100
fixed	2	2	1	231778	4	1	1	1	0	814	1	4	0	40	13	0	0	100
fixed	2	2	2	233444	1	2	2	1	0	1024	1	4	0	48	14	0	0	100
fixed	2	2	3	234806	6	4	4	1	0	718	1	4	0	64	15	0	0	100
fixed	2	2	4	236352	2	1	1	1	0	837	1	4	0	40	16	0	0	100
fixed	2	2	5	238129	5	3	3	1	0	1217	1	4	0	56	17	0	0	100
fixed	2	2	6	240334	6	4	4	1	0	788	1	4	0	64	18	0	0	100
fixed	2	2	7	241872	3	1	1	1	0	835	1	4	0	40	19	0	0	100
fixed	2	2	8	243402	2	3	3	1	0	1250	1	4	0	56	20	0	0	100
fixed	2	2	9	245056	3	2	2	1	0	692	1	4	0	48	21	0	0	100
fixed	2	2	10	246060	1	4	4	1	0	729	1	4	0	64	22	0	0	100
fixed	2	2	11	247371	5	2	2	1	0	1266	1	4	0	48	23	0	0	100
fixed	2	2	12	249570	4	3	3	2	0	1620	2	4	0	56	24	0	0	100
fixed	2	3	1	251844	4	1	1	1	0	1076	1	4	0	40	25	0	0	100
fixed	2	3	2	253435	1	2	2	1	0	1345	1	4	0	48	26	0	0	100
fixed	2	3	3	255068	6	4	4	1	0	684	1	4	0	64	27	0	0	100
fixed	2	3	4	256214	2	1	1	1	0	875	1	4	0	40	28	0	0	100
fixed	2	3	5	257697	5	3	3	1	0	1189	1	4	0	56	29	0	0	100
fixed	2	3	6	259789	6	4	4	1	0	756	1	4	0	64	30	0	0	100
fixed	2	3	7	260972	3	1	1	1	0	762	1	4	0	40	31	0	0	100
fixed	2	3	8	262638	2	3	3	1	0	1203	1	4	0	56	32	0	0	100
fixed	2	3	9	264781	3	2	2	1	0	888	1	4	0	48	33	0	0	100
fixed	2	3	10	266198	1	4	4	1	0	804	1	4	0	64	34	0	0	100
fixed	2	3	11	268022	5	2	2	1	0	1111	1	4	0	48	35	0	0	100
fixed	2	3	12	269454	4	3	3	1	0	1434	1	4	0	56	36	0	0	100
fixed	2	4	1	271926	4	1	1	1	0	1074	1	4	0	40	37	0	0	100
fixed	2	4	2	273541	1	2	2	1	0	1094	1	4	0	48	38	0	0	100
fixed	2	4	3	274934	6	4	4	1	0	746	1	4	0	64	39	0	0	100
fixed	2	4	4	276062	2	1	1	1	0	899	1	4	0	40	40	0	0	100
fixed	2	4	5	277948	5	3	3	1	0	1611	1	4	0	56	41	0	0	100
fixed	2	4	6	280559	6	4	4	1	0	700	1	4	0	64	42	0	0	100
fixed	2	4	7	282234	3	1	1	1	0	893	1	4	0	40	43	0	0	100
fixed	2	4	8	283727	2	3	3	1	0	1262	1	4	0	56	44	0	0	100
fixed	2	4	9	285883	3	2	2	1	0	891	1	4	0	48	45	0	0	100
fixed	2	4	10	287417	1	4	4	1	0	778	1	4	0	64	46	0	0	100
fixed	2	4	11	289204	5	2	2	1	0	1582	1	4	0	48	47	0	0	100
fixed	2	4	12	291193	4	3	3	1	0	1434	1	4	0	56	48	0	0	100
fixed	2	5	1	293696	4	1	1	1	0	991	1	4	0	40	49	0	0	100
fixed	2	5	2	295109	1	2	2	1	0	1164	1	4	0	48	50	0	0	100
fixed	2	5	3	296844	6	4	4	1	0	762	1	4	0	64	51	0	0	100
fixed	2	5	4	298171	2	1	1	1	0	706	1	4	0	40	52	0	0	100
fixed	2	5	5	299229	5	3	3	1	0	1173	1	4	0	56	53	0	0	100
fixed	2	5	6	301347	6	4	4	1	0	683	1	4	0	64	54	0	0	100
fixed	2	5	7	302342	3	1	1	1	0	802	1	4	0	40	55	0	0	100
fixed	2	5	8	303676	2	3	3	1	0	1409	1	4	0	56	56	0	0	100
fixed	2	5	9	305975	3	2	2	1	0	839	1	4	0	48	57	0	0	100
fixed	2	5	10	307250	1	4	4	1	0	714	1	4	0	64	58	0	0	100
fixed	2	5	11	308719	5	2	2	1	0	1083	1	4	0	48	59	0	0	100
fixed	2	5	12	310825	4	3	3	1	0	1162	1	4	0	56	60	0	0	100
fixed	2	6	1	312827	4	1	1	1	0	909	1	4	0	40	61	0	0	100
fixed	2	6	2	314191	1	2	2	1	0	1148	1	4	0	48	62	0	0	100
fixed	2	6	3	315653	6	4	4	1	0	710	1	4	0	64	63	0	0	100
fixed	2	6	4	317243	2	1	1	1	0	762	1	4	0	40	64	0	0	100
fixed	2	6	5	318971	5	3	3	1	0	1002	1	4	0	56	65	0	0	100
fixed	2	6	6	320388	6	4	4	1	0	733	1	4	0	64	66	0	0	100
fixed	2	6	7	321742	3	1	1	1	0	836	1	4	0	40	67	0	0	100
fixed	2	6	8	323480	2	3	3	1	0	1098	1	4	0	56	68	0	0	100
fixed	2	6	9	325088	3	2	2	1	0	710	1	4	0	48	69	0	0	100
fixed	2	6	10	326305	1	4	4	1	0	707	1	4	0	64	70	0	0	100
fixed	2	6	11	327494	5	2	2	1	0	1336	1	4	0	48	71	0	0	100
fixed	2	6	12	329759	4	3	3	1	0	1320	1	4	0	56	72	0	0	100
fixed	2	7	1	331907	4	1	1	1	0	797	1	4	0	40	73	0	0	100
fixed	2	7	2	333270	1	2	2	1	0	1052	1	4	0	48	74	0	0	100
fixed	2	7	3	334634	6	4	4	1	0	698	1	4	0	64	75	0	0	100
fixed	2	7	4	335707	2	1	1	3	0	1580	2	4	0	40	76	0	0	100
fixed	2	7	5	337804	5	3	3	1	0	1259	1	4	0	56	77	0	0	100
fixed	2	7	6	339448	6	4	4	1	0	710	1	4	0	64	78	0	0	100
fixed	2	7	7	340831	3	1	1	1	0	1011	1	4	0	40	79	0	0	100
fixed	2	7	8	342566	2	3	3	1	0	1626	1	4	0	56	80	0	0	100
fixed	2	7	9	344945	3	2	2	1	0	533	1	4	0	48	81	0	0	100
fixed	2	7	10	346231	1	4	4	1	0	767	1	4	0	64	82	0	0	100
fixed	2	7	11	347953	5	2	2	1	0	1110	1	4	0	48	83	0	0	100
fixed	2	7	12	349435	4	3	3	1	0	1071	1	4	0	56	84	0	0	100
fixed	2	8	1	351321	4	1	1	1	0	903	1	4	0	40	85	0	0	100
fixed	2	8	2	352893	1	2	2	1	0	1228	1	4	0	48	86	0	0	100
fixed	2	8	3	354725	6	4	4	1	0	727	1	4	0	64	87	0	0	100
fixed	2	8	4	356450	2	1	1	1	0	918	1	4	0	40	88	0	0	100
fixed	2	8	5	357779	5	3	3	1	0	998	1	4	0	56	89	0	0	100
fixed	2	8	6	359549	6	4	4	1	0	683	1	4	0	64	90	0	0	100
fixed	2	8	7	360628	3	1	1	1	0	1621	1	4	0	40	91	0	0	100
fixed	2	8	8	362631	2	3	3	1	0	1152	1	4	0	56	92	0	0	100
fixed	2	8	9	364085	3	2	2	1	0	858	1	4	0	48	93	0	0	100
fixed	2	8	10	365677	1	4	4	1	0	663	1	4	0	64	94	0	0	100
fixed	2	8	11	367134	5	2	2	1	0	1057	1	4	0	48	95	0	0	100
fixed	2	8	12	368952	4	3	3	1	0	1076	1	4	0	56	96	0	0	100
fixed	2	9	1	371287	4	1	1	1	0	905	1	4	0	40	97	0	0	100
fixed	2	9	2	373031	1	2	2	1	0	1096	1	4	0	48	98	0	0	100
fixed	2	9	3	374472	6	4	4	1	0	691	1	4	0	64	99	0	0	100
fixed	2	9	4	375466	2	1	1	1	0	808	1	4	0	40	100	0	0	100
fixed	2	9	5	376721	5	3	3	1	0	907	1	4	0	56	101	0	0	100
fixed	2	9	6	378604	6	4	4	1	0	675	1	4	0	64	102	0	0	100
fixed	2	9	7	380002	3	1	1	1	0	721	1	4	0	40	103	0	0	100
fixed	2	9	8	381570	2	3	3	1	0	1470	1	4	0	56	104	0	0	100
fixed	2	9	9	383702	3	2	2	1	0	683	1	4	0	48	105	0	0	100
fixed	2	9	10	385345	1	4	4	1	0	694	1	4	0	64	106	0	0	100
fixed	2	9	11	386794	5	2	2	1	0	1080	1	4	0	48	107	0	0	100
fixed	2	9	12	388299	4	3	3	1	0	1481	1	4	0	56	108	0	0	100
fixed	2	10	1	390551	4	1	1	1	0	769	1	4	0	40	109	0	0	100
fixed	2	10	2	391731	1	2	2	1	0	1008	1	4	0	48	110	0	0	100
fixed	2	10	3	393486	6	4	4	1	0	709	1	4	0	64	111	0	0	100
fixed	2	10	4	394557	2	1	1	1	0	712	1	4	0	40	112	0	0	100
fixed	2	10	5	395627	5	3	3	1	0	1211	1	4	0	56	113	0	0	100
fixed	2	10	6	397453	6	4	4	1	0	701	1	4	0	64	114	0	0	100
fixed	2	10	7	398685	3	1	1	1	0	753	1	4	0	40	115	0	0	100
fixed	2	10	8	399818	2	3	3	1	0	1273	1	4	0	56	116	0	0	100
fixed	2	10	9	401833	3	2	2	1	0	731	1	4	0	48	117	0	0	100
fixed	2	10	10	403146	1	4	4	1	0	684	1	4	0	64	118	0	0	100
fixed	2	10	11	404802	5	2	2	1	0	1006	1	4	0	48	119	0	0	100
fixed	2	10	12	406316	4	3	3	1	0	1126	1	4	0	56	120	0	0	100
fixed	3	1	1	408944	4	1	1	1	0	886	1	4	0	72	1	0	0	100
fixed	3	1	2	410134	1	2	2	1	0	1644	1	4	0	80	2	0	0	100
fixed	3	1	3	412749	6	4	4	1	0	645	1	4	0	96	3	0	0	100
fixed	3	1	4	414370	2	1	1	1	0	921	1	4	0	72	4	0	0	100
fixed	3	1	5	415763	5	3	3	1	0	1013	1	4	0	88	5	0	0	100
fixed	3	1	6	417665	6	4	4	1	0	669	1	4	0	96	6	0	0	100
fixed	3	1	7	418889	3	1	1	1	0	753	1	4	0	72	7	0	0	100
fixed	3	1	8	420044	2	3	3	1	0	1424	1	4	0	88	8	0	0	100
fixed	3	1	9	421920	3	2	2	1	0	673	1	4	0	80	9	0	0	100
fixed	3	1	10	423325	1	4	4	1	0	621	1	4	0	96	10	0	0	100
fixed	3	1	11	424267	5	2	2	1	0	1213	1	4	0	80	11	0	0	100
fixed	3	1	12	425915	4	3	3	1	0	1024	1	4	0	88	12	0	0	100
fixed	3	2	1	427608	4	1	1	1	0	848	1	4	0	72	13	0	0	100
fixed	3	2	2	429082	1	2	0	1	2	0	3	4	0	80	13	0	1	93
fixed	3	2	3	432259	6	4	4	1	0	603	1	4	0	96	14	0	1	93
fixed	3	2	4	433800	2	1	1	1	0	690	1	4	0	72	15	0	1	94
fixed	3	2	5	434883	5	3	3	1	0	964	1	4	0	88	16	0	1	94
fixed	3	2	6	436792	6	4	4	1	0	659	1	4	0	96	17	0	1	94
fixed	3	2	7	438419	3	1	1	1	0	838	1	4	0	72	18	0	1	95
fixed	3	2	8	439920	2	3	3	1	0	1238	1	4	0	88	19	0	1	95
fixed	3	2	9	441648	3	2	2	1	0	725	1	4	0	80	20	0	1	95
fixed	3	2	10	442886	1	4	4	1	0	713	1	4	0	96	21	0	1	95
fixed	3	2	11	444482	5	2	2	1	0	917	1	4	0	80	22	0	1	96
fixed	3	2	12	445726	4	3	3	1	0	1072	1	4	0	88	23	0	1	96
fixed	3	3	1	447875	4	1	1	1	0	837	1	4	0	72	24	0	1	96
fixed	3	3	2	449457	1	2	0	1	2	0	3	4	0	80	24	0	2	92
fixed	3	3	3	452357	6	4	4	1	0	816	1	4	0	96	25	0	2	93
fixed	3	3	4	453997	2	1	1	1	0	818	1	4	0	72	26	0	2	93
fixed	3	3	5	455612	5	3	3	1	0	1222	1	4	0	88	27	0	2	93
fixed	3	3	6	457784	6	4	4	1	0	650	1	4	0	96	28	0	2	93
fixed	3	3	7	459026	3	1	1	1	0	717	1	4	0	72	29	0	2	94
fixed	3	3	8	460434	2	3	3	1	0	1202	1	4	0	88	30	0	2	94
fixed	3	3	9	462622	3	2	2	1	0	797	1	4	0	80	31	0	2	94
fixed	3	3	10	464312	1	4	4	1	0	742	1	4	0	96	32	0	2	94
fixed	3	3	11	465443	5	2	2	1	0	1189	1	4	0	80	33	0	2	94
fixed	3	3	12	467160	4	3	3	1	0	773	1	4	0	88	34	0	2	94
fixed	3	4	1	468626	4	1	1	1	0	646	1	4	0	72	35	0	2	95
fixed	3	4	2	469629	1	2	2	1	0	988	1	4	0	80	36	0	2	95
fixed	3	4	3	471195	6	4	4	1	0	690	1	4	0	96	37	0	2	95
fixed	3	4	4	472221	2	1	1	1	0	774	1	4	0	72	38	0	2	95
fixed	3	4	5	473545	5	3	3	1	0	942	1	4	0	88	39	0	2	95
fixed	3	4	6	475124	6	4	4	1	0	699	1	4	0	96	40	0	2	95
fixed	3	4	7	476124	3	1	1	1	0	649	1	4	0	72	41	0	2	95
fixed	3	4	8	477697	2	3	3	1	0	1110	1	4	0	88	42	0	2	95
fixed	3	4	9	479281	3	2	2	1	0	572	1	4	0	80	43	0	2	96
fixed	3	4	10	480697	1	4	4	1	0	607	1	4	0	96	44	0	2	96
fixed	3	4	11	482055	5	2	2	1	0	1006	1	4	0	80	45	0	2	96
fixed	3	4	12	484059	4	3	3	1	0	1057	1	4	0	88	46	0	2	96
fixed	3	5	1	485835	4	1	1	1	0	645	1	4	0	72	47	0	2	96
fixed	3	5	2	487036	1	2	2	1	0	1643	1	4	0	80	48	0	2	96
fixed	3	5	3	489020	6	4	4	1	0	863	1	4	0	96	49	0	2	96
fixed	3	5	4	490377	2	1	1	1	0	685	1	4	0	72	50	0	2	96
fixed	3	5	5	492053	5	3	3	1	0	1038	1	4	0	88	51	0	2	96
fixed	3	5	6	494053	6	4	4	1	0	729	1	4	0	96	52	0	2	96
fixed	3	5	7	495214	3	1	1	1	0	688	1	4	0	72	53	0	2	96
fixed	3	5	8	496885	2	3	3	1	0	1218	1	4	0	88	54	0	2	96
fixed	3	5	9	498753	3	2	2	1	0	506	1	4	0	80	55	0	2	96
fixed	3	5	10	500013	1	4	4	1	0	701	1	4	0	96	56	0	2	97
fixed	3	5	11	501687	5	2	2	1	0	1183	1	4	0	80	57	0	2	97
fixed	3	5	12	503856	4	3	3	1	0	1259	1	4	0	88	58	0	2	97
fixed	3	6	1	506352	4	1	1	1	0	752	1	4	0	72	59	0	2	97
fixed	3	6	2	507957	1	2	2	1	0	1037	1	4	0	80	60	0	2	97
fixed	3	6	3	510042	6	4	4	1	0	684	1	4	0	96	61	0	2	97
fixed	3	6	4	511558	2	1	1	1	0	764	1	4	0	72	62	0	2	97
fixed	3	6	5	512706	5	3	3	1	0	940	1	4	0	88	63	0	2	97
fixed	3	6	6	514031	6	4	4	1	0	748	1	4	0	96	64	0	2	97
fixed	3	6	7	515324	3	1	1	1	0	716	1	4	0	72	65	0	2	97
fixed	3	6	8	517065	2	3	3	1	0	1227	1	4	0	88	66	0	2	97
fixed	3	6	9	519286	3	2	2	1	0	613	1	4	0	80	67	0	2	97
fixed	3	6	10	520315	1	4	4	1	0	769	1	4	0	96	68	0	2	97
fixed	3	6	11	521966	5	2	2	1	0	1123	1	4	0	80	69	0	2	97
fixed	3	6	12	523432	4	3	0	1	2	0	3	4	0	88	69	0	3	96
fixed	3	7	1	526568	4	1	1	1	0	808	1	4	0	72	70	0	3	96
fixed	3	7	2	527907	1	2	2	1	0	1207	1	4	0	80	71	0	3	96
fixed	3	7	3	530156	6	4	4	1	0	793	1	4	0	96	72	0	3	96
fixed	3	7	4	531633	2	1	1	1	0	658	1	4	0	72	73	0	3	96
fixed	3	7	5	532927	5	3	3	1	0	1211	1	4	0	88	74	0	3	96
fixed	3	7	6	534699	6	4	4	1	0	744	1	4	0	96	75	0	3	96
fixed	3	7	7	535884	3	1	1	1	0	654	1	4	0	72	76	0	3	96
fixed	3	7	8	537396	2	3	3	1	0	1398	1	4	0	88	77	0	3	96
fixed	3	7	9	539098	3	2	2	1	0	645	1	4	0	80	78	0	3	96
fixed	3	7	10	540302	1	4	4	1	0	714	1	4	0	96	79	0	3	96
fixed	3	7	11	542045	5	2	2	1	0	993	1	4	0	80	80	0	3	96
fixed	3	7	12	543381	4	3	3	1	0	1312	1	4	0	88	81	0	3	96
fixed	3	8	1	545264	4	1	1	1	0	720	1	4	0	72	82	0	3	96
fixed	3	8	2	546288	1	2	2	1	0	1125	1	4	0	80	83	0	3	97
fixed	3	8	3	547788	6	4	4	1	0	685	1	4	0	96	84	0	3	97
fixed	3	8	4	548996	2	1	1	1	0	834	1	4	0	72	85	0	3	97
fixed	3	8	5	550478	5	3	3	1	0	1051	1	4	0	88	86	0	3	97
fixed	3	8	6	552052	6	4	4	1	0	729	1	4	0	96	87	0	3	97
fixed	3	8	7	553669	3	1	1	1	0	692	1	4	0	72	88	0	3	97
fixed	3	8	8	554807	2	3	3	1	0	1132	1	4	0	88	89	0	3	97
fixed	3	8	9	556424	3	2	2	1	0	703	1	4	0	80	90	0	3	97
fixed	3	8	10	557693	1	4	4	1	0	658	1	4	0	96	91	0	3	97
fixed	3	8	11	559231	5	2	2	1	0	953	1	4	0	80	92	0	3	97
fixed	3	8	12	561049	4	3	3	1	0	1260	1	4	0	88	93	0	3	97
fixed	3	9	1	563375	4	1	0	0	2	0	3	4	0	72	93	0	4	96
fixed	3	9	2	566783	1	2	2	1	0	2153	1	4	0	80	94	0	4	96
fixed	3	9	3	569392	6	4	4	1	0	746	1	4	0	96	95	0	4	96
fixed	3	9	4	571138	2	1	1	1	0	1153	1	4	0	72	96	0	4	96
fixed	3	9	5	573159	5	3	3	1	0	1907	1	4	0	88	97	0	4	96
fixed	3	9	6	575958	6	4	4	1	0	692	1	4	0	96	98	0	4	96
fixed	3	9	7	577357	3	1	1	1	0	689	1	4	0	72	99	0	4	96
fixed	3	9	8	578508	2	3	3	1	0	1201	1	4	0	88	100	0	4	96
fixed	3	9	9	580098	3	2	2	1	0	1109	1	4	0	80	101	0	4	96
fixed	3	9	10	581635	1	4	4	1	0	692	1	4	0	96	102	0	4	96
fixed	3	9	11	583346	5	2	2	1	0	1267	1	4	0	80	103	0	4	96
fixed	3	9	12	585031	4	3	3	1	0	1116	1	4	0	88	104	0	4	96
fixed	3	10	1	586749	4	1	1	1	0	555	1	4	0	72	105	0	4	96
fixed	3	10	2	587779	1	2	2	1	0	936	1	4	0	80	106	0	4	96
fixed	3	10	3	589226	6	4	4	1	0	666	1	4	0	96	107	0	4	96
fixed	3	10	4	590696	2	1	1	1	0	676	1	4	0	72	108	0	4	96
fixed	3	10	5	591813	5	3	3	1	0	1269	1	4	0	88	109	0	4	96
fixed	3	10	6	593607	6	4	4	1	0	697	1	4	0	96	110	0	4	96
fixed	3	10	7	595213	3	1	1	1	0	781	1	4	0	72	111	0	4	97
fixed	3	10	8	596620	2	3	3	1	0	1121	1	4	0	88	112	0	4	97
fixed	3	10	9	598512	3	2	2	1	0	593	1	4	0	80	113	0	4	97
fixed	3	10	10	599481	1	4	4	1	0	968	1	4	0	96	114	0	4	97
fixed	3	10	11	601141	5	2	2	1	0	906	1	4	0	80	115	0	4	97
fixed	3	10	12	602504	4	3	3	1	0	1184	1	4	0	88	116	0	4	97
fixed	4	1	1	689966	4	1	1	1	0	935	1	4	0	104	1	0	0	100
fixed	4	1	2	691853	1	2	2	1	0	1464	1	4	0	112	2	0	0	100
fixed	4	1	3	694254	6	4	4	1	0	898	1	4	0	128	3	0	0	100
fixed	4	1	4	695526	2	1	1	1	0	668	1	4	0	104	4	0	0	100
fixed	4	1	5	696548	5	3	3	1	0	1761	1	4	0	120	5	0	0	100
fixed	4	1	6	698856	6	4	4	2	0	1607	2	4	0	128	6	0	0	100
fixed	4	1	7	701176	3	1	1	1	0	717	1	4	0	104	7	0	0	100
fixed	4	1	8	702539	2	3	3	3	0	2019	2	4	0	120	8	0	0	100
fixed	4	1	9	705498	3	2	2	1	0	1342	1	4	0	112	9	0	0	100
fixed	4	1	10	707314	1	4	4	1	0	1201	1	4	0	128	10	0	0	100
fixed	4	1	11	709320	5	2	2	1	0	1252	1	4	0	112	11	0	0	100
fixed	4	1	12	711186	4	3	3	1	0	812	1	4	0	120	12	0	0	100
fixed	4	2	1	712925	4	1	1	1	0	1267	1	4	0	104	13	0	0	100
fixed	4	2	2	714779	1	2	0	1	2	0	3	4	0	112	13	0	1	93
fixed	4	2	3	717844	6	4	4	1	0	779	1	4	0	128	14	0	1	93
fixed	4	2	4	719553	2	1	1	1	0	667	1	4	0	104	15	0	1	94
fixed	4	2	5	720592	5	3	3	1	0	1198	1	4	0	120	16	0	1	94
fixed	4	2	6	722628	6	4	4	1	0	720	1	4	0	128	17	0	1	94
fixed	4	2	7	724303	3	1	1	1	0	569	1	4	0	104	18	0	1	95
fixed	4	2	8	725471	2	3	3	1	0	1319	1	4	0	120	19	0	1	95
fixed	4	2	9	727372	3	2	2	1	0	503	1	4	0	112	20	0	1	95
fixed	4	2	10	728642	1	4	4	1	0	698	1	4	0	128	21	0	1	95
fixed	4	2	11	730158	5	2	2	1	0	1081	1	4	0	112	22	0	1	96
fixed	4	2	12	731714	4	3	3	1	0	1071	1	4	0	120	23	0	1	96
fixed	4	3	1	733761	4	1	1	1	0	1016	1	4	0	104	24	0	1	96
fixed	4	3	2	735450	1	2	0	1	2	0	3	4	0	112	24	0	2	92
fixed	4	3	3	738611	6	4	4	1	0	723	1	4	0	128	25	0	2	93
fixed	4	3	4	739984	2	1	1	1	0	721	1	4	0	104	26	0	2	93
fixed	4	3	5	741404	5	3	3	1	0	1221	1	4	0	120	27	0	2	93
fixed	4	3	6	743656	6	4	4	1	0	661	1	4	0	128	28	0	2	93
fixed	4	3	7	745253	3	1	1	1	0	642	1	4	0	104	29	0	2	94
fixed	4	3	8	746803	2	3	3	1	0	1072	1	4	0	120	30	0	2	94
fixed	4	3	9	748304	3	2	2	1	0	713	1	4	0	112	31	0	2	94
fixed	4	3	10	749774	1	4	4	1	0	770	1	4	0	128	32	0	2	94
fixed	4	3	11	751378	5	2	2	1	0	911	1	4	0	112	33	0	2	94
fixed	4	3	12	753020	4	3	3	1	0	1441	1	4	0	120	34	0	2	94
fixed	4	4	1	755346	4	1	1	1	0	918	1	4	0	104	35	0	2	95
fixed	4	4	2	756729	1	2	2	1	0	1404	1	4	0	112	36	0	2	95
fixed	4	4	3	758487	6	4	4	2	0	745	2	4	0	128	37	0	2	95
fixed	4	4	4	759715	2	1	1	1	0	725	1	4	0	104	38	0	2	95
fixed	4	4	5	760906	5	3	3	1	0	1355	1	4	0	120	39	0	2	95
fixed	4	4	6	762916	6	4	4	1	0	798	1	4	0	128	40	0	2	95
fixed	4	4	7	764039	3	1	1	1	0	942	1	4	0	104	41	0	2	95
fixed	4	4	8	765429	2	3	3	1	0	1235	1	4	0	120	42	0	2	95
fixed	4	4	9	767387	3	2	2	1	0	993	1	4	0	112	43	0	2	96
fixed	4	4	10	769335	1	4	4	1	0	710	1	4	0	128	44	0	2	96
fixed	4	4	11	770980	5	2	2	1	0	912	1	4	0	112	45	0	2	96
fixed	4	4	12	772751	4	3	3	1	0	1149	1	4	0	120	46	0	2	96
fixed	4	5	1	774610	4	1	1	1	0	718	1	4	0	104	47	0	2	96
fixed	4	5	2	775767	1	2	2	1	0	1293	1	4	0	112	48	0	2	96
fixed	4	5	3	777448	6	4	4	1	0	694	1	4	0	128	49	0	2	96
fixed	4	5	4	779082	2	1	1	1	0	697	1	4	0	104	50	0	2	96
fixed	4	5	5	780625	5	3	3	1	0	999	1	4	0	120	51	0	2	96
fixed	4	5	6	781956	6	4	4	1	0	744	1	4	0	128	52	0	2	96
fixed	4	5	7	783321	3	1	1	1	0	733	1	4	0	104	53	0	2	96
fixed	4	5	8	784985	2	3	3	1	0	1063	1	4	0	120	54	0	2	96
fixed	4	5	9	786703	3	2	2	1	0	783	1	4	0	112	55	0	2	96
fixed	4	5	10	787937	1	4	4	1	0	786	1	4	0	128	56	0	2	97
fixed	4	5	11	789610	5	2	2	1	0	1035	1	4	0	112	57	0	2	97
fixed	4	5	12	791043	4	3	3	1	0	1095	1	4	0	120	58	0	2	97
fixed	4	6	1	793172	4	1	1	1	0	708	1	4	0	104	59	0	2	97
fixed	4	6	2	794305	1	2	2	1	0	2332	1	4	0	112	60	0	2	97
fixed	4	6	3	797027	6	4	4	1	0	865	1	4	0	128	61	0	2	97
fixed	4	6	4	798403	2	1	1	1	0	934	1	4	0	104	62	0	2	97
fixed	4	6	5	799993	5	3	3	1	0	1195	1	4	0	120	63	0	2	97
fixed	4	6	6	801772	6	4	4	1	0	1440	1	4	0	128	64	0	2	97
fixed	4	6	7	803873	3	1	1	1	0	855	1	4	0	104	65	0	2	97
fixed	4	6	8	805189	2	3	3	1	0	1103	1	4	0	120	66	0	2	97
fixed	4	6	9	806977	3	2	2	1	0	667	1	4	0	112	67	0	2	97
fixed	4	6	10	808008	1	4	4	1	0	1200	1	4	0	128	68	0	2	97
fixed	4	6	11	810148	5	2	2	1	0	1309	1	4	0	112	69	0	2	97
fixed	4	6	12	811851	4	3	3	1	0	1149	1	4	0	120	70	0	2	97
fixed	4	7	1	814190	4	1	1	1	0	682	1	4	0	104	71	0	2	97
fixed	4	7	2	815224	1	2	2	1	0	1038	1	4	0	112	72	0	2	97
fixed	4	7	3	816755	6	4	4	1	0	725	1	4	0	128	73	0	2	97
fixed	4	7	4	817920	2	1	1	1	0	828	1	4	0	104	74	0	2	97
fixed	4	7	5	819173	5	3	3	1	0	1047	1	4	0	120	75	0	2	97
fixed	4	7	6	820885	6	4	4	1	0	727	1	4	0	128	76	0	2	97
fixed	4	7	7	822252	3	1	1	1	0	957	1	4	0	104	77	0	2	97
fixed	4	7	8	823798	2	3	3	1	0	1891	1	4	0	120	78	0	2	98
fixed	4	7	9	826499	3	2	2	1	0	697	1	4	0	112	79	0	2	98
fixed	4	7	10	827490	1	4	4	1	0	734	1	4	0	128	80	0	2	98
fixed	4	7	11	828867	5	2	2	1	0	948	1	4	0	112	81	0	2	98
fixed	4	7	12	830360	4	3	3	1	0	1365	1	4	0	120	82	0	2	98
fixed	4	8	1	832903	4	1	1	1	0	1513	1	4	0	104	83	0	2	98
fixed	4	8	2	834852	1	2	0	0	2	0	3	4	0	112	83	0	3	97
fixed	4	8	3	838305	6	4	4	1	0	725	1	4	0	128	84	0	3	97
fixed	4	8	4	839836	2	1	1	1	0	699	1	4	0	104	85	0	3	97
fixed	4	8	5	841336	5	3	3	1	0	1156	1	4	0	120	86	0	3	97
fixed	4	8	6	842893	6	4	4	1	0	794	1	4	0	128	87	0	3	97
fixed	4	8	7	844386	3	1	1	1	0	611	1	4	0	104	88	0	3	97
fixed	4	8	8	845887	2	3	3	1	0	1307	1	4	0	120	89	0	3	97
fixed	4	8	9	848000	3	2	2	2	0	1482	2	4	0	112	90	0	3	97
fixed	4	8	10	850454	1	4	4	1	0	866	1	4	0	128	91	0	3	97
fixed	4	8	11	852286	5	2	2	1	0	1316	1	4	0	112	92	0	3	97
fixed	4	8	12	854543	4	3	3	1	0	1461	1	4	0	120	93	0	3	97
fixed	4	9	1	857112	4	1	1	1	0	704	1	4	0	104	94	0	3	97
fixed	4	9	2	858406	1	2	2	1	0	1089	1	4	0	112	95	0	3	97
fixed	4	9	3	860290	6	4	4	1	0	889	1	4	0	128	96	0	3	97
fixed	4	9	4	862150	2	1	1	1	0	1227	1	4	0	104	97	0	3	97
fixed	4	9	5	863890	5	3	3	1	0	1177	1	4	0	120	98	0	3	97
fixed	4	9	6	866058	6	4	4	1	0	893	1	4	0	128	99	0	3	97
fixed	4	9	7	867849	3	1	1	1	0	793	1	4	0	104	100	0	3	97
fixed	4	9	8	869502	2	3	3	1	0	1331	1	4	0	120	101	0	3	97
fixed	4	9	9	871735	3	2	2	1	0	973	1	4	0	112	102	0	3	97
fixed	4	9	10	873420	1	4	4	1	0	741	1	4	0	128	103	0	3	97
fixed	4	9	11	874986	5	2	2	1	0	947	1	4	0	112	104	0	3	97
fixed	4	9	12	876401	4	3	0	0	2	0	3	4	0	120	104	0	4	96
fixed	4	10	1	880169	4	1	1	1	0	1215	1	4	0	104	105	0	4	96
fixed	4	10	2	882070	1	2	2	1	0	1607	1	4	0	112	106	0	4	96
fixed	4	10	3	884593	6	4	4	1	0	956	1	4	0	128	107	0	4	96
fixed	4	10	4	886141	2	1	1	1	0	747	1	4	0	104	108	0	4	96
fixed	4	10	5	887376	5	3	3	1	0	1102	1	4	0	120	109	0	4	96
fixed	4	10	6	889231	6	4	4	1	0	744	1	4	0	128	110	0	4	96
fixed	4	10	7	890851	3	1	1	1	0	723	1	4	0	104	111	0	4	97
fixed	4	10	8	892522	2	3	3	1	0	1356	1	4	0	120	112	0	4	97
fixed	4	10	9	894909	3	2	2	1	0	703	1	4	0	112	113	0	4	97
fixed	4	10	10	896120	1	4	4	1	0	604	1	4	0	128	114	0	4	97
fixed	4	10	11	897571	5	2	2	1	0	1006	1	4	0	112	115	0	4	97
fixed	4	10	12	899220	4	3	3	1	0	1024	1	4	0	120	116	0	4	97
fixed	5	1	1	901719	4	1	1	1	0	758	1	4	0	136	1	0	0	100
fixed	5	1	2	903293	1	2	2	1	0	964	1	4	0	144	2	0	0	100
fixed	5	1	3	905270	6	4	4	1	0	728	1	4	0	160	3	0	0	100
fixed	5	1	4	906713	2	1	1	1	0	787	1	4	0	136	4	0	0	100
fixed	5	1	5	907918	5	3	3	1	0	1072	1	4	0	152	5	0	0	100
fixed	5	1	6	909894	6	4	4	1	0	644	1	4	0	160	6	0	0	100
fixed	5	1	7	911278	3	1	1	1	0	769	1	4	0	136	7	0	0	100
fixed	5	1	8	913054	2	3	3	1	0	1510	1	4	0	152	8	0	0	100
fixed	5	1	9	915166	3	2	2	1	0	1045	1	4	0	144	9	0	0	100
fixed	5	1	10	916682	1	4	4	1	0	821	1	4	0	160	10	0	0	100
fixed	5	1	11	918465	5	2	2	1	0	993	1	4	0	144	11	0	0	100
fixed	5	1	12	919806	4	3	3	1	0	1017	1	4	0	152	12	0	0	100
fixed	5	2	1	922005	4	1	1	1	0	1219	1	4	0	136	13	0	0	100
fixed	5	2	2	924107	1	2	2	1	0	1186	1	4	0	144	14	0	0	100
fixed	5	2	3	925739	6	4	4	1	0	717	1	4	0	160	15	0	0	100
fixed	5	2	4	927439	2	1	1	1	0	669	1	4	0	136	16	0	0	100
fixed	5	2	5	928504	5	3	3	1	0	1072	1	4	0	152	17	0	0	100
fixed	5	2	6	930267	6	4	4	1	0	1094	1	4	0	160	18	0	0	100
fixed	5	2	7	932365	3	1	1	1	0	564	1	4	0	136	19	0	0	100
fixed	5	2	8	933470	2	3	3	1	0	1174	1	4	0	152	20	0	0	100
fixed	5	2	9	935667	3	2	2	1	0	593	1	4	0	144	21	0	0	100
fixed	5	2	10	936599	1	4	4	1	0	785	1	4	0	160	22	0	0	100
fixed	5	2	11	937816	5	2	2	1	0	1214	1	4	0	144	23	0	0	100
fixed	5	2	12	939495	4	3	3	1	0	742	1	4	0	152	24	0	0	100
fixed	5	3	1	941519	4	1	1	1	0	713	1	4	0	136	25	0	0	100
fixed	5	3	2	942902	1	2	2	1	0	1303	1	4	0	144	26	0	0	100
fixed	5	3	3	944907	6	4	4	1	0	722	1	4	0	160	27	0	0	100
fixed	5	3	4	946066	2	1	1	1	0	648	1	4	0	136	28	0	0	100
fixed	5	3	5	947554	5	3	3	1	0	977	1	4	0	152	29	0	0	100
fixed	5	3	6	949096	6	4	4	1	0	664	1	4	0	160	30	0	0	100
fixed	5	3	7	950787	3	1	1	1	0	593	1	4	0	136	31	0	0	100
fixed	5	3	8	952145	2	3	3	1	0	1023	1	4	0	152	32	0	0	100
fixed	5	3	9	953494	3	2	2	1	0	646	1	4	0	144	33	0	0	100
fixed	5	3	10	954844	1	4	4	1	0	637	1	4	0	160	34	0	0	100
fixed	5	3	11	955875	5	2	2	1	0	1241	1	4	0	144	35	0	0	100
fixed	5	3	12	958138	4	3	3	1	0	1033	1	4	0	152	36	0	0	100
fixed	5	4	1	959864	4	1	1	1	0	600	1	4	0	136	37	0	0	100
fixed	5	4	2	960964	1	2	2	1	0	1114	1	4	0	144	38	0	0	100
fixed	5	4	3	962761	6	4	4	1	0	717	1	4	0	160	39	0	0	100
fixed	5	4	4	964422	2	1	1	1	0	831	1	4	0	136	40	0	0	100
fixed	5	4	5	966080	5	3	3	1	0	1216	1	4	0	152	41	0	0	100
fixed	5	4	6	968152	6	4	4	1	0	729	1	4	0	160	42	0	0	100
fixed	5	4	7	969814	3	1	1	1	0	899	1	4	0	136	43	0	0	100
fixed	5	4	8	971370	2	3	3	1	0	1129	1	4	0	152	44	0	0	100
fixed	5	4	9	972838	3	2	2	1	0	746	1	4	0	144	45	0	0	100
fixed	5	4	10	974080	1	4	4	1	0	645	1	4	0	160	46	0	0	100
fixed	5	4	11	975420	5	2	2	1	0	1037	1	4	0	144	47	0	0	100
fixed	5	4	12	977246	4	3	3	1	0	1064	1	4	0	152	48	0	0	100
fixed	5	5	1	979329	4	1	1	1	0	655	1	4	0	136	49	0	0	100
fixed	5	5	2	980579	1	2	2	1	0	1402	1	4	0	144	50	0	0	100
fixed	5	5	3	982557	6	4	4	1	0	743	1	4	0	160	51	0	0	100
fixed	5	5	4	984152	2	1	1	1	0	603	1	4	0	136	52	0	0	100
fixed	5	5	5	985773	5	3	3	1	0	1039	1	4	0	152	53	0	0	100
fixed	5	5	6	987460	6	4	4	1	0	735	1	4	0	160	54	0	0	100
fixed	5	5	7	988915	3	1	1	1	0	874	1	4	0	136	55	0	0	100
fixed	5	5	8	990762	2	3	3	1	0	1395	1	4	0	152	56	0	0	100
fixed	5	5	9	992456	3	2	2	1	0	756	1	4	0	144	57	0	0	100
fixed	5	5	10	993897	1	4	4	1	0	766	1	4	0	160	58	0	0	100
fixed	5	5	11	995506	5	2	2	1	0	994	1	4	0	144	59	0	0	100
fixed	5	5	12	996910	4	3	3	1	0	1191	1	4	0	152	60	0	0	100
fixed	5	6	1	998760	4	1	1	2	0	1248	2	4	0	136	61	0	0	100
fixed	5	6	2	1000614	1	2	2	1	0	1042	1	4	0	144	62	0	0	100
fixed	5	6	3	1002585	6	4	4	1	0	774	1	4	0	160	63	0	0	100
fixed	5	6	4	1004327	2	1	1	1	0	892	1	4	0	136	64	0	0	100
fixed	5	6	5	1005674	5	3	3	1	0	1155	1	4	0	152	65	0	0	100
fixed	5	6	6	1007194	6	4	4	1	0	995	1	4	0	160	66	0	0	100
fixed	5	6	7	1009179	3	1	1	1	0	575	1	4	0	136	67	0	0	100
fixed	5	6	8	1010089	2	3	3	1	0	1312	1	4	0	152	68	0	0	100
fixed	5	6	9	1011811	3	2	2	1	0	615	1	4	0	144	69	0	0	100
fixed	5	6	10	1013073	1	4	4	1	0	618	1	4	0	160	70	0	0	100
fixed	5	6	11	1014470	5	2	0	1	2	0	3	4	0	144	70	0	1	99
fixed	5	6	12	1017550	4	3	3	1	0	1269	1	4	0	152	71	0	1	99
fixed	5	7	1	1019962	4	1	1	1	0	662	1	4	0	136	72	0	1	99
fixed	5	7	2	1021613	1	2	2	1	0	984	1	4	0	144	73	0	1	99
fixed	5	7	3	1023027	6	4	4	1	0	757	1	4	0	160	74	0	1	99
fixed	5	7	4	1024278	2	1	1	1	0	840	1	4	0	136	75	0	1	99
fixed	5	7	5	1025843	5	3	3	1	0	1117	1	4	0	152	76	0	1	99
fixed	5	7	6	1027501	6	4	4	1	0	679	1	4	0	160	77	0	1	99
fixed	5	7	7	1029093	3	1	1	1	0	588	1	4	0	136	78	0	1	99
fixed	5	7	8	1030278	2	3	3	1	0	1241	1	4	0	152	79	0	1	99
fixed	5	7	9	1032048	3	2	2	1	0	446	1	4	0	144	80	0	1	99
fixed	5	7	10	1033076	1	4	4	1	0	587	1	4	0	160	81	0	1	99
fixed	5	7	11	1034017	5	2	2	1	0	1267	1	4	0	144	82	0	1	99
fixed	5	7	12	1035851	4	3	3	1	0	1301	1	4	0	152	83	0	1	99
fixed	5	8	1	1037956	4	1	1	1	0	1156	1	4	0	136	84	0	1	99
fixed	5	8	2	1039872	1	2	2	1	0	2235	1	4	0	144	85	0	1	99
fixed	5	8	3	1043125	6	4	4	1	0	713	1	4	0	160	86	0	1	99
fixed	5	8	4	1044176	2	1	1	1	0	781	1	4	0	136	87	0	1	99
fixed	5	8	5	1045855	5	3	3	1	0	1046	1	4	0	152	88	0	1	99
fixed	5	8	6	1047532	6	4	4	1	0	711	1	4	0	160	89	0	1	99
fixed	5	8	7	1049097	3	1	1	1	0	885	1	4	0	136	90	0	1	99
fixed	5	8	8	1050926	2	3	3	1	0	1495	1	4	0	152	91	0	1	99
fixed	5	8	9	1053226	3	2	2	2	0	1581	2	4	0	144	92	0	1	99
fixed	5	8	10	1055328	1	4	4	1	0	765	1	4	0	160	93	0	1	99
fixed	5	8	11	1056596	5	2	2	1	0	1007	1	4	0	144	94	0	1	99
fixed	5	8	12	1058095	4	3	3	1	0	871	1	4	0	152	95	0	1	99
fixed	5	9	1	1059794	4	1	1	1	0	1175	1	4	0	136	96	0	1	99
fixed	5	9	2	1061948	1	2	2	1	0	1580	1	4	0	144	97	0	1	99
fixed	5	9	3	1064549	6	4	4	1	0	710	1	4	0	160	98	0	1	99
fixed	5	9	4	1066186	2	1	1	1	0	601	1	4	0	136	99	0	1	99
fixed	5	9	5	1067505	5	3	3	1	0	1073	1	4	0	152	100	0	1	99
fixed	5	9	6	1069600	6	4	4	1	0	672	1	4	0	160	101	0	1	99
fixed	5	9	7	1070798	3	1	1	1	0	677	1	4	0	136	102	0	1	99
fixed	5	9	8	1072131	2	3	3	1	0	1109	1	4	0	152	103	0	1	99
fixed	5	9	9	1074106	3	2	2	1	0	665	1	4	0	144	104	0	1	99
fixed	5	9	10	1075107	1	4	4	1	0	751	1	4	0	160	105	0	1	99
fixed	5	9	11	1076616	5	2	2	1	0	998	1	4	0	144	106	0	1	99
fixed	5	9	12	1078012	4	3	3	1	0	764	1	4	0	152	107	0	1	99
fixed	5	10	1	1080009	4	1	1	1	0	767	1	4	0	136	108	0	1	99
fixed	5	10	2	1081083	1	2	2	1	0	1185	1	4	0	144	109	0	1	99
fixed	5	10	3	1082752	6	4	4	1	0	659	1	4	0	160	110	0	1	99
fixed	5	10	4	1083974	2	1	1	3	0	2463	2	4	0	136	111	0	1	99
fixed	5	10	5	1087330	5	3	3	1	0	1113	1	4	0	152	112	0	1	99
fixed	5	10	6	1089151	6	4	4	1	0	708	1	4	0	160	113	0	1	99
fixed	5	10	7	1090441	3	1	1	1	0	1189	1	4	0	136	114	0	1	99
fixed	5	10	8	1092349	2	3	3	1	0	1325	1	4	0	152	115	0	1	99
fixed	5	10	9	1094348	3	2	2	1	0	712	1	4	0	144	116	0	1	99
fixed	5	10	10	1095725	1	4	4	1	0	1206	1	4	0	160	117	0	1	99
fixed	5	10	11	1097418	5	2	2	1	0	1149	1	4	0	144	118	0	1	99
fixed	5	10	12	1099186	4	3	3	1	0	1115	1	4	0	152	119	0	1	99
random	6	1	1	1191547	6	1	1	1	0	1002	1	4	0	168	1	0	0	100
random	6	1	2	1193469	4	4	4	1	0	689	1	4	0	192	2	0	0	100
random	6	1	3	1194647	2	2	2	1	0	1255	1	4	0	176	3	0	0	100
random	6	1	4	1196682	3	3	3	2	0	1289	2	4	0	184	4	0	0	100
random	6	1	5	1198667	5	2	2	1	0	701	1	4	0	176	5	0	0	100
random	6	1	6	1200036	1	4	4	1	0	675	1	4	0	192	6	0	0	100
random	6	1	7	1201744	6	1	1	1	0	811	1	4	0	168	7	0	0	100
random	6	1	8	1203459	2	3	3	2	0	1635	2	4	0	184	8	0	0	100
random	6	1	9	1206071	4	2	2	1	0	587	1	4	0	176	9	0	0	100
random	6	1	10	1207406	1	1	1	1	0	731	1	4	0	168	10	0	0	100
random	6	1	11	1208773	5	4	4	1	0	761	1	4	0	192	11	0	0	100
random	6	1	12	1210319	3	3	3	1	0	1120	1	4	0	184	12	0	0	100
random	6	1	13	1212334	5	2	2	1	0	842	1	4	0	176	13	0	0	100
random	6	1	14	1213814	1	4	4	1	0	676	1	4	0	192	14	0	0	100
random	6	1	15	1215071	3	1	1	1	0	622	1	4	0	168	15	0	0	100
random	6	1	16	1216411	4	3	3	1	0	1013	1	4	0	184	16	0	0	100
random	6	1	17	1217848	6	4	4	1	0	825	1	4	0	192	17	0	0	100
random	6	1	18	1219041	2	1	1	1	0	774	1	4	0	168	18	0	0	100
random	6	1	19	1220168	5	3	3	1	0	1046	1	4	0	184	19	0	0	100
random	6	1	20	1221917	2	2	2	1	0	749	1	4	0	176	20	0	0	100
random	6	1	21	1222987	3	3	3	1	0	831	1	4	0	184	21	0	0	100
random	6	1	22	1224565	6	1	1	1	0	908	1	4	0	168	22	0	0	100
random	6	1	23	1225946	4	2	2	1	0	978	1	4	0	176	23	0	0	100
random	6	1	24	1227492	1	4	4	1	0	992	1	4	0	192	24	0	0	100
random	6	1	25	1229075	4	3	3	1	0	1397	1	4	0	184	25	0	0	100
random	6	1	26	1231206	2	1	1	1	0	651	1	4	0	168	26	0	0	100
random	6	1	27	1232328	5	2	2	1	0	1548	1	4	0	176	27	0	0	100
random	6	1	28	1234865	6	4	4	1	0	736	1	4	0	192	28	0	0	100
random	6	1	29	1236112	1	3	3	1	0	1219	1	4	0	184	29	0	0	100
random	6	1	30	1238039	5	2	2	1	0	1202	1	4	0	176	30	0	0	100
random	6	1	31	1240205	2	1	1	1	0	526	1	4	0	168	31	0	0	100
random	6	1	32	1241054	3	3	3	1	0	1314	1	4	0	184	32	0	0	100
random	6	1	33	1242764	6	4	4	1	0	713	1	4	0	192	33	0	0	100
random	6	1	34	1244176	4	2	2	1	0	717	1	4	0	176	34	0	0	100
random	6	1	35	1245398	3	4	4	2	0	818	2	4	0	192	35	0	0	100
random	6	1	36	1246789	1	1	1	1	0	679	1	4	0	168	36	0	0	100
random	6	1	37	1248272	3	4	4	1	0	600	1	4	0	192	37	0	0	100
random	6	1	38	1249449	5	3	3	1	0	1014	1	4	0	184	38	0	0	100
random	6	1	39	1250909	6	1	1	1	0	880	1	4	0	168	39	0	0	100
random	6	1	40	1252441	1	2	2	1	0	1272	1	4	0	176	40	0	0	100
random	6	1	41	1254681	2	3	3	1	0	833	1	4	0	184	41	0	0	100
random	6	1	42	1256407	4	4	4	1	0	1671	1	4	0	192	42	0	0	100
random	6	1	43	1258919	1	2	2	1	0	1133	1	4	0	176	43	0	0	100
random	6	1	44	1260749	6	3	3	1	0	1728	1	4	0	184	44	0	0	100
random	6	1	45	1262985	3	1	1	1	0	641	1	4	0	168	45	0	0	100
random	6	1	46	1264446	4	4	4	1	0	963	1	4	0	192	46	0	0	100
random	6	1	47	1266072	2	2	2	1	0	918	1	4	0	176	47	0	0	100
random	6	1	48	1267478	5	1	1	1	0	659	1	4	0	168	48	0	0	100
random	6	1	49	1269374	2	3	3	1	0	1738	1	4	0	184	49	0	0	100
random	6	1	50	1271803	3	1	1	1	0	787	1	4	0	168	50	0	0	100
random	6	1	51	1273249	1	4	4	1	0	902	1	4	0	192	51	0	0	100
random	6	1	52	1275018	5	3	3	1	0	1083	1	4	0	184	52	0	0	100
random	6	1	53	1276737	3	2	2	1	0	747	1	4	0	176	53	0	0	100
random	6	1	54	1278299	6	4	4	1	0	856	1	4	0	192	54	0	0	100
random	6	1	55	1279736	4	2	2	1	0	755	1	4	0	176	55	0	0	100
random	6	1	56	1280994	1	1	1	1	0	830	1	4	0	168	56	0	0	100
random	6	1	57	1282810	5	4	4	1	0	873	1	4	0	192	57	0	0	100
random	6	1	58	1284166	2	1	1	1	0	984	1	4	0	168	58	0	0	100
random	6	1	59	1285461	6	2	2	1	0	1401	1	4	0	176	59	0	0	100
random	6	1	60	1287596	4	3	3	1	0	1551	1	4	0	184	60	0	0	100
random	6	1	61	1289824	1	2	2	1	0	952	1	4	0	176	61	0	0	100
random	6	1	62	1291418	6	4	4	2	0	621	2	4	0	192	62	0	0	100
random	6	1	63	1292553	4	1	1	1	0	517	1	4	0	168	63	0	0	100
random	6	1	64	1293937	2	2	2	1	0	874	1	4	0	176	64	0	0	100
random	6	1	65	1295560	4	3	3	1	0	1525	1	4	0	184	65	0	0	100
random	6	1	66	1297706	3	1	1	1	0	667	1	4	0	168	66	0	0	100
random	6	1	67	1298877	1	3	3	1	0	1416	1	4	0	184	67	0	0	100
random	6	1	68	1300912	5	4	4	2	0	731	2	4	0	192	68	0	0	100
random	6	1	69	1302185	2	2	0	2	2	0	3	4	0	176	68	0	1	99
random	6	1	70	1305349	3	1	1	1	0	878	1	4	0	168	69	0	1	99
random	6	1	71	1306912	5	4	4	1	0	821	1	4	0	192	70	0	1	99
random	6	1	72	1308047	6	3	3	2	0	1701	2	4	0	184	71	0	1	99
random	6	1	73	1310892	2	1	1	1	0	780	1	4	0	168	72	0	1	99
random	6	1	74	1312442	5	3	3	1	0	1378	1	4	0	184	73	0	1	99
random	6	1	75	1314398	1	4	4	1	0	864	1	4	0	192	74	0	1	99
random	6	1	76	1316015	6	2	2	1	0	1043	1	4	0	176	75	0	1	99
random	6	1	77	1317876	2	1	1	1	0	684	1	4	0	168	76	0	1	99
random	6	1	78	1318940	4	4	4	1	0	815	1	4	0	192	77	0	1	99
random	6	1	79	1320153	3	2	2	1	0	1003	1	4	0	176	78	0	1	99
random	6	1	80	1321643	4	3	3	1	0	1156	1	4	0	184	79	0	1	99
random	6	1	81	1323468	1	4	4	1	0	863	1	4	0	192	80	0	1	99
random	6	1	82	1325255	5	1	1	1	0	796	1	4	0	168	81	0	1	99
random	6	1	83	1326544	3	2	2	1	0	1045	1	4	0	176	82	0	1	99
random	6	1	84	1328161	6	3	3	1	0	1273	1	4	0	184	83	0	1	99
random	6	1	85	1330323	3	2	2	1	0	956	1	4	0	176	84	0	1	99
random	6	1	86	1332106	1	3	3	1	0	1961	1	4	0	184	85	0	1	99
random	6	1	87	1334418	4	4	4	1	0	799	1	4	0	192	86	0	1	99
random	6	1	88	1335933	2	1	1	1	0	519	1	4	0	168	87	0	1	99
random	6	1	89	1337239	6	4	4	1	0	712	1	4	0	192	88	0	1	99
random	6	1	90	1338384	3	3	3	1	0	1247	1	4	0	184	89	0	1	99
random	6	1	91	1340038	5	4	4	1	0	993	1	4	0	192	90	0	1	99
random	6	1	92	1341823	1	2	2	1	0	1022	1	4	0	176	91	0	1	99
random	6	1	93	1343166	5	1	1	1	0	749	1	4	0	168	92	0	1	99
random	6	1	94	1344330	4	3	3	1	0	1572	1	4	0	184	93	0	1	99
random	6	1	95	1346597	6	1	1	1	0	667	1	4	0	168	94	0	1	99
random	6	1	96	1348066	2	2	2	1	0	1069	1	4	0	176	95	0	1	99
random	6	1	97	1349771	4	3	0	1	2	0	3	4	0	184	95	0	2	98
random	6	1	98	1353182	3	2	2	1	0	2252	1	4	0	176	96	0	2	98
random	6	1	99	1355804	6	3	3	1	0	1405	1	4	0	184	97	0	2	98
random	6	1	100	1357874	1	4	4	1	0	766	1	4	0	192	98	0	2	98
random	6	1	101	1359159	4	1	1	1	0	823	1	4	0	168	99	0	2	98
random	6	1	102	1360930	5	2	2	1	0	1044	1	4	0	176	100	0	2	98
random	6	1	103	1362679	2	4	4	1	0	819	1	4	0	192	101	0	2	98
random	6	1	104	1363954	3	1	1	1	0	1388	1	4	0	168	102	0	2	98
random	6	1	105	1365960	1	3	3	1	0	1351	1	4	0	184	103	0	2	98
random	6	1	106	1368111	2	2	2	1	0	1260	1	4	0	176	104	0	2	98
random	6	1	107	1370371	5	4	4	1	0	564	1	4	0	192	105	0	2	98
random	6	1	108	1371245	6	1	1	1	0	640	1	4	0	168	106	0	2	98
random	6	1	109	1372711	5	4	4	1	0	769	1	4	0	192	107	0	2	98
random	6	1	110	1373828	6	3	3	1	0	1538	1	4	0	184	108	0	2	98
random	6	1	111	1375695	2	2	2	1	0	739	1	4	0	176	109	0	2	98
random	6	1	112	1377038	3	1	1	1	0	674	1	4	0	168	110	0	2	98
random	6	1	113	1378260	1	2	2	1	0	1358	1	4	0	176	111	0	2	98
random	6	1	114	1380632	2	3	3	1	0	1434	1	4	0	184	112	0	2	98
random	6	1	115	1382571	3	1	1	1	0	728	1	4	0	168	113	0	2	98
random	6	1	116	1383861	4	4	4	1	0	577	1	4	0	192	114	0	2	98
random	6	1	117	1384777	6	1	1	1	0	690	1	4	0	168	115	0	2	98
random	6	1	118	1386070	5	3	3	1	0	1020	1	4	0	184	116	0	2	98
random	6	1	119	1388105	1	4	4	1	0	621	1	4	0	192	117	0	2	98
random	6	1	120	1389203	4	2	2	1	0	743	1	4	0	176	118	0	2	98
fixed	7	1	1	1391287	4	1	1	1	0	710	1	4	0	200	1	0	0	100
fixed	7	1	2	1392693	1	2	2	1	0	1027	1	4	0	208	2	0	0	100
fixed	7	1	3	1394083	6	4	4	1	0	824	1	4	0	224	3	0	0	100
fixed	7	1	4	1395292	2	1	1	1	0	821	1	4	0	200	4	0	0	100
fixed	7	1	5	1396958	5	3	3	1	0	1246	1	4	0	216	5	0	0	100
fixed	7	1	6	1398581	6	4	4	1	0	706	1	4	0	224	6	0	0	100
fixed	7	1	7	1399863	3	1	1	1	0	731	1	4	0	200	7	0	0	100
fixed	7	1	8	1401628	2	3	3	1	0	1185	1	4	0	216	8	0	0	100
fixed	7	1	9	1403532	3	2	2	1	0	768	1	4	0	208	9	0	0	100
fixed	7	1	10	1404961	1	4	4	2	0	851	2	4	0	224	10	0	0	100
fixed	7	1	11	1406528	5	2	2	2	0	2185	2	4	0	208	11	0	0	100
fixed	7	1	12	1409565	4	3	3	1	0	1121	1	4	0	216	12	0	0	100
fixed	7	2	1	1411790	4	1	1	1	0	634	1	4	0	200	1	0	0	8
fixed	7	2	2	1413277	1	2	2	1	0	1283	1	4	0	208	2	0	0	14
fixed	7	2	3	1415323	6	4	4	1	0	693	1	4	0	224	3	0	0	20
fixed	7	2	4	1416543	2	1	1	1	0	825	1	4	0	200	4	0	0	25
fixed	7	2	5	1418159	5	3	3	1	0	1092	1	4	0	216	5	0	0	29
fixed	7	2	6	1420203	6	4	4	1	0	838	1	4	0	224	6	0	0	33
fixed	7	2	7	1422018	3	1	1	1	0	777	1	4	0	200	7	0	0	37
fixed	7	2	8	1423784	2	3	3	1	0	1590	1	4	0	216	8	0	0	40
fixed	7	2	9	1425846	3	2	2	1	0	1447	1	4	0	208	9	0	0	43
fixed	7	2	10	1427921	1	4	4	1	0	1119	1	4	0	224	10	0	0	45
fixed	7	2	11	1429727	5	2	2	1	0	923	1	4	0	208	11	0	0	48
fixed	7	2	12	1431483	4	3	3	1	0	888	1	4	0	216	12	0	0	50
fixed	7	3	1	1432959	4	1	1	1	0	913	1	4	0	200	1	0	0	4
fixed	7	3	2	1434327	1	2	2	1	0	1079	1	4	0	208	2	0	0	8
fixed	7	3	3	1435958	6	4	4	2	0	747	2	4	0	224	3	0	0	11
fixed	7	3	4	1437103	2	1	1	1	0	1002	1	4	0	200	4	0	0	14
fixed	7	3	5	1439066	5	3	3	1	0	1175	1	4	0	216	5	0	0	17
fixed	7	3	6	1440888	6	4	4	2	0	1018	2	4	0	224	6	0	0	20
fixed	7	3	7	1442766	3	1	1	1	0	778	1	4	0	200	7	0	0	23
fixed	7	3	8	1444539	2	3	3	1	0	1455	1	4	0	216	8	0	0	25
fixed	7	3	9	1446766	3	2	2	1	0	1561	1	4	0	208	9	0	0	27
fixed	7	3	10	1448849	1	4	4	1	0	664	1	4	0	224	10	0	0	29
fixed	7	3	11	1449892	5	2	2	1	0	1349	1	4	0	208	11	0	0	31
fixed	7	3	12	1452004	4	3	3	1	0	987	1	4	0	216	12	0	0	33
fixed	7	4	1	1453626	4	1	1	1	0	1118	1	4	0	200	1	0	0	3
fixed	7	4	2	1455101	1	2	2	1	0	976	1	4	0	208	2	0	0	5
fixed	7	4	3	1456550	6	4	4	1	0	714	1	4	0	224	3	0	0	8
fixed	7	4	4	1458163	2	1	1	1	0	734	1	4	0	200	4	0	0	10
fixed	7	4	5	1459574	5	3	3	1	0	1618	1	4	0	216	5	0	0	12
fixed	7	4	6	1461849	6	4	4	1	0	794	1	4	0	224	6	0	0	14
fixed	7	4	7	1463495	3	1	1	1	0	692	1	4	0	200	7	0	0	16
fixed	7	4	8	1465182	2	3	3	1	0	1045	1	4	0	216	8	0	0	18
fixed	7	4	9	1466934	3	2	2	1	0	739	1	4	0	208	9	0	0	20
fixed	7	4	10	1467992	1	4	4	1	0	749	1	4	0	224	10	0	0	22
fixed	7	4	11	1469073	5	2	2	1	0	1248	1	4	0	208	11	0	0	23
fixed	7	4	12	1470742	4	3	3	1	0	865	1	4	0	216	12	0	0	25
fixed	7	5	1	1472222	4	1	1	1	0	1290	1	4	0	200	1	0	0	2
fixed	7	5	2	1474066	1	2	2	3	0	1821	2	4	0	208	2	0	0	4
fixed	7	5	3	1476739	6	4	4	1	0	747	1	4	0	224	3	0	0	6
fixed	7	5	4	1478317	2	1	1	1	0	857	1	4	0	200	4	0	0	8
fixed	7	5	5	1479870	5	3	3	1	0	1335	1	4	0	216	5	0	0	9
fixed	7	5	6	1482052	6	4	4	1	0	722	1	4	0	224	6	0	0	11
fixed	7	5	7	1483149	3	1	1	1	0	995	1	4	0	200	7	0	0	13
fixed	7	5	8	1484444	2	3	3	1	0	1197	1	4	0	216	8	0	0	14
fixed	7	5	9	1486082	3	2	2	1	0	664	1	4	0	208	9	0	0	16
fixed	7	5	10	1487273	1	4	4	1	0	645	1	4	0	224	10	0	0	17
fixed	7	5	11	1488856	5	2	2	1	0	1170	1	4	0	208	11	0	0	19
fixed	7	5	12	1490822	4	3	3	1	0	847	1	4	0	216	12	0	0	20
fixed	7	6	1	1492555	4	1	1	1	0	1181	1	4	0	200	1	0	0	2
fixed	7	6	2	1494160	1	2	2	1	0	889	1	4	0	208	2	0	0	3
fixed	7	6	3	1495940	6	4	4	1	0	702	1	4	0	224	3	0	0	5
fixed	7	6	4	1497523	2	1	1	2	0	1563	2	4	0	200	4	0	0	6
fixed	7	6	5	1499593	5	3	3	1	0	1355	1	4	0	216	5	0	0	8
fixed	7	6	6	1501295	6	4	4	1	0	675	1	4	0	224	6	0	0	9
fixed	7	6	7	1502480	3	1	1	1	0	745	1	4	0	200	7	0	0	10
fixed	7	6	8	1503995	2	3	3	1	0	1313	1	4	0	216	8	0	0	12
fixed	7	6	9	1506235	3	2	2	1	0	634	1	4	0	208	9	0	0	13
fixed	7	6	10	1507891	1	4	4	1	0	732	1	4	0	224	10	0	0	14
fixed	7	6	11	1509224	5	2	2	1	0	1012	1	4	0	208	11	0	0	15
fixed	7	6	12	1510683	4	3	3	1	0	1429	1	4	0	216	12	0	0	17
fixed	7	7	1	1512704	4	1	1	1	0	728	1	4	0	200	1	0	0	1
fixed	7	7	2	1514260	1	2	2	1	0	1182	1	4	0	208	2	0	0	3
fixed	7	7	3	1516203	6	4	4	1	0	1076	1	4	0	224	3	0	0	4
fixed	7	7	4	1517572	2	1	1	1	0	746	1	4	0	200	4	0	0	5
fixed	7	7	5	1518724	5	3	3	1	0	1009	1	4	0	216	5	0	0	6
fixed	7	7	6	1520239	6	4	4	1	0	697	1	4	0	224	6	0	0	8
fixed	7	7	7	1521829	3	1	1	1	0	478	1	4	0	200	7	0	0	9
fixed	7	7	8	1522884	2	3	3	1	0	1009	1	4	0	216	8	0	0	10
fixed	7	7	9	1524753	3	2	2	1	0	753	1	4	0	208	9	0	0	11
fixed	7	7	10	1526482	1	4	4	1	0	561	1	4	0	224	10	0	0	12
fixed	7	7	11	1527734	5	2	2	1	0	900	1	4	0	208	11	0	0	13
fixed	7	7	12	1529311	4	3	3	1	0	1280	1	4	0	216	12	0	0	14
fixed	7	8	1	1531384	4	1	1	1	0	841	1	4	0	200	1	0	0	1
fixed	7	8	2	1532763	1	2	2	1	0	1102	1	4	0	208	2	0	0	2
fixed	7	8	3	1534608	6	4	4	1	0	648	1	4	0	224	3	0	0	3
fixed	7	8	4	1535726	2	1	1	1	0	689	1	4	0	200	4	0	0	5
fixed	7	8	5	1537324	5	3	3	1	0	1021	1	4	0	216	5	0	0	6
fixed	7	8	6	1538813	6	4	4	1	0	806	1	4	0	224	6	0	0	7
fixed	7	8	7	1540556	3	1	1	1	0	748	1	4	0	200	7	0	0	8
fixed	7	8	8	1542218	2	3	3	1	0	1582	1	4	0	216	8	0	0	9
fixed	7	8	9	1544517	3	2	2	1	0	796	1	4	0	208	9	0	0	10
fixed	7	8	10	1545937	1	4	4	1	0	680	1	4	0	224	10	0	0	11
fixed	7	8	11	1547019	5	2	2	1	0	1058	1	4	0	208	11	0	0	12
fixed	7	8	12	1548949	4	3	3	2	0	1601	2	4	0	216	12	0	0	13
fixed	7	9	1	1551416	4	1	1	1	0	584	1	4	0	200	1	0	0	1
fixed	7	9	2	1552838	1	2	2	1	0	1140	1	4	0	208	2	0	0	2
fixed	7	9	3	1554319	6	4	4	1	0	942	1	4	0	224	3	0	0	3
fixed	7	9	4	1556011	2	1	1	1	0	797	1	4	0	200	4	0	0	4
fixed	7	9	5	1557343	5	3	3	1	0	1070	1	4	0	216	5	0	0	5
fixed	7	9	6	1558909	6	4	4	1	0	755	1	4	0	224	6	0	0	6
fixed	7	9	7	1560026	3	1	1	1	0	636	1	4	0	200	7	0	0	7
fixed	7	9	8	1561579	2	3	3	1	0	1266	1	4	0	216	8	0	0	8
fixed	7	9	9	1563683	3	2	0	2	2	0	3	4	0	208	8	0	1	8
fixed	7	9	10	1566910	1	4	4	2	0	1272	2	4	0	224	9	0	1	8
fixed	7	9	11	1568529	5	2	2	1	0	931	1	4	0	208	10	0	1	9
fixed	7	9	12	1570356	4	3	3	2	0	1302	2	4	0	216	11	0	1	10
fixed	7	10	1	1572568	4	1	1	1	0	656	1	4	0	200	1	0	0	1
fixed	7	10	2	1573536	1	2	2	1	0	1143	1	4	0	208	2	0	0	2
fixed	7	10	3	1575399	6	4	4	1	0	625	1	4	0	224	3	0	0	3
fixed	7	10	4	1576404	2	1	1	1	0	590	1	4	0	200	4	0	0	4
fixed	7	10	5	1577560	5	3	3	1	0	1093	1	4	0	216	5	0	0	4
fixed	7	10	6	1579666	6	4	4	1	0	828	1	4	0	224	6	0	0	5
fixed	7	10	7	1580899	3	1	1	2	0	840	2	4	0	200	7	0	0	6
fixed	7	10	8	1582766	2	3	3	1	0	1448	1	4	0	216	8	0	0	7
fixed	7	10	9	1584931	3	2	2	1	0	780	1	4	0	208	9	0	0	8
fixed	7	10	10	1586309	1	4	4	1	0	826	1	4	0	224	10	0	0	8
fixed	7	10	11	1587458	5	2	2	1	0	1530	1	4	0	208	11	0	0	9
fixed	7	10	12	1589497	4	3	3	1	0	1315	1	4	0	216	12	0	0	10
