type	block	sequ.	trial	time	Pos.	Color	Button	NumRsp	Resp_1	RT_1	R_Code	Resp_2	RT_2	Trigg.	n_hit	n_inc	n_miss	score_%

random	1	1	1	2220	6	1	1	1	0	962	1	4	0	8	1	0	0	100
random	1	1	2	3818	4	4	4	1	0	775	1	4	0	32	2	0	0	100
random	1	1	3	4978	2	2	2	1	0	1397	1	4	0	16	3	0	0	100
random	1	1	4	7253	3	3	3	1	0	821	1	4	0	24	4	0	0	100
random	1	1	5	8907	5	2	2	1	0	887	1	4	0	16	5	0	0	100
random	1	1	6	10579	1	4	4	1	0	584	1	4	0	32	6	0	0	100
random	1	1	7	12093	6	1	1	1	0	608	1	4	0	8	7	0	0	100
random	1	1	8	13077	2	3	3	1	0	1367	1	4	0	24	8	0	0	100
random	1	1	9	14883	4	2	2	1	0	490	1	4	0	16	9	0	0	100
random	1	1	10	15909	1	1	1	1	0	734	1	4	0	8	10	0	0	100
random	1	1	11	17593	5	4	4	1	0	791	1	4	0	32	11	0	0	100
random	1	1	12	19133	3	3	3	1	0	990	1	4	0	24	12	0	0	100
random	1	1	13	21084	5	2	2	1	0	883	1	4	0	16	13	0	0	100
random	1	1	14	22647	1	4	4	1	0	681	1	4	0	32	14	0	0	100
random	1	1	15	24035	3	1	1	1	0	559	1	4	0	8	15	0	0	100
random	1	1	16	24902	4	3	3	1	0	1002	1	4	0	24	16	0	0	100
random	1	1	17	26376	6	4	4	1	0	659	1	4	0	32	17	0	0	100
random	1	1	18	27657	2	1	1	1	0	653	1	4	0	8	18	0	0	100
random	1	1	19	29076	5	3	3	1	0	769	1	4	0	24	19	0	0	100
random	1	1	20	30654	2	2	2	1	0	710	1	4	0	16	20	0	0	100
random	1	1	21	31709	3	3	3	1	0	697	1	4	0	24	21	0	0	100
random	1	1	22	32946	6	1	1	1	0	709	1	4	0	8	22	0	0	100
random	1	1	23	34634	4	2	2	1	0	941	1	4	0	16	23	0	0	100
random	1	1	24	35975	1	4	4	1	0	621	1	4	0	32	24	0	0	100
random	1	1	25	37609	4	3	3	1	0	1047	1	4	0	24	25	0	0	100
random	1	1	26	39583	2	1	1	1	0	588	1	4	0	8	26	0	0	100
random	1	1	27	41084	5	2	2	1	0	1028	1	4	0	16	27	0	0	100
random	1	1	28	43079	6	4	4	1	0	632	1	4	0	32	28	0	0	100
random	1	1	29	44653	1	3	3	1	0	901	1	4	0	24	29	0	0	100
random	1	1	30	46428	5	2	2	1	0	802	1	4	0	16	30	0	0	100
random	1	1	31	47856	2	1	1	1	0	669	1	4	0	8	31	0	0	100
random	1	1	32	49448	3	3	3	1	0	978	1	4	0	24	32	0	0	100
random	1	1	33	50860	6	4	4	1	0	678	1	4	0	32	33	0	0	100
random	1	1	34	52576	4	2	2	1	0	869	1	4	0	16	34	0	0	100
random	1	1	35	53947	3	4	4	1	0	699	1	4	0	32	35	0	0	100
random	1	1	36	55592	1	1	1	1	0	782	1	4	0	8	36	0	0	100
random	1	1	37	57207	3	4	4	1	0	713	1	4	0	32	37	0	0	100
random	1	1	38	58346	5	3	3	1	0	929	1	4	0	24	38	0	0	100
random	1	1	39	60236	6	1	1	1	0	609	1	4	0	8	39	0	0	100
random	1	1	40	61728	1	2	2	1	0	1018	1	4	0	16	40	0	0	100
random	1	1	41	63739	2	3	3	1	0	1084	1	4	0	24	41	0	0	100
random	1	1	42	65269	4	4	4	1	0	660	1	4	0	32	42	0	0	100
random	1	1	43	66647	1	2	2	1	0	937	1	4	0	16	43	0	0	100
random	1	1	44	67966	6	3	3	1	0	1425	1	4	0	24	44	0	0	100
random	1	1	45	70098	3	1	1	1	0	760	1	4	0	8	45	0	0	100
random	1	1	46	71886	4	4	4	1	0	532	1	4	0	32	46	0	0	100
random	1	1	47	73442	2	2	2	1	0	1162	1	4	0	16	47	0	0	100
random	1	1	48	75412	5	1	1	1	0	694	1	4	0	8	48	0	0	100
random	1	1	49	76740	2	3	3	1	0	942	1	4	0	24	49	0	0	100
random	1	1	50	78140	3	1	0	1	2	0	3	4	0	8	49	0	1	98
random	1	1	51	81256	1	4	4	1	0	663	1	4	0	32	50	0	1	98
random	1	1	52	82221	5	3	3	2	0	1174	2	4	0	24	51	0	1	98
random	1	1	53	83828	3	2	2	1	0	610	1	4	0	16	52	0	1	98
random	1	1	54	85358	6	4	4	1	0	681	1	4	0	32	53	0	1	98
random	1	1	55	86716	4	2	2	1	0	863	1	4	0	16	54	0	1	98
random	1	1	56	88099	1	1	1	1	0	725	1	4	0	8	55	0	1	98
random	1	1	57	89600	5	4	4	1	0	710	1	4	0	32	56	0	1	98
random	1	1	58	90753	2	1	1	1	0	821	1	4	0	8	57	0	1	98
random	1	1	59	92078	6	2	2	1	0	1012	1	4	0	16	58	0	1	98
random	1	1	60	93931	4	3	3	1	0	982	1	4	0	24	59	0	1	98
random	1	1	61	95484	1	2	2	1	0	908	1	4	0	16	60	0	1	98
random	1	1	62	97071	6	4	4	1	0	689	1	4	0	32	61	0	1	98
random	1	1	63	98772	4	1	1	1	0	457	1	4	0	8	62	0	1	98
random	1	1	64	100139	2	2	2	1	0	991	1	4	0	16	63	0	1	98
random	1	1	65	101634	4	3	3	1	0	647	1	4	0	24	64	0	1	98
random	1	1	66	102592	3	1	1	1	0	823	1	4	0	8	65	0	1	98
random	1	1	67	103728	1	3	0	2	2	0	3	4	0	24	65	0	2	97
random	1	1	68	107039	5	4	4	1	0	723	1	4	0	32	66	0	2	97
random	1	1	69	108056	2	2	0	1	2	0	3	4	0	16	66	0	3	96
random	1	1	70	111001	3	1	1	1	0	675	1	4	0	8	67	0	3	96
random	1	1	71	112116	5	4	4	1	0	572	1	4	0	32	68	0	3	96
random	1	1	72	113498	6	3	3	1	0	809	1	4	0	24	69	0	3	96
random	1	1	73	115417	2	1	1	1	0	824	1	4	0	8	70	0	3	96
random	1	1	74	116993	5	3	3	1	0	1325	1	4	0	24	71	0	3	96
random	1	1	75	118684	1	4	4	1	0	782	1	4	0	32	72	0	3	96
random	1	1	76	119897	6	2	2	1	0	1034	1	4	0	16	73	0	3	96
random	1	1	77	121511	2	1	1	1	0	686	1	4	0	8	74	0	3	96
random	1	1	78	122702	4	4	4	1	0	731	1	4	0	32	75	0	3	96
random	1	1	79	124154	3	2	2	1	0	1006	1	4	0	16	76	0	3	96
random	1	1	80	125963	4	3	3	1	0	1601	1	4	0	24	77	0	3	96
random	1	1	81	128589	1	4	4	1	0	746	1	4	0	32	78	0	3	96
random	1	1	82	130312	5	1	1	1	0	617	1	4	0	8	79	0	3	96
random	1	1	83	131665	3	2	2	1	0	800	1	4	0	16	80	0	3	96
random	1	1	84	133196	6	3	3	1	0	1183	1	4	0	24	81	0	3	96
random	1	1	85	135650	3	2	2	1	0	1039	1	4	0	16	82	0	3	96
random	1	1	86	137509	1	3	3	1	0	1328	1	4	0	24	83	0	3	97
random	1	1	87	139453	4	4	4	1	0	966	1	4	0	32	84	0	3	97
random	1	1	88	141174	2	1	1	1	0	605	1	4	0	8	85	0	3	97
random	1	1	89	142153	6	4	4	1	0	803	1	4	0	32	86	0	3	97
random	1	1	90	143517	3	3	3	1	0	1017	1	4	0	24	87	0	3	97
random	1	1	91	144919	5	4	4	1	0	767	1	4	0	32	88	0	3	97
random	1	1	92	146242	1	2	2	1	0	1046	1	4	0	16	89	0	3	97
random	1	1	93	148149	5	1	1	1	0	605	1	4	0	8	90	0	3	97
random	1	1	94	149783	4	3	3	1	0	984	1	4	0	24	91	0	3	97
random	1	1	95	151075	6	1	1	1	0	689	1	4	0	8	92	0	3	97
random	1	1	96	152081	2	2	2	1	0	1111	1	4	0	16	93	0	3	97
random	1	1	97	154396	4	3	3	1	0	1365	1	4	0	24	94	0	3	97
random	1	1	98	156246	3	2	2	1	0	1023	1	4	0	16	95	0	3	97
random	1	1	99	157646	6	3	3	1	0	1187	1	4	0	24	96	0	3	97
random	1	1	100	159306	1	4	4	1	0	637	1	4	0	32	97	0	3	97
random	1	1	101	160876	4	1	1	1	0	634	1	4	0	8	98	0	3	97
random	1	1	102	162230	5	2	2	1	0	993	1	4	0	16	99	0	3	97
random	1	1	103	163843	2	4	4	1	0	701	1	4	0	32	100	0	3	97
random	1	1	104	165458	3	1	1	1	0	768	1	4	0	8	101	0	3	97
random	1	1	105	167098	1	3	3	1	0	1171	1	4	0	24	102	0	3	97
random	1	1	106	168866	2	2	2	1	0	912	1	4	0	16	103	0	3	97
random	1	1	107	170358	5	4	4	1	0	1049	1	4	0	32	104	0	3	97
random	1	1	108	171858	6	1	1	1	0	937	1	4	0	8	105	0	3	97
random	1	1	109	173659	5	4	4	1	0	829	1	4	0	32	106	0	3	97
random	1	1	110	175026	6	3	3	1	0	1035	1	4	0	24	107	0	3	97
random	1	1	111	176367	2	2	2	1	0	706	1	4	0	16	108	0	3	97
random	1	1	112	178078	3	1	1	1	0	762	1	4	0	8	109	0	3	97
random	1	1	113	179677	1	2	2	2	0	1222	2	4	0	16	110	0	3	97
random	1	1	114	181227	2	3	3	1	0	820	1	4	0	24	111	0	3	97
random	1	1	115	182647	3	1	1	1	0	672	1	4	0	8	112	0	3	97
random	1	1	116	183973	4	4	4	1	0	544	1	4	0	32	113	0	3	97
random	1	1	117	185553	6	1	1	1	0	709	1	4	0	8	114	0	3	97
random	1	1	118	186959	5	3	0	0	2	0	3	4	0	24	114	0	4	97
random	1	1	119	190339	1	4	4	1	0	658	1	4	0	32	115	0	4	97
random	1	1	120	191944	4	2	2	1	0	1535	1	4	0	16	116	0	4	97
fixed	2	1	1	194726	4	1	1	1	0	1096	1	4	0	40	1	0	0	100
fixed	2	1	2	196131	1	2	2	1	0	1045	1	4	0	48	2	0	0	100
fixed	2	1	3	198101	6	4	4	1	0	673	1	4	0	64	3	0	0	100
fixed	2	1	4	199493	2	1	1	1	0	735	1	4	0	40	4	0	0	100
fixed	2	1	5	200764	5	3	3	1	0	929	1	4	0	56	5	0	0	100
fixed	2	1	6	202223	6	4	4	1	0	723	1	4	0	64	6	0	0	100
fixed	2	1	7	203798	3	1	1	1	0	704	1	4	0	40	7	0	0	100
fixed	2	1	8	205471	2	3	3	1	0	1097	1	4	0	56	8	0	0	100
fixed	2	1	9	207207	3	2	2	1	0	744	1	4	0	48	9	0	0	100
fixed	2	1	10	208474	1	4	4	1	0	811	1	4	0	64	10	0	0	100
fixed	2	1	11	209903	5	2	2	1	0	1070	1	4	0	48	11	0	0	100
fixed	2	1	12	211631	4	3	3	1	0	1069	1	4	0	56	12	0	0	100
fixed	2	2	1	213323	4	1	1	1	0	549	1	4	0	40	13	0	0	100
fixed	2	2	2	214320	1	2	2	1	0	995	1	4	0	48	14	0	0	100
fixed	2	2	3	215805	6	4	4	1	0	668	1	4	0	64	15	0	0	100
fixed	2	2	4	217037	2	1	1	1	0	1200	1	4	0	40	16	0	0	100
fixed	2	2	5	218588	5	3	3	1	0	958	1	4	0	56	17	0	0	100
fixed	2	2	6	219911	6	4	4	1	0	638	1	4	0	64	18	0	0	100
fixed	2	2	7	221049	3	1	1	1	0	798	1	4	0	40	19	0	0	100
fixed	2	2	8	222772	2	3	3	1	0	1077	1	4	0	56	20	0	0	100
fixed	2	2	9	224864	3	2	2	1	0	740	1	4	0	48	21	0	0	100
fixed	2	2	10	226556	1	4	4	1	0	708	1	4	0	64	22	0	0	100
fixed	2	2	11	227672	5	2	2	1	0	1069	1	4	0	48	23	0	0	100
fixed	2	2	12	229568	4	3	3	1	0	1165	1	4	0	56	24	0	0	100
fixed	2	3	1	232003	4	1	1	1	0	766	1	4	0	40	25	0	0	100
fixed	2	3	2	233351	1	2	2	1	0	1189	1	4	0	48	26	0	0	100
fixed	2	3	3	235569	6	4	4	1	0	631	1	4	0	64	27	0	0	100
fixed	2	3	4	236648	2	1	1	1	0	697	1	4	0	40	28	0	0	100
fixed	2	3	5	237804	5	3	3	1	0	864	1	4	0	56	29	0	0	100
fixed	2	3	6	239687	6	4	4	1	0	752	1	4	0	64	30	0	0	100
fixed	2	3	7	240931	3	1	1	1	0	1004	1	4	0	40	31	0	0	100
fixed	2	3	8	242821	2	3	3	1	0	1220	1	4	0	56	32	0	0	100
fixed	2	3	9	244573	3	2	2	1	0	969	1	4	0	48	33	0	0	100
fixed	2	3	10	245931	1	4	4	1	0	808	1	4	0	64	34	0	0	100
fixed	2	3	11	247174	5	2	2	1	0	955	1	4	0	48	35	0	0	100
fixed	2	3	12	248501	4	3	3	1	0	739	1	4	0	56	36	0	0	100
fixed	2	4	1	250348	4	1	1	1	0	973	1	4	0	40	37	0	0	100
fixed	2	4	2	251622	1	2	2	2	0	2367	2	4	0	48	38	0	0	100
fixed	2	4	3	254834	6	4	4	1	0	751	1	4	0	64	39	0	0	100
fixed	2	4	4	255949	2	1	1	1	0	968	1	4	0	40	40	0	0	100
fixed	2	4	5	257715	5	3	3	1	0	988	1	4	0	56	41	0	0	100
fixed	2	4	6	259056	6	4	4	1	0	764	1	4	0	64	42	0	0	100
fixed	2	4	7	260817	3	1	1	1	0	962	1	4	0	40	43	0	0	100
fixed	2	4	8	262627	2	3	3	1	0	1244	1	4	0	56	44	0	0	100
fixed	2	4	9	264735	3	2	2	1	0	731	1	4	0	48	45	0	0	100
fixed	2	4	10	265841	1	4	4	1	0	557	1	4	0	64	46	0	0	100
fixed	2	4	11	267374	5	2	2	1	0	1027	1	4	0	48	47	0	0	100
fixed	2	4	12	269379	4	3	3	1	0	1023	1	4	0	56	48	0	0	100
fixed	2	5	1	271383	4	1	1	1	0	1090	1	4	0	40	49	0	0	100
fixed	2	5	2	273366	1	2	2	1	0	998	1	4	0	48	50	0	0	100
fixed	2	5	3	275374	6	4	4	1	0	745	1	4	0	64	51	0	0	100
fixed	2	5	4	276702	2	1	1	1	0	1193	1	4	0	40	52	0	0	100
fixed	2	5	5	278884	5	3	3	1	0	908	1	4	0	56	53	0	0	100
fixed	2	5	6	280705	6	4	4	1	0	671	1	4	0	64	54	0	0	100
fixed	2	5	7	282389	3	1	1	1	0	816	1	4	0	40	55	0	0	100
fixed	2	5	8	284077	2	3	3	1	0	1049	1	4	0	56	56	0	0	100
fixed	2	5	9	285954	3	2	2	1	0	985	1	4	0	48	57	0	0	100
fixed	2	5	10	287597	1	4	4	1	0	675	1	4	0	64	58	0	0	100
fixed	2	5	11	288790	5	2	2	1	0	1000	1	4	0	48	59	0	0	100
fixed	2	5	12	290487	4	3	3	1	0	1345	1	4	0	56	60	0	0	100
fixed	2	6	1	292735	4	1	1	1	0	729	1	4	0	40	61	0	0	100
fixed	2	6	2	293802	1	2	2	1	0	1012	1	4	0	48	62	0	0	100
fixed	2	6	3	295448	6	4	4	1	0	623	1	4	0	64	63	0	0	100
fixed	2	6	4	296899	2	1	1	1	0	641	1	4	0	40	64	0	0	100
fixed	2	6	5	297932	5	3	3	1	0	853	1	4	0	56	65	0	0	100
fixed	2	6	6	299482	6	4	4	1	0	691	1	4	0	64	66	0	0	100
fixed	2	6	7	301018	3	1	1	1	0	739	1	4	0	40	67	0	0	100
fixed	2	6	8	302320	2	3	3	1	0	1180	1	4	0	56	68	0	0	100
fixed	2	6	9	304053	3	2	2	1	0	578	1	4	0	48	69	0	0	100
fixed	2	6	10	305575	1	4	4	1	0	706	1	4	0	64	70	0	0	100
fixed	2	6	11	307313	5	2	2	2	0	2344	2	4	0	48	71	0	0	100
fixed	2	6	12	310399	4	3	3	1	0	773	1	4	0	56	72	0	0	100
fixed	2	7	1	311798	4	1	1	1	0	1058	1	4	0	40	73	0	0	100
fixed	2	7	2	313887	1	2	2	1	0	1129	1	4	0	48	74	0	0	100
fixed	2	7	3	315684	6	4	4	1	0	662	1	4	0	64	75	0	0	100
fixed	2	7	4	317309	2	1	1	1	0	993	1	4	0	40	76	0	0	100
fixed	2	7	5	318806	5	3	3	1	0	993	1	4	0	56	77	0	0	100
fixed	2	7	6	320507	6	4	4	1	0	633	1	4	0	64	78	0	0	100
fixed	2	7	7	321557	3	1	1	1	0	900	1	4	0	40	79	0	0	100
fixed	2	7	8	323155	2	3	3	1	0	1369	1	4	0	56	80	0	0	100
fixed	2	7	9	324889	3	2	2	1	0	536	1	4	0	48	81	0	0	100
fixed	2	7	10	325976	1	4	4	1	0	674	1	4	0	64	82	0	0	100
fixed	2	7	11	327663	5	2	2	1	0	1002	1	4	0	48	83	0	0	100
fixed	2	7	12	329466	4	3	3	1	0	1150	1	4	0	56	84	0	0	100
fixed	2	8	1	331664	4	1	1	1	0	664	1	4	0	40	85	0	0	100
fixed	2	8	2	333144	1	2	2	1	0	1058	1	4	0	48	86	0	0	100
fixed	2	8	3	334775	6	4	4	1	0	669	1	4	0	64	87	0	0	100
fixed	2	8	4	336180	2	1	1	1	0	793	1	4	0	40	88	0	0	100
fixed	2	8	5	337450	5	3	3	1	0	844	1	4	0	56	89	0	0	100
fixed	2	8	6	339262	6	4	4	1	0	663	1	4	0	64	90	0	0	100
fixed	2	8	7	340527	3	1	1	1	0	665	1	4	0	40	91	0	0	100
fixed	2	8	8	342136	2	3	3	1	0	1325	1	4	0	56	92	0	0	100
fixed	2	8	9	344339	3	2	2	1	0	584	1	4	0	48	93	0	0	100
fixed	2	8	10	345276	1	4	4	1	0	720	1	4	0	64	94	0	0	100
fixed	2	8	11	346583	5	2	2	1	0	992	1	4	0	48	95	0	0	100
fixed	2	8	12	348377	4	3	3	1	0	1053	1	4	0	56	96	0	0	100
fixed	2	9	1	350727	4	1	1	1	0	745	1	4	0	40	97	0	0	100
fixed	2	9	2	352488	1	2	2	1	0	1111	1	4	0	48	98	0	0	100
fixed	2	9	3	354154	6	4	4	1	0	800	1	4	0	64	99	0	0	100
fixed	2	9	4	355815	2	1	1	2	0	1850	2	4	0	40	100	0	0	100
fixed	2	9	5	358234	5	3	3	1	0	1283	1	4	0	56	101	0	0	100
fixed	2	9	6	360318	6	4	4	1	0	619	1	4	0	64	102	0	0	100
fixed	2	9	7	361654	3	1	1	1	0	866	1	4	0	40	103	0	0	100
fixed	2	9	8	362922	2	3	3	1	0	1036	1	4	0	56	104	0	0	100
fixed	2	9	9	364439	3	2	2	1	0	813	1	4	0	48	105	0	0	100
fixed	2	9	10	366176	1	4	4	1	0	731	1	4	0	64	106	0	0	100
fixed	2	9	11	367899	5	2	2	1	0	906	1	4	0	48	107	0	0	100
fixed	2	9	12	369207	4	3	3	1	0	850	1	4	0	56	108	0	0	100
fixed	2	10	1	370726	4	1	1	1	0	602	1	4	0	40	109	0	0	100
fixed	2	10	2	371973	1	2	2	1	0	981	1	4	0	48	110	0	0	100
fixed	2	10	3	373808	6	4	4	1	0	640	1	4	0	64	111	0	0	100
fixed	2	10	4	375365	2	1	1	1	0	726	1	4	0	40	112	0	0	100
fixed	2	10	5	376751	5	3	3	1	0	907	1	4	0	56	113	0	0	100
fixed	2	10	6	378136	6	4	4	1	0	744	1	4	0	64	114	0	0	100
fixed	2	10	7	379761	3	1	1	1	0	900	1	4	0	40	115	0	0	100
fixed	2	10	8	380971	2	3	3	1	0	1096	1	4	0	56	116	0	0	100
fixed	2	10	9	382498	3	2	2	1	0	680	1	4	0	48	117	0	0	100
fixed	2	10	10	384043	1	4	4	1	0	662	1	4	0	64	118	0	0	100
fixed	2	10	11	385713	5	2	2	1	0	999	1	4	0	48	119	0	0	100
fixed	2	10	12	387612	4	3	3	1	0	1087	1	4	0	56	120	0	0	100
fixed	3	1	1	389587	4	1	1	1	0	1115	1	4	0	72	1	0	0	100
fixed	3	1	2	391337	1	2	2	1	0	1121	1	4	0	80	2	0	0	100
fixed	3	1	3	393332	6	4	4	1	0	740	1	4	0	96	3	0	0	100
fixed	3	1	4	394927	2	1	1	1	0	1105	1	4	0	72	4	0	0	100
fixed	3	1	5	396630	5	3	3	1	0	801	1	4	0	88	5	0	0	100
fixed	3	1	6	398228	6	4	4	1	0	637	1	4	0	96	6	0	0	100
fixed	3	1	7	399213	3	1	1	1	0	659	1	4	0	72	7	0	0	100
fixed	3	1	8	400539	2	3	3	1	0	1011	1	4	0	88	8	0	0	100
fixed	3	1	9	402043	3	2	2	1	0	500	1	4	0	80	9	0	0	100
fixed	3	1	10	402855	1	4	4	1	0	681	1	4	0	96	10	0	0	100
fixed	3	1	11	403843	5	2	2	1	0	1191	1	4	0	80	11	0	0	100
fixed	3	1	12	405554	4	3	3	1	0	887	1	4	0	88	12	0	0	100
fixed	3	2	1	407517	4	1	1	1	0	844	1	4	0	72	13	0	0	100
fixed	3	2	2	408918	1	2	2	1	0	936	1	4	0	80	14	0	0	100
fixed	3	2	3	410254	6	4	4	1	0	592	1	4	0	96	15	0	0	100
fixed	3	2	4	411448	2	1	1	1	0	773	1	4	0	72	16	0	0	100
fixed	3	2	5	412942	5	3	3	1	0	854	1	4	0	88	17	0	0	100
fixed	3	2	6	414163	6	4	4	1	0	675	1	4	0	96	18	0	0	100
fixed	3	2	7	415487	3	1	1	1	0	802	1	4	0	72	19	0	0	100
fixed	3	2	8	416664	2	3	3	1	0	1193	1	4	0	88	20	0	0	100
fixed	3	2	9	418268	3	2	2	1	0	661	1	4	0	80	21	0	0	100
fixed	3	2	10	419234	1	4	4	1	0	700	1	4	0	96	22	0	0	100
fixed	3	2	11	420763	5	2	2	1	0	970	1	4	0	80	23	0	0	100
fixed	3	2	12	422676	4	3	3	1	0	1010	1	4	0	88	24	0	0	100
fixed	3	3	1	424341	4	1	1	1	0	827	1	4	0	72	25	0	0	100
fixed	3	3	2	426059	1	2	2	1	0	939	1	4	0	80	26	0	0	100
fixed	3	3	3	427584	6	4	4	1	0	738	1	4	0	96	27	0	0	100
fixed	3	3	4	428789	2	1	1	1	0	1015	1	4	0	72	28	0	0	100
fixed	3	3	5	430132	5	3	3	1	0	934	1	4	0	88	29	0	0	100
fixed	3	3	6	431428	6	4	4	1	0	919	1	4	0	96	30	0	0	100
fixed	3	3	7	433159	3	1	1	1	0	646	1	4	0	72	31	0	0	100
fixed	3	3	8	434092	2	3	3	1	0	1078	1	4	0	88	32	0	0	100
fixed	3	3	9	435521	3	2	2	1	0	746	1	4	0	80	33	0	0	100
fixed	3	3	10	437154	1	4	4	1	0	708	1	4	0	96	34	0	0	100
fixed	3	3	11	438812	5	2	2	1	0	990	1	4	0	80	35	0	0	100
fixed	3	3	12	440819	4	3	3	1	0	881	1	4	0	88	36	0	0	100
fixed	3	4	1	442553	4	1	1	1	0	688	1	4	0	72	37	0	0	100
fixed	3	4	2	443845	1	2	2	1	0	953	1	4	0	80	38	0	0	100
fixed	3	4	3	445649	6	4	4	1	0	549	1	4	0	96	39	0	0	100
fixed	3	4	4	446669	2	1	1	1	0	1314	1	4	0	72	40	0	0	100
fixed	3	4	5	448625	5	3	3	1	0	1351	1	4	0	88	41	0	0	100
fixed	3	4	6	450878	6	4	4	1	0	695	1	4	0	96	42	0	0	100
fixed	3	4	7	452538	3	1	1	1	0	689	1	4	0	72	43	0	0	100
fixed	3	4	8	454051	2	3	3	1	0	1025	1	4	0	88	44	0	0	100
fixed	3	4	9	455951	3	2	2	1	0	768	1	4	0	80	45	0	0	100
fixed	3	4	10	457384	1	4	4	1	0	700	1	4	0	96	46	0	0	100
fixed	3	4	11	458845	5	2	2	1	0	1046	1	4	0	80	47	0	0	100
fixed	3	4	12	460755	4	3	3	1	0	869	1	4	0	88	48	0	0	100
fixed	3	5	1	462418	4	1	1	1	0	750	1	4	0	72	49	0	0	100
fixed	3	5	2	463958	1	2	2	1	0	1117	1	4	0	80	50	0	0	100
fixed	3	5	3	465896	6	4	4	1	0	651	1	4	0	96	51	0	0	100
fixed	3	5	4	467332	2	1	1	1	0	998	1	4	0	72	52	0	0	100
fixed	3	5	5	469030	5	3	3	1	0	943	1	4	0	88	53	0	0	100
fixed	3	5	6	470360	6	4	4	1	0	734	1	4	0	96	54	0	0	100
fixed	3	5	7	471496	3	1	1	1	0	694	1	4	0	72	55	0	0	100
fixed	3	5	8	472895	2	3	3	1	0	1347	1	4	0	88	56	0	0	100
fixed	3	5	9	474901	3	2	2	1	0	790	1	4	0	80	57	0	0	100
fixed	3	5	10	476640	1	4	4	1	0	644	1	4	0	96	58	0	0	100
fixed	3	5	11	477753	5	2	2	1	0	2205	1	4	0	80	59	0	0	100
fixed	3	5	12	480758	4	3	3	1	0	1102	1	4	0	88	60	0	0	100
fixed	3	6	1	482451	4	1	1	1	0	1030	1	4	0	72	61	0	0	100
fixed	3	6	2	484469	1	2	2	1	0	929	1	4	0	80	62	0	0	100
fixed	3	6	3	485863	6	4	4	1	0	621	1	4	0	96	63	0	0	100
fixed	3	6	4	486857	2	1	1	1	0	668	1	4	0	72	64	0	0	100
fixed	3	6	5	488373	5	3	3	1	0	827	1	4	0	88	65	0	0	100
fixed	3	6	6	490063	6	4	4	1	0	644	1	4	0	96	66	0	0	100
fixed	3	6	7	491010	3	1	1	1	0	619	1	4	0	72	67	0	0	100
fixed	3	6	8	492173	2	3	3	1	0	994	1	4	0	88	68	0	0	100
fixed	3	6	9	493682	3	2	2	1	0	730	1	4	0	80	69	0	0	100
fixed	3	6	10	495171	1	4	4	1	0	683	1	4	0	96	70	0	0	100
fixed	3	6	11	496205	5	2	2	1	0	1015	1	4	0	80	71	0	0	100
fixed	3	6	12	497843	4	3	3	1	0	1258	1	4	0	88	72	0	0	100
fixed	3	7	1	500161	4	1	1	1	0	816	1	4	0	72	73	0	0	100
fixed	3	7	2	501290	1	2	2	1	0	1008	1	4	0	80	74	0	0	100
fixed	3	7	3	503232	6	4	4	1	0	685	1	4	0	96	75	0	0	100
fixed	3	7	4	504506	2	1	1	1	0	776	1	4	0	72	76	0	0	100
fixed	3	7	5	506170	5	3	3	1	0	890	1	4	0	88	77	0	0	100
fixed	3	7	6	507874	6	4	4	1	0	649	1	4	0	96	78	0	0	100
fixed	3	7	7	509351	3	1	1	1	0	730	1	4	0	72	79	0	0	100
fixed	3	7	8	510898	2	3	3	1	0	1121	1	4	0	88	80	0	0	100
fixed	3	7	9	512703	3	2	2	1	0	709	1	4	0	80	81	0	0	100
fixed	3	7	10	514216	1	4	4	1	0	821	1	4	0	96	82	0	0	100
fixed	3	7	11	515932	5	2	2	1	0	820	1	4	0	80	83	0	0	100
fixed	3	7	12	517681	4	3	3	1	0	850	1	4	0	88	84	0	0	100
fixed	3	8	1	519324	4	1	1	1	0	652	1	4	0	72	85	0	0	100
fixed	3	8	2	520657	1	2	2	1	0	812	1	4	0	80	86	0	0	100
fixed	3	8	3	522064	6	4	4	1	0	624	1	4	0	96	87	0	0	100
fixed	3	8	4	523332	2	1	1	1	0	642	1	4	0	72	88	0	0	100
fixed	3	8	5	524524	5	3	3	1	0	792	1	4	0	88	89	0	0	100
fixed	3	8	6	526149	6	4	4	1	0	579	1	4	0	96	90	0	0	100
fixed	3	8	7	527050	3	1	1	1	0	733	1	4	0	72	91	0	0	100
fixed	3	8	8	528262	2	3	3	1	0	1081	1	4	0	88	92	0	0	100
fixed	3	8	9	530304	3	2	2	1	0	747	1	4	0	80	93	0	0	100
fixed	3	8	10	531791	1	4	4	1	0	668	1	4	0	96	94	0	0	100
fixed	3	8	11	532786	5	2	2	1	0	1354	1	4	0	80	95	0	0	100
fixed	3	8	12	534584	4	3	3	1	0	958	1	4	0	88	96	0	0	100
fixed	3	9	1	536517	4	1	1	1	0	1788	1	4	0	72	97	0	0	100
fixed	3	9	2	539314	1	2	2	1	0	934	1	4	0	80	98	0	0	100
fixed	3	9	3	541037	6	4	4	1	0	629	1	4	0	96	99	0	0	100
fixed	3	9	4	542170	2	1	1	1	0	621	1	4	0	72	100	0	0	100
fixed	3	9	5	543168	5	3	3	1	0	890	1	4	0	88	101	0	0	100
fixed	3	9	6	544976	6	4	4	1	0	670	1	4	0	96	102	0	0	100
fixed	3	9	7	546530	3	1	1	1	0	1012	1	4	0	72	103	0	0	100
fixed	3	9	8	548442	2	3	3	1	0	1163	1	4	0	88	104	0	0	100
fixed	3	9	9	550335	3	2	2	1	0	787	1	4	0	80	105	0	0	100
fixed	3	9	10	551468	1	4	4	1	0	690	1	4	0	96	106	0	0	100
fixed	3	9	11	553050	5	2	2	1	0	928	1	4	0	80	107	0	0	100
fixed	3	9	12	554776	4	3	3	1	0	1022	1	4	0	88	108	0	0	100
fixed	3	10	1	556432	4	1	1	1	0	792	1	4	0	72	109	0	0	100
fixed	3	10	2	558107	1	2	2	1	0	969	1	4	0	80	110	0	0	100
fixed	3	10	3	559407	6	4	4	1	0	626	1	4	0	96	111	0	0	100
fixed	3	10	4	560443	2	1	1	1	0	710	1	4	0	72	112	0	0	100
fixed	3	10	5	562101	5	3	3	1	0	912	1	4	0	88	113	0	0	100
fixed	3	10	6	563315	6	4	4	1	0	637	1	4	0	96	114	0	0	100
fixed	3	10	7	564663	3	1	1	2	0	940	2	4	0	72	115	0	0	100
fixed	3	10	8	566277	2	3	3	1	0	1287	1	4	0	88	116	0	0	100
fixed	3	10	9	568465	3	2	2	1	0	923	1	4	0	80	117	0	0	100
fixed	3	10	10	570346	1	4	4	1	0	723	1	4	0	96	118	0	0	100
fixed	3	10	11	571816	5	2	2	1	0	909	1	4	0	80	119	0	0	100
fixed	3	10	12	573023	4	3	3	1	0	1154	1	4	0	88	120	0	0	100
fixed	4	1	1	669240	4	1	1	1	0	1038	1	4	0	104	1	0	0	100
fixed	4	1	2	671004	1	2	2	1	0	1388	1	4	0	112	2	0	0	100
fixed	4	1	3	672891	6	4	4	1	0	676	1	4	0	128	3	0	0	100
fixed	4	1	4	674348	2	1	1	1	0	918	1	4	0	104	4	0	0	100
fixed	4	1	5	676110	5	3	3	1	0	1403	1	4	0	120	5	0	0	100
fixed	4	1	6	677999	6	4	4	1	0	643	1	4	0	128	6	0	0	100
fixed	4	1	7	679646	3	1	1	1	0	686	1	4	0	104	7	0	0	100
fixed	4	1	8	680720	2	3	3	1	0	1496	1	4	0	120	8	0	0	100
fixed	4	1	9	683025	3	2	2	1	0	662	1	4	0	112	9	0	0	100
fixed	4	1	10	684384	1	4	4	1	0	693	1	4	0	128	10	0	0	100
fixed	4	1	11	685608	5	2	2	1	0	1313	1	4	0	112	11	0	0	100
fixed	4	1	12	687644	4	3	3	1	0	1075	1	4	0	120	12	0	0	100
fixed	4	2	1	689809	4	1	1	1	0	1151	1	4	0	104	13	0	0	100
fixed	4	2	2	691537	1	2	2	1	0	1006	1	4	0	112	14	0	0	100
fixed	4	2	3	693031	6	4	4	1	0	638	1	4	0	128	15	0	0	100
fixed	4	2	4	694495	2	1	1	1	0	1129	1	4	0	104	16	0	0	100
fixed	4	2	5	696223	5	3	3	1	0	887	1	4	0	120	17	0	0	100
fixed	4	2	6	698057	6	4	4	1	0	642	1	4	0	128	18	0	0	100
fixed	4	2	7	699206	3	1	1	1	0	713	1	4	0	104	19	0	0	100
fixed	4	2	8	700882	2	3	3	1	0	1250	1	4	0	120	20	0	0	100
fixed	4	2	9	702566	3	2	2	1	0	779	1	4	0	112	21	0	0	100
fixed	4	2	10	703866	1	4	4	1	0	700	1	4	0	128	22	0	0	100
fixed	4	2	11	705042	5	2	2	1	0	866	1	4	0	112	23	0	0	100
fixed	4	2	12	706765	4	3	3	1	0	833	1	4	0	120	24	0	0	100
fixed	4	3	1	708488	4	1	1	1	0	648	1	4	0	104	25	0	0	100
fixed	4	3	2	709430	1	2	2	1	0	960	1	4	0	112	26	0	0	100
fixed	4	3	3	711368	6	4	4	1	0	566	1	4	0	128	27	0	0	100
fixed	4	3	4	712916	2	1	1	1	0	620	1	4	0	104	28	0	0	100
fixed	4	3	5	713981	5	3	3	1	0	872	1	4	0	120	29	0	0	100
fixed	4	3	6	715282	6	4	4	1	0	688	1	4	0	128	30	0	0	100
fixed	4	3	7	716660	3	1	1	1	0	630	1	4	0	104	31	0	0	100
fixed	4	3	8	717656	2	3	3	1	0	1044	1	4	0	120	32	0	0	100
fixed	4	3	9	719067	3	2	2	1	0	752	1	4	0	112	33	0	0	100
fixed	4	3	10	720676	1	4	4	1	0	764	1	4	0	128	34	0	0	100
fixed	4	3	11	722001	5	2	2	1	0	860	1	4	0	112	35	0	0	100
fixed	4	3	12	723841	4	3	3	1	0	949	1	4	0	120	36	0	0	100
fixed	4	4	1	725898	4	1	1	1	0	646	1	4	0	104	37	0	0	100
fixed	4	4	2	727102	1	2	2	1	0	939	1	4	0	112	38	0	0	100
fixed	4	4	3	728368	6	4	4	1	0	606	1	4	0	128	39	0	0	100
fixed	4	4	4	729723	2	1	1	1	0	748	1	4	0	104	40	0	0	100
fixed	4	4	5	731159	5	3	3	1	0	1087	1	4	0	120	41	0	0	100
fixed	4	4	6	732912	6	4	4	1	0	653	1	4	0	128	42	0	0	100
fixed	4	4	7	734543	3	1	1	1	0	633	1	4	0	104	43	0	0	100
fixed	4	4	8	735639	2	3	3	1	0	1186	1	4	0	120	44	0	0	100
fixed	4	4	9	737807	3	2	2	1	0	719	1	4	0	112	45	0	0	100
fixed	4	4	10	739399	1	4	4	1	0	675	1	4	0	128	46	0	0	100
fixed	4	4	11	740707	5	2	2	1	0	883	1	4	0	112	47	0	0	100
fixed	4	4	12	742432	4	3	3	1	0	1235	1	4	0	120	48	0	0	100
fixed	4	5	1	744744	4	1	1	1	0	680	1	4	0	104	49	0	0	100
fixed	4	5	2	746297	1	2	2	1	0	982	1	4	0	112	50	0	0	100
fixed	4	5	3	747810	6	4	4	1	0	687	1	4	0	128	51	0	0	100
fixed	4	5	4	749240	2	1	1	1	0	770	1	4	0	104	52	0	0	100
fixed	4	5	5	750693	5	3	3	1	0	852	1	4	0	120	53	0	0	100
fixed	4	5	6	752412	6	4	4	1	0	643	1	4	0	128	54	0	0	100
fixed	4	5	7	753917	3	1	1	1	0	676	1	4	0	104	55	0	0	100
fixed	4	5	8	755520	2	3	3	1	0	1296	1	4	0	120	56	0	0	100
fixed	4	5	9	757399	3	2	2	1	0	584	1	4	0	112	57	0	0	100
fixed	4	5	10	758427	1	4	4	1	0	645	1	4	0	128	58	0	0	100
fixed	4	5	11	759981	5	2	2	1	0	1275	1	4	0	112	59	0	0	100
fixed	4	5	12	761695	4	3	3	1	0	891	1	4	0	120	60	0	0	100
fixed	4	6	1	763407	4	1	1	1	0	594	1	4	0	104	61	0	0	100
fixed	4	6	2	764787	1	2	2	1	0	1072	1	4	0	112	62	0	0	100
fixed	4	6	3	766371	6	4	4	1	0	652	1	4	0	128	63	0	0	100
fixed	4	6	4	767402	2	1	1	1	0	705	1	4	0	104	64	0	0	100
fixed	4	6	5	768913	5	3	3	1	0	817	1	4	0	120	65	0	0	100
fixed	4	6	6	770553	6	4	4	1	0	644	1	4	0	128	66	0	0	100
fixed	4	6	7	771859	3	1	1	1	0	948	1	4	0	104	67	0	0	100
fixed	4	6	8	773757	2	3	3	1	0	1196	1	4	0	120	68	0	0	100
fixed	4	6	9	775492	3	2	2	1	0	738	1	4	0	112	69	0	0	100
fixed	4	6	10	776977	1	4	4	1	0	627	1	4	0	128	70	0	0	100
fixed	4	6	11	778538	5	2	2	1	0	921	1	4	0	112	71	0	0	100
fixed	4	6	12	779967	4	3	3	1	0	1028	1	4	0	120	72	0	0	100
fixed	4	7	1	781685	4	1	1	1	0	596	1	4	0	104	73	0	0	100
fixed	4	7	2	782866	1	2	2	1	0	978	1	4	0	112	74	0	0	100
fixed	4	7	3	784463	6	4	4	1	0	654	1	4	0	128	75	0	0	100
fixed	4	7	4	785788	2	1	1	1	0	614	1	4	0	104	76	0	0	100
fixed	4	7	5	787168	5	3	3	1	0	939	1	4	0	120	77	0	0	100
fixed	4	7	6	788518	6	4	4	1	0	650	1	4	0	128	78	0	0	100
fixed	4	7	7	789721	3	1	1	1	0	735	1	4	0	104	79	0	0	100
fixed	4	7	8	791314	2	3	3	1	0	1084	1	4	0	120	80	0	0	100
fixed	4	7	9	793149	3	2	2	1	0	702	1	4	0	112	81	0	0	100
fixed	4	7	10	794348	1	4	4	1	0	747	1	4	0	128	82	0	0	100
fixed	4	7	11	796030	5	2	2	1	0	1036	1	4	0	112	83	0	0	100
fixed	4	7	12	797792	4	3	3	1	0	1329	1	4	0	120	84	0	0	100
fixed	4	8	1	799779	4	1	1	1	0	637	1	4	0	104	85	0	0	100
fixed	4	8	2	801204	1	2	2	1	0	1033	1	4	0	112	86	0	0	100
fixed	4	8	3	802765	6	4	4	1	0	631	1	4	0	128	87	0	0	100
fixed	4	8	4	803778	2	1	1	1	0	812	1	4	0	104	88	0	0	100
fixed	4	8	5	804875	5	3	3	1	0	773	1	4	0	120	89	0	0	100
fixed	4	8	6	806294	6	4	4	1	0	673	1	4	0	128	90	0	0	100
fixed	4	8	7	807593	3	1	1	1	0	731	1	4	0	104	91	0	0	100
fixed	4	8	8	809247	2	3	3	1	0	1277	1	4	0	120	92	0	0	100
fixed	4	8	9	811005	3	2	2	1	0	738	1	4	0	112	93	0	0	100
fixed	4	8	10	812404	1	4	4	1	0	671	1	4	0	128	94	0	0	100
fixed	4	8	11	813865	5	2	2	1	0	1289	1	4	0	112	95	0	0	100
fixed	4	8	12	815483	4	3	3	1	0	1284	1	4	0	120	96	0	0	100
fixed	4	9	1	817773	4	1	1	1	0	715	1	4	0	104	97	0	0	100
fixed	4	9	2	818893	1	2	2	1	0	1284	1	4	0	112	98	0	0	100
fixed	4	9	3	820676	6	4	4	1	0	625	1	4	0	128	99	0	0	100
fixed	4	9	4	822285	2	1	1	1	0	676	1	4	0	104	100	0	0	100
fixed	4	9	5	823739	5	3	3	1	0	958	1	4	0	120	101	0	0	100
fixed	4	9	6	825611	6	4	4	1	0	615	1	4	0	128	102	0	0	100
fixed	4	9	7	826702	3	1	1	1	0	649	1	4	0	104	103	0	0	100
fixed	4	9	8	828292	2	3	3	1	0	1438	1	4	0	120	104	0	0	100
fixed	4	9	9	830513	3	2	2	1	0	504	1	4	0	112	105	0	0	100
fixed	4	9	10	831895	1	4	4	1	0	725	1	4	0	128	106	0	0	100
fixed	4	9	11	833614	5	2	2	1	0	900	1	4	0	112	107	0	0	100
fixed	4	9	12	835075	4	3	3	1	0	703	1	4	0	120	108	0	0	100
fixed	4	10	1	836436	4	1	1	1	0	956	1	4	0	104	109	0	0	100
fixed	4	10	2	837783	1	2	2	1	0	972	1	4	0	112	110	0	0	100
fixed	4	10	3	839584	6	4	4	1	0	647	1	4	0	128	111	0	0	100
fixed	4	10	4	841223	2	1	1	1	0	618	1	4	0	104	112	0	0	100
fixed	4	10	5	842569	5	3	3	1	0	921	1	4	0	120	113	0	0	100
fixed	4	10	6	844060	6	4	4	1	0	682	1	4	0	128	114	0	0	100
fixed	4	10	7	845670	3	1	1	1	0	982	1	4	0	104	115	0	0	100
fixed	4	10	8	847627	2	3	3	1	0	1346	1	4	0	120	116	0	0	100
fixed	4	10	9	849652	3	2	2	1	0	853	1	4	0	112	117	0	0	100
fixed	4	10	10	850923	1	4	4	1	0	655	1	4	0	128	118	0	0	100
fixed	4	10	11	851881	5	2	2	1	0	1135	1	4	0	112	119	0	0	100
fixed	4	10	12	853413	4	3	3	1	0	790	1	4	0	120	120	0	0	100
fixed	5	1	1	855580	4	1	1	1	0	850	1	4	0	136	1	0	0	100
fixed	5	1	2	857430	1	2	2	1	0	964	1	4	0	144	2	0	0	100
fixed	5	1	3	859387	6	4	4	1	0	713	1	4	0	160	3	0	0	100
fixed	5	1	4	860705	2	1	1	1	0	745	1	4	0	136	4	0	0	100
fixed	5	1	5	862202	5	3	3	1	0	921	1	4	0	152	5	0	0	100
fixed	5	1	6	864102	6	4	4	1	0	721	1	4	0	160	6	0	0	100
fixed	5	1	7	865397	3	1	1	1	0	1138	1	4	0	136	7	0	0	100
fixed	5	1	8	867249	2	3	3	1	0	1380	1	4	0	152	8	0	0	100
fixed	5	1	9	869475	3	2	2	1	0	749	1	4	0	144	9	0	0	100
fixed	5	1	10	870899	1	4	4	1	0	513	1	4	0	160	10	0	0	100
fixed	5	1	11	872304	5	2	2	1	0	1102	1	4	0	144	11	0	0	100
fixed	5	1	12	874354	4	3	3	1	0	1063	1	4	0	152	12	0	0	100
fixed	5	2	1	876083	4	1	1	1	0	701	1	4	0	136	13	0	0	100
fixed	5	2	2	877312	1	2	2	1	0	914	1	4	0	144	14	0	0	100
fixed	5	2	3	878612	6	4	4	1	0	626	1	4	0	160	15	0	0	100
fixed	5	2	4	880045	2	1	1	1	0	565	1	4	0	136	16	0	0	100
fixed	5	2	5	881060	5	3	3	1	0	946	1	4	0	152	17	0	0	100
fixed	5	2	6	882996	6	4	4	1	0	689	1	4	0	160	18	0	0	100
fixed	5	2	7	884404	3	1	1	1	0	685	1	4	0	136	19	0	0	100
fixed	5	2	8	885405	2	3	3	1	0	1034	1	4	0	152	20	0	0	100
fixed	5	2	9	886859	3	2	2	1	0	573	1	4	0	144	21	0	0	100
fixed	5	2	10	887832	1	4	4	1	0	508	1	4	0	160	22	0	0	100
fixed	5	2	11	889205	5	2	2	1	0	1058	1	4	0	144	23	0	0	100
fixed	5	2	12	890907	4	3	3	1	0	762	1	4	0	152	24	0	0	100
fixed	5	3	1	892908	4	1	1	1	0	685	1	4	0	136	25	0	0	100
fixed	5	3	2	894165	1	2	2	1	0	944	1	4	0	144	26	0	0	100
fixed	5	3	3	895723	6	4	4	1	0	630	1	4	0	160	27	0	0	100
fixed	5	3	4	897324	2	1	1	1	0	1202	1	4	0	136	28	0	0	100
fixed	5	3	5	898955	5	3	3	1	0	876	1	4	0	152	29	0	0	100
fixed	5	3	6	900708	6	4	4	1	0	674	1	4	0	160	30	0	0	100
fixed	5	3	7	902153	3	1	1	1	0	621	1	4	0	136	31	0	0	100
fixed	5	3	8	903250	2	3	3	1	0	1207	1	4	0	152	32	0	0	100
fixed	5	3	9	905270	3	2	2	1	0	593	1	4	0	144	33	0	0	100
fixed	5	3	10	906407	1	4	4	1	0	593	1	4	0	160	34	0	0	100
fixed	5	3	11	907518	5	2	2	1	0	898	1	4	0	144	35	0	0	100
fixed	5	3	12	909147	4	3	3	1	0	1501	1	4	0	152	36	0	0	100
fixed	5	4	1	911386	4	1	1	1	0	646	1	4	0	136	37	0	0	100
fixed	5	4	2	912817	1	2	2	2	0	1314	2	4	0	144	38	0	0	100
fixed	5	4	3	914454	6	4	4	1	0	1268	1	4	0	160	39	0	0	100
fixed	5	4	4	916157	2	1	1	1	0	724	1	4	0	136	40	0	0	100
fixed	5	4	5	917300	5	3	3	1	0	987	1	4	0	152	41	0	0	100
fixed	5	4	6	919125	6	4	4	1	0	662	1	4	0	160	42	0	0	100
fixed	5	4	7	920641	3	1	1	1	0	654	1	4	0	136	43	0	0	100
fixed	5	4	8	921875	2	3	3	1	0	1210	1	4	0	152	44	0	0	100
fixed	5	4	9	923638	3	2	2	1	0	655	1	4	0	144	45	0	0	100
fixed	5	4	10	925333	1	4	4	1	0	640	1	4	0	160	46	0	0	100
fixed	5	4	11	926828	5	2	2	1	0	984	1	4	0	144	47	0	0	100
fixed	5	4	12	928329	4	3	3	1	0	824	1	4	0	152	48	0	0	100
fixed	5	5	1	929898	4	1	1	1	0	566	1	4	0	136	49	0	0	100
fixed	5	5	2	931325	1	2	2	1	0	1290	1	4	0	144	50	0	0	100
fixed	5	5	3	933578	6	4	4	1	0	618	1	4	0	160	51	0	0	100
fixed	5	5	4	934783	2	1	1	1	0	527	1	4	0	136	52	0	0	100
fixed	5	5	5	936065	5	3	3	1	0	921	1	4	0	152	53	0	0	100
fixed	5	5	6	937629	6	4	4	1	0	607	1	4	0	160	54	0	0	100
fixed	5	5	7	939232	3	1	1	1	0	571	1	4	0	136	55	0	0	100
fixed	5	5	8	940806	2	3	3	1	0	1448	1	4	0	152	56	0	0	100
fixed	5	5	9	942569	3	2	2	1	0	757	1	4	0	144	57	0	0	100
fixed	5	5	10	943759	1	4	4	1	0	659	1	4	0	160	58	0	0	100
fixed	5	5	11	944879	5	2	2	1	0	972	1	4	0	144	59	0	0	100
fixed	5	5	12	946444	4	3	3	1	0	745	1	4	0	152	60	0	0	100
fixed	5	6	1	947876	4	1	1	1	0	668	1	4	0	136	61	0	0	100
fixed	5	6	2	949105	1	2	2	1	0	913	1	4	0	144	62	0	0	100
fixed	5	6	3	950678	6	4	4	1	0	646	1	4	0	160	63	0	0	100
fixed	5	6	4	952047	2	1	1	1	0	612	1	4	0	136	64	0	0	100
fixed	5	6	5	953338	5	3	3	1	0	1157	1	4	0	152	65	0	0	100
fixed	5	6	6	954967	6	4	4	1	0	624	1	4	0	160	66	0	0	100
fixed	5	6	7	956441	3	1	1	1	0	1090	1	4	0	136	67	0	0	100
fixed	5	6	8	958295	2	3	3	1	0	1508	1	4	0	152	68	0	0	100
fixed	5	6	9	960705	3	2	2	1	0	173	1	4	0	144	69	0	0	100
fixed	5	6	10	961215	1	4	4	1	0	1472	1	4	0	160	70	0	0	100
fixed	5	6	11	963412	5	2	2	1	0	986	1	4	0	144	71	0	0	100
fixed	5	6	12	965414	4	3	3	1	0	1118	1	4	0	152	72	0	0	100
fixed	5	7	1	967557	4	1	1	1	0	851	1	4	0	136	73	0	0	100
fixed	5	7	2	968995	1	2	2	1	0	1198	1	4	0	144	74	0	0	100
fixed	5	7	3	970553	6	4	4	1	0	668	1	4	0	160	75	0	0	100
fixed	5	7	4	971922	2	1	1	1	0	874	1	4	0	136	76	0	0	100
fixed	5	7	5	973170	5	3	3	1	0	933	1	4	0	152	77	0	0	100
fixed	5	7	6	974713	6	4	4	1	0	740	1	4	0	160	78	0	0	100
fixed	5	7	7	976267	3	1	1	1	0	642	1	4	0	136	79	0	0	100
fixed	5	7	8	977522	2	3	3	1	0	1653	1	4	0	152	80	0	0	100
fixed	5	7	9	979595	3	2	2	1	0	645	1	4	0	144	81	0	0	100
fixed	5	7	10	980682	1	4	4	1	0	591	1	4	0	160	82	0	0	100
fixed	5	7	11	981844	5	2	2	1	0	1046	1	4	0	144	83	0	0	100
fixed	5	7	12	983230	4	3	3	1	0	1379	1	4	0	152	84	0	0	100
fixed	5	8	1	985786	4	1	1	1	0	631	1	4	0	136	85	0	0	100
fixed	5	8	2	986710	1	2	2	1	0	1016	1	4	0	144	86	0	0	100
fixed	5	8	3	988281	6	4	4	1	0	621	1	4	0	160	87	0	0	100
fixed	5	8	4	989214	2	1	1	1	0	598	1	4	0	136	88	0	0	100
fixed	5	8	5	990458	5	3	3	1	0	825	1	4	0	152	89	0	0	100
fixed	5	8	6	992003	6	4	4	1	0	640	1	4	0	160	90	0	0	100
fixed	5	8	7	993129	3	1	1	1	0	544	1	4	0	136	91	0	0	100
fixed	5	8	8	994450	2	3	3	1	0	1328	1	4	0	152	92	0	0	100
fixed	5	8	9	996548	3	2	2	1	0	663	1	4	0	144	93	0	0	100
fixed	5	8	10	997805	1	4	4	1	0	626	1	4	0	160	94	0	0	100
fixed	5	8	11	998909	5	2	0	1	2	0	3	4	0	144	94	0	1	99
fixed	5	8	12	1002083	4	3	3	1	0	1205	1	4	0	152	95	0	1	99
fixed	5	9	1	1004214	4	1	1	1	0	698	1	4	0	136	96	0	1	99
fixed	5	9	2	1005446	1	2	2	1	0	1463	1	4	0	144	97	0	1	99
fixed	5	9	3	1007371	6	4	4	1	0	588	1	4	0	160	98	0	1	99
fixed	5	9	4	1008287	2	1	1	1	0	702	1	4	0	136	99	0	1	99
fixed	5	9	5	1009327	5	3	3	1	0	882	1	4	0	152	100	0	1	99
fixed	5	9	6	1010971	6	4	4	1	0	724	1	4	0	160	101	0	1	99
fixed	5	9	7	1012026	3	1	1	1	0	648	1	4	0	136	102	0	1	99
fixed	5	9	8	1013646	2	3	3	1	0	1203	1	4	0	152	103	0	1	99
fixed	5	9	9	1015175	3	2	2	1	0	762	1	4	0	144	104	0	1	99
fixed	5	9	10	1016690	1	4	4	1	0	578	1	4	0	160	105	0	1	99
fixed	5	9	11	1018200	5	2	2	1	0	954	1	4	0	144	106	0	1	99
fixed	5	9	12	1020086	4	3	3	1	0	1138	1	4	0	152	107	0	1	99
fixed	5	10	1	1022409	4	1	1	1	0	751	1	4	0	136	108	0	1	99
fixed	5	10	2	1023541	1	2	2	1	0	1072	1	4	0	144	109	0	1	99
fixed	5	10	3	1025139	6	4	4	1	0	636	1	4	0	160	110	0	1	99
fixed	5	10	4	1026168	2	1	1	1	0	688	1	4	0	136	111	0	1	99
fixed	5	10	5	1027632	5	3	3	1	0	891	1	4	0	152	112	0	1	99
fixed	5	10	6	1029270	6	4	4	1	0	685	1	4	0	160	113	0	1	99
fixed	5	10	7	1030976	3	1	1	1	0	757	1	4	0	136	114	0	1	99
fixed	5	10	8	1032124	2	3	3	1	0	972	1	4	0	152	115	0	1	99
fixed	5	10	9	1033862	3	2	2	1	0	603	1	4	0	144	116	0	1	99
fixed	5	10	10	1035219	1	4	4	1	0	690	1	4	0	160	117	0	1	99
fixed	5	10	11	1036487	5	2	2	1	0	1132	1	4	0	144	118	0	1	99
fixed	5	10	12	1038450	4	3	3	1	0	760	1	4	0	152	119	0	1	99
random	6	1	1	1129185	6	1	1	1	0	1085	1	4	0	168	1	0	0	100
random	6	1	2	1130889	4	4	4	1	0	741	1	4	0	192	2	0	0	100
random	6	1	3	1132350	2	2	2	1	0	1191	1	4	0	176	3	0	0	100
random	6	1	4	1134556	3	3	3	1	0	546	1	4	0	184	4	0	0	100
random	6	1	5	1135789	5	2	2	1	0	813	1	4	0	176	5	0	0	100
random	6	1	6	1137138	1	4	4	1	0	652	1	4	0	192	6	0	0	100
random	6	1	7	1138281	6	1	1	1	0	684	1	4	0	168	7	0	0	100
random	6	1	8	1139599	2	3	3	1	0	1636	1	4	0	184	8	0	0	100
random	6	1	9	1141779	4	2	2	1	0	664	1	4	0	176	9	0	0	100
random	6	1	10	1143041	1	1	1	1	0	706	1	4	0	168	10	0	0	100
random	6	1	11	1144694	5	4	4	1	0	652	1	4	0	192	11	0	0	100
random	6	1	12	1146387	3	3	3	1	0	1189	1	4	0	184	12	0	0	100
random	6	1	13	1148201	5	2	2	1	0	816	1	4	0	176	13	0	0	100
random	6	1	14	1149559	1	4	4	1	0	662	1	4	0	192	14	0	0	100
random	6	1	15	1151022	3	1	1	1	0	712	1	4	0	168	15	0	0	100
random	6	1	16	1152757	4	3	3	1	0	879	1	4	0	184	16	0	0	100
random	6	1	17	1154224	6	4	4	1	0	665	1	4	0	192	17	0	0	100
random	6	1	18	1155536	2	1	1	1	0	545	1	4	0	168	18	0	0	100
random	6	1	19	1157047	5	3	3	1	0	921	1	4	0	184	19	0	0	100
random	6	1	20	1158666	2	2	2	1	0	805	1	4	0	176	20	0	0	100
random	6	1	21	1160292	3	3	3	1	0	888	1	4	0	184	21	0	0	100
random	6	1	22	1161946	6	1	1	1	0	658	1	4	0	168	22	0	0	100
random	6	1	23	1162968	4	2	2	1	0	1110	1	4	0	176	23	0	0	100
random	6	1	24	1164558	1	4	4	1	0	667	1	4	0	192	24	0	0	100
random	6	1	25	1166078	4	3	3	1	0	1210	1	4	0	184	25	0	0	100
random	6	1	26	1167615	2	1	1	1	0	697	1	4	0	168	26	0	0	100
random	6	1	27	1169231	5	2	2	1	0	925	1	4	0	176	27	0	0	100
random	6	1	28	1170598	6	4	4	1	0	619	1	4	0	192	28	0	0	100
random	6	1	29	1171666	1	3	3	1	0	950	1	4	0	184	29	0	0	100
random	6	1	30	1172983	5	2	2	1	0	678	1	4	0	176	30	0	0	100
random	6	1	31	1174077	2	1	1	1	0	712	1	4	0	168	31	0	0	100
random	6	1	32	1175531	3	3	3	1	0	923	1	4	0	184	32	0	0	100
random	6	1	33	1176796	6	4	4	1	0	637	1	4	0	192	33	0	0	100
random	6	1	34	1177861	4	2	2	1	0	631	1	4	0	176	34	0	0	100
random	6	1	35	1178899	3	4	4	1	0	772	1	4	0	192	35	0	0	100
random	6	1	36	1180615	1	1	1	1	0	635	1	4	0	168	36	0	0	100
random	6	1	37	1182101	3	4	4	1	0	828	1	4	0	192	37	0	0	100
random	6	1	38	1183521	5	3	3	1	0	1704	1	4	0	184	38	0	0	100
random	6	1	39	1185623	6	1	1	1	0	711	1	4	0	168	39	0	0	100
random	6	1	40	1187323	1	2	2	1	0	1431	1	4	0	176	40	0	0	100
random	6	1	41	1189387	2	3	3	1	0	727	1	4	0	184	41	0	0	100
random	6	1	42	1191030	4	4	4	1	0	642	1	4	0	192	42	0	0	100
random	6	1	43	1191969	1	2	2	1	0	946	1	4	0	176	43	0	0	100
random	6	1	44	1193642	6	3	3	1	0	771	1	4	0	184	44	0	0	100
random	6	1	45	1195207	3	1	1	1	0	753	1	4	0	168	45	0	0	100
random	6	1	46	1196967	4	4	4	1	0	687	1	4	0	192	46	0	0	100
random	6	1	47	1198163	2	2	2	1	0	892	1	4	0	176	47	0	0	100
random	6	1	48	1199422	5	1	1	1	0	783	1	4	0	168	48	0	0	100
random	6	1	49	1201248	2	3	3	1	0	1113	1	4	0	184	49	0	0	100
random	6	1	50	1203183	3	1	1	1	0	871	1	4	0	168	50	0	0	100
random	6	1	51	1204645	1	4	4	1	0	561	1	4	0	192	51	0	0	100
random	6	1	52	1206205	5	3	3	1	0	895	1	4	0	184	52	0	0	100
random	6	1	53	1208046	3	2	2	1	0	537	1	4	0	176	53	0	0	100
random	6	1	54	1209080	6	4	4	1	0	662	1	4	0	192	54	0	0	100
random	6	1	55	1210185	4	2	2	1	0	1102	1	4	0	176	55	0	0	100
random	6	1	56	1211667	1	1	1	1	0	656	1	4	0	168	56	0	0	100
random	6	1	57	1213331	5	4	4	1	0	681	1	4	0	192	57	0	0	100
random	6	1	58	1214810	2	1	1	1	0	803	1	4	0	168	58	0	0	100
random	6	1	59	1216380	6	2	2	1	0	1032	1	4	0	176	59	0	0	100
random	6	1	60	1218247	4	3	3	1	0	1313	1	4	0	184	60	0	0	100
random	6	1	61	1220512	1	2	2	1	0	993	1	4	0	176	61	0	0	100
random	6	1	62	1221982	6	4	4	1	0	626	1	4	0	192	62	0	0	100
random	6	1	63	1223297	4	1	1	1	0	619	1	4	0	168	63	0	0	100
random	6	1	64	1224281	2	2	2	1	0	1130	1	4	0	176	64	0	0	100
random	6	1	65	1226140	4	3	3	1	0	1194	1	4	0	184	65	0	0	100
random	6	1	66	1228173	3	1	1	1	0	669	1	4	0	168	66	0	0	100
random	6	1	67	1229428	1	3	3	1	0	1104	1	4	0	184	67	0	0	100
random	6	1	68	1230832	5	4	4	1	0	724	1	4	0	192	68	0	0	100
random	6	1	69	1232210	2	2	2	1	0	689	1	4	0	176	69	0	0	100
random	6	1	70	1233433	3	1	1	1	0	678	1	4	0	168	70	0	0	100
random	6	1	71	1234973	5	4	4	1	0	605	1	4	0	192	71	0	0	100
random	6	1	72	1236492	6	3	3	1	0	1292	1	4	0	184	72	0	0	100
random	6	1	73	1238639	2	1	1	1	0	841	1	4	0	168	73	0	0	100
random	6	1	74	1240322	5	3	0	0	2	0	3	4	0	184	73	0	1	99
random	6	1	75	1243625	1	4	4	1	0	630	1	4	0	192	74	0	1	99
random	6	1	76	1245146	6	2	2	1	0	982	1	4	0	176	75	0	1	99
random	6	1	77	1246934	2	1	1	1	0	698	1	4	0	168	76	0	1	99
random	6	1	78	1248461	4	4	4	1	0	585	1	4	0	192	77	0	1	99
random	6	1	79	1249528	3	2	2	1	0	892	1	4	0	176	78	0	1	99
random	6	1	80	1250799	4	3	3	1	0	1238	1	4	0	184	79	0	1	99
random	6	1	81	1252372	1	4	4	1	0	619	1	4	0	192	80	0	1	99
random	6	1	82	1253728	5	1	1	1	0	770	1	4	0	168	81	0	1	99
random	6	1	83	1254870	3	2	2	1	0	754	1	4	0	176	82	0	1	99
random	6	1	84	1256277	6	3	3	1	0	862	1	4	0	184	83	0	1	99
random	6	1	85	1258087	3	2	2	1	0	793	1	4	0	176	84	0	1	99
random	6	1	86	1259348	1	3	3	1	0	1580	1	4	0	184	85	0	1	99
random	6	1	87	1261489	4	4	4	1	0	778	1	4	0	192	86	0	1	99
random	6	1	88	1262627	2	1	1	1	0	673	1	4	0	168	87	0	1	99
random	6	1	89	1263742	6	4	4	1	0	578	1	4	0	192	88	0	1	99
random	6	1	90	1264950	3	3	3	1	0	1255	1	4	0	184	89	0	1	99
random	6	1	91	1266555	5	4	4	1	0	650	1	4	0	192	90	0	1	99
random	6	1	92	1268204	1	2	2	1	0	805	1	4	0	176	91	0	1	99
random	6	1	93	1269336	5	1	1	1	0	797	1	4	0	168	92	0	1	99
random	6	1	94	1270572	4	3	3	1	0	1065	1	4	0	184	93	0	1	99
random	6	1	95	1272107	6	1	1	1	0	656	1	4	0	168	94	0	1	99
random	6	1	96	1273087	2	2	2	1	0	830	1	4	0	176	95	0	1	99
random	6	1	97	1274628	4	3	3	1	0	941	1	4	0	184	96	0	1	99
random	6	1	98	1276468	3	2	2	1	0	751	1	4	0	176	97	0	1	99
random	6	1	99	1277845	6	3	3	1	0	813	1	4	0	184	98	0	1	99
random	6	1	100	1279117	1	4	4	1	0	543	1	4	0	192	99	0	1	99
random	6	1	101	1280019	4	1	1	1	0	673	1	4	0	168	100	0	1	99
random	6	1	102	1281675	5	2	2	1	0	995	1	4	0	176	101	0	1	99
random	6	1	103	1283356	2	4	4	1	0	867	1	4	0	192	102	0	1	99
random	6	1	104	1285029	3	1	1	1	0	652	1	4	0	168	103	0	1	99
random	6	1	105	1286445	1	3	3	1	0	1048	1	4	0	184	104	0	1	99
random	6	1	106	1288521	2	2	2	1	0	1049	1	4	0	176	105	0	1	99
random	6	1	107	1290526	5	4	4	1	0	652	1	4	0	192	106	0	1	99
random	6	1	108	1291613	6	1	1	1	0	1174	1	4	0	168	107	0	1	99
random	6	1	109	1294009	5	4	4	1	0	792	1	4	0	192	108	0	1	99
random	6	1	110	1295267	6	3	3	1	0	1043	1	4	0	184	109	0	1	99
random	6	1	111	1297325	2	2	2	1	0	908	1	4	0	176	110	0	1	99
random	6	1	112	1298915	3	1	1	1	0	752	1	4	0	168	111	0	1	99
random	6	1	113	1300040	1	2	2	1	0	1240	1	4	0	176	112	0	1	99
random	6	1	114	1302139	2	3	3	1	0	704	1	4	0	184	113	0	1	99
random	6	1	115	1303441	3	1	1	1	0	665	1	4	0	168	114	0	1	99
random	6	1	116	1305027	4	4	4	1	0	757	1	4	0	192	115	0	1	99
random	6	1	117	1306101	6	1	1	1	0	1224	1	4	0	168	116	0	1	99
random	6	1	118	1307637	5	3	3	1	0	1079	1	4	0	184	117	0	1	99
random	6	1	119	1309244	1	4	4	1	0	810	1	4	0	192	118	0	1	99
random	6	1	120	1310577	4	2	2	1	0	1090	1	4	0	176	119	0	1	99
fixed	7	1	1	1312652	4	1	1	1	0	722	1	4	0	200	1	0	0	100
fixed	7	1	2	1313689	1	2	2	1	0	990	1	4	0	208	2	0	0	100
fixed	7	1	3	1315696	6	4	4	1	0	569	1	4	0	224	3	0	0	100
fixed	7	1	4	1317017	2	1	1	1	0	713	1	4	0	200	4	0	0	100
fixed	7	1	5	1318721	5	3	3	1	0	945	1	4	0	216	5	0	0	100
fixed	7	1	6	1320461	6	4	4	1	0	640	1	4	0	224	6	0	0	100
fixed	7	1	7	1321671	3	1	1	2	0	837	2	4	0	200	7	0	0	100
fixed	7	1	8	1323288	2	3	3	1	0	1432	1	4	0	216	8	0	0	100
fixed	7	1	9	1325647	3	2	2	1	0	788	1	4	0	208	9	0	0	100
fixed	7	1	10	1326812	1	4	4	1	0	635	1	4	0	224	10	0	0	100
fixed	7	1	11	1328218	5	2	2	1	0	1095	1	4	0	208	11	0	0	100
fixed	7	1	12	1330235	4	3	3	1	0	1186	1	4	0	216	12	0	0	100
fixed	7	2	1	1332219	4	1	1	1	0	749	1	4	0	200	1	0	0	8
fixed	7	2	2	1333259	1	2	2	1	0	1041	1	4	0	208	2	0	0	14
fixed	7	2	3	1335128	6	4	4	1	0	610	1	4	0	224	3	0	0	20
fixed	7	2	4	1336448	2	1	1	1	0	810	1	4	0	200	4	0	0	25
fixed	7	2	5	1337809	5	3	3	1	0	961	1	4	0	216	5	0	0	29
fixed	7	2	6	1339386	6	4	4	1	0	718	1	4	0	224	6	0	0	33
fixed	7	2	7	1340562	3	1	1	1	0	740	1	4	0	200	7	0	0	37
fixed	7	2	8	1342313	2	3	3	1	0	1354	1	4	0	216	8	0	0	40
fixed	7	2	9	1344236	3	2	2	1	0	921	1	4	0	208	9	0	0	43
fixed	7	2	10	1346121	1	4	4	1	0	593	1	4	0	224	10	0	0	45
fixed	7	2	11	1347104	5	2	2	1	0	1191	1	4	0	208	11	0	0	48
fixed	7	2	12	1348761	4	3	3	1	0	1041	1	4	0	216	12	0	0	50
fixed	7	3	1	1350614	4	1	1	1	0	578	1	4	0	200	1	0	0	4
fixed	7	3	2	1351835	1	2	2	1	0	983	1	4	0	208	2	0	0	8
fixed	7	3	3	1353298	6	4	4	1	0	593	1	4	0	224	3	0	0	11
fixed	7	3	4	1354338	2	1	1	1	0	636	1	4	0	200	4	0	0	14
fixed	7	3	5	1355727	5	3	3	1	0	962	1	4	0	216	5	0	0	17
fixed	7	3	6	1356997	6	4	4	1	0	700	1	4	0	224	6	0	0	20
fixed	7	3	7	1358103	3	1	1	1	0	589	1	4	0	200	7	0	0	23
fixed	7	3	8	1359241	2	3	3	1	0	1389	1	4	0	216	8	0	0	25
fixed	7	3	9	1361178	3	2	2	1	0	627	1	4	0	208	9	0	0	27
fixed	7	3	10	1362268	1	4	4	1	0	565	1	4	0	224	10	0	0	29
fixed	7	3	11	1363498	5	2	2	1	0	1153	1	4	0	208	11	0	0	31
fixed	7	3	12	1365211	4	3	3	1	0	808	1	4	0	216	12	0	0	33
fixed	7	4	1	1366971	4	1	1	1	0	669	1	4	0	200	1	0	0	3
fixed	7	4	2	1368128	1	2	2	1	0	997	1	4	0	208	2	0	0	5
fixed	7	4	3	1369890	6	4	4	1	0	658	1	4	0	224	3	0	0	8
fixed	7	4	4	1371438	2	1	1	1	0	984	1	4	0	200	4	0	0	10
fixed	7	4	5	1373323	5	3	3	1	0	928	1	4	0	216	5	0	0	12
fixed	7	4	6	1374595	6	4	4	1	0	691	1	4	0	224	6	0	0	14
fixed	7	4	7	1375825	3	1	1	1	0	1286	1	4	0	200	7	0	0	16
fixed	7	4	8	1377846	2	3	3	1	0	1385	1	4	0	216	8	0	0	18
fixed	7	4	9	1379979	3	2	2	1	0	767	1	4	0	208	9	0	0	20
fixed	7	4	10	1381522	1	4	4	1	0	493	1	4	0	224	10	0	0	22
fixed	7	4	11	1383000	5	2	2	1	0	1159	1	4	0	208	11	0	0	23
fixed	7	4	12	1385040	4	3	3	1	0	1336	1	4	0	216	12	0	0	25
fixed	7	5	1	1387522	4	1	1	1	0	743	1	4	0	200	1	0	0	2
fixed	7	5	2	1388931	1	2	2	1	0	1083	1	4	0	208	2	0	0	4
fixed	7	5	3	1390582	6	4	4	1	0	597	1	4	0	224	3	0	0	6
fixed	7	5	4	1391478	2	1	1	1	0	719	1	4	0	200	4	0	0	8
fixed	7	5	5	1392845	5	3	3	1	0	1254	1	4	0	216	5	0	0	9
fixed	7	5	6	1394426	6	4	4	1	0	675	1	4	0	224	6	0	0	11
fixed	7	5	7	1395828	3	1	1	1	0	1655	1	4	0	200	7	0	0	13
fixed	7	5	8	1397947	2	3	3	1	0	1181	1	4	0	216	8	0	0	14
fixed	7	5	9	1399971	3	2	2	1	0	720	1	4	0	208	9	0	0	16
fixed	7	5	10	1401274	1	4	4	1	0	521	1	4	0	224	10	0	0	17
fixed	7	5	11	1402818	5	2	2	1	0	935	1	4	0	208	11	0	0	19
fixed	7	5	12	1404733	4	3	3	1	0	966	1	4	0	216	12	0	0	20
fixed	7	6	1	1406384	4	1	1	1	0	832	1	4	0	200	1	0	0	2
fixed	7	6	2	1407561	1	2	2	1	0	1110	1	4	0	208	2	0	0	3
fixed	7	6	3	1409701	6	4	4	1	0	708	1	4	0	224	3	0	0	5
fixed	7	6	4	1411326	2	1	1	1	0	815	1	4	0	200	4	0	0	6
fixed	7	6	5	1412424	5	3	3	1	0	1001	1	4	0	216	5	0	0	8
fixed	7	6	6	1414055	6	4	4	1	0	659	1	4	0	224	6	0	0	9
fixed	7	6	7	1415416	3	1	1	1	0	714	1	4	0	200	7	0	0	10
fixed	7	6	8	1416655	2	3	3	1	0	1021	1	4	0	216	8	0	0	12
fixed	7	6	9	1418363	3	2	2	1	0	693	1	4	0	208	9	0	0	13
fixed	7	6	10	1419796	1	4	4	1	0	625	1	4	0	224	10	0	0	14
fixed	7	6	11	1421438	5	2	2	1	0	1042	1	4	0	208	11	0	0	15
fixed	7	6	12	1422995	4	3	3	1	0	865	1	4	0	216	12	0	0	17
fixed	7	7	1	1424830	4	1	1	1	0	643	1	4	0	200	1	0	0	1
fixed	7	7	2	1425992	1	2	2	1	0	946	1	4	0	208	2	0	0	3
fixed	7	7	3	1427867	6	4	4	1	0	603	1	4	0	224	3	0	0	4
fixed	7	7	4	1429144	2	1	1	1	0	1132	1	4	0	200	4	0	0	5
fixed	7	7	5	1431223	5	3	3	1	0	1404	1	4	0	216	5	0	0	6
fixed	7	7	6	1433403	6	4	4	1	0	560	1	4	0	224	6	0	0	8
fixed	7	7	7	1434515	3	1	1	1	0	593	1	4	0	200	7	0	0	9
fixed	7	7	8	1435689	2	3	3	1	0	1159	1	4	0	216	8	0	0	10
fixed	7	7	9	1437364	3	2	2	1	0	672	1	4	0	208	9	0	0	11
fixed	7	7	10	1438799	1	4	4	1	0	595	1	4	0	224	10	0	0	12
fixed	7	7	11	1440300	5	2	2	1	0	1043	1	4	0	208	11	0	0	13
fixed	7	7	12	1442225	4	3	3	1	0	1090	1	4	0	216	12	0	0	14
fixed	7	8	1	1444478	4	1	1	1	0	1283	1	4	0	200	1	0	0	1
fixed	7	8	2	1446197	1	2	2	1	0	1106	1	4	0	208	2	0	0	2
fixed	7	8	3	1447866	6	4	4	1	0	644	1	4	0	224	3	0	0	3
fixed	7	8	4	1449201	2	1	1	1	0	715	1	4	0	200	4	0	0	5
fixed	7	8	5	1450893	5	3	3	1	0	987	1	4	0	216	5	0	0	6
fixed	7	8	6	1452562	6	4	4	1	0	524	1	4	0	224	6	0	0	7
fixed	7	8	7	1454046	3	1	1	1	0	574	1	4	0	200	7	0	0	8
fixed	7	8	8	1455029	2	3	3	1	0	1236	1	4	0	216	8	0	0	9
fixed	7	8	9	1457027	3	2	2	1	0	567	1	4	0	208	9	0	0	10
fixed	7	8	10	1458373	1	4	4	1	0	614	1	4	0	224	10	0	0	11
fixed	7	8	11	1459415	5	2	2	1	0	1058	1	4	0	208	11	0	0	12
fixed	7	8	12	1461135	4	3	3	1	0	833	1	4	0	216	12	0	0	13
fixed	7	9	1	1463040	4	1	1	1	0	664	1	4	0	200	1	0	0	1
fixed	7	9	2	1464515	1	2	2	1	0	930	1	4	0	208	2	0	0	2
fixed	7	9	3	1465860	6	4	4	1	0	617	1	4	0	224	3	0	0	3
fixed	7	9	4	1466839	2	1	1	1	0	856	1	4	0	200	4	0	0	4
fixed	7	9	5	1468331	5	3	3	1	0	857	1	4	0	216	5	0	0	5
fixed	7	9	6	1469847	6	4	4	1	0	664	1	4	0	224	6	0	0	6
fixed	7	9	7	1471387	3	1	1	1	0	759	1	4	0	200	7	0	0	7
fixed	7	9	8	1472935	2	3	3	1	0	1805	1	4	0	216	8	0	0	8
fixed	7	9	9	1475181	3	2	2	1	0	703	1	4	0	208	9	0	0	9
fixed	7	9	10	1476887	1	4	4	1	0	782	1	4	0	224	10	0	0	9
fixed	7	9	11	1478548	5	2	2	1	0	912	1	4	0	208	11	0	0	10
fixed	7	9	12	1480273	4	3	3	1	0	887	1	4	0	216	12	0	0	11
fixed	7	10	1	1481987	4	1	1	1	0	646	1	4	0	200	1	0	0	1
fixed	7	10	2	1483050	1	2	2	1	0	1297	1	4	0	208	2	0	0	2
fixed	7	10	3	1484859	6	4	4	1	0	532	1	4	0	224	3	0	0	3
fixed	7	10	4	1486376	2	1	1	1	0	556	1	4	0	200	4	0	0	4
fixed	7	10	5	1487835	5	3	3	1	0	1246	1	4	0	216	5	0	0	4
fixed	7	10	6	1489909	6	4	4	1	0	694	1	4	0	224	6	0	0	5
fixed	7	10	7	1491485	3	1	1	1	0	620	1	4	0	200	7	0	0	6
fixed	7	10	8	1492672	2	3	3	1	0	962	1	4	0	216	8	0	0	7
fixed	7	10	9	1494125	3	2	2	1	0	708	1	4	0	208	9	0	0	8
fixed	7	10	10	1495251	1	4	4	1	0	620	1	4	0	224	10	0	0	8
fixed	7	10	11	1496554	5	2	2	1	0	925	1	4	0	208	11	0	0	9
fixed	7	10	12	1497897	4	3	3	1	0	772	1	4	0	216	12	0	0	10
